	trial_type	complete	missIndex	participant	id	blockNumber	b_t	d_t	decision1.corr	decision1.keys	a_t	r_t	decision2.corr	s_t	u_t	block_file
0	main_safe	True	0.0	371	0	0.0	0.0	1.0	1	right	1.0	0.0	0.0	1	0.08	blockFiles/set_27/main_safe/rightBlue\GB_RB_1.xlsx
1	main_safe	True	0.0	371	0	0.0	0.0	1.0	1	right	2.0	1.0	1.0	1	0.08	blockFiles/set_27/main_safe/rightBlue\GB_RB_1.xlsx
2	main_safe	True	0.0	371	0	0.0	0.0	0.0	1	left	1.0	1.0	1.0	0	-0.08	blockFiles/set_27/main_safe/rightBlue\GB_RB_1.xlsx
3	main_safe	True	0.0	371	0	0.0	0.0	0.0	1	left	1.0	1.0	1.0	0	-0.08	blockFiles/set_27/main_safe/rightBlue\GB_RB_1.xlsx
4	main_safe	True	0.0	371	0	0.0	0.0	1.0	1	right	2.0	0.0	1.0	1	0.08	blockFiles/set_27/main_safe/rightBlue\GB_RB_1.xlsx
5	main_safe	True	0.0	371	0	0.0	0.0	0.0	1	left	1.0	1.0	1.0	0	-0.08	blockFiles/set_27/main_safe/rightBlue\GB_RB_1.xlsx
6	main_safe	True	0.0	371	0	0.0	0.0	0.0	1	left	1.0	1.0	1.0	0	-0.08	blockFiles/set_27/main_safe/rightBlue\GB_RB_1.xlsx
7	main_safe	True	0.0	371	0	0.0	0.0	1.0	1	right	2.0	1.0	1.0	1	0.08	blockFiles/set_27/main_safe/rightBlue\GB_RB_1.xlsx
8	main_safe	True	0.0	371	0	0.0	0.0	1.0	1	right	2.0	1.0	1.0	1	0.08	blockFiles/set_27/main_safe/rightBlue\GB_RB_1.xlsx
9	main_safe	True	0.0	371	0	0.0	0.0	1.0	1	right	2.0	1.0	1.0	1	0.08	blockFiles/set_27/main_safe/rightBlue\GB_RB_1.xlsx
10	main_safe	True	0.0	371	0	0.0	0.0	1.0	1	right	2.0	1.0	1.0	1	0.08	blockFiles/set_27/main_safe/rightBlue\GB_RB_1.xlsx
11	main_safe	True	0.0	371	0	0.0	0.0	0.0	1	left	1.0	0.0	1.0	0	-0.08	blockFiles/set_27/main_safe/rightBlue\GB_RB_1.xlsx
12	main_safe	True	0.0	371	0	0.0	0.0	1.0	1	right	2.0	1.0	1.0	1	0.08	blockFiles/set_27/main_safe/rightBlue\GB_RB_1.xlsx
13	main_safe	True	0.0	371	0	0.0	0.0	1.0	1	right	2.0	1.0	1.0	1	0.08	blockFiles/set_27/main_safe/rightBlue\GB_RB_1.xlsx
14	main_safe	True	0.0	371	0	0.0	0.0	1.0	1	right	2.0	1.0	1.0	1	0.08	blockFiles/set_27/main_safe/rightBlue\GB_RB_1.xlsx
15	main_safe	True	0.0	371	0	0.0	0.0	0.0	1	left	1.0	1.0	1.0	0	-0.08	blockFiles/set_27/main_safe/rightBlue\GB_RB_1.xlsx
16	main_safe	True	0.0	371	0	0.0	0.0	1.0	1	right	2.0	1.0	1.0	1	0.08	blockFiles/set_27/main_safe/rightBlue\GB_RB_1.xlsx
17	main_safe	True	0.0	371	0	0.0	0.0	0.0	1	left	1.0	0.0	1.0	0	-0.08	blockFiles/set_27/main_safe/rightBlue\GB_RB_1.xlsx
18	main_safe	True	0.0	371	0	0.0	0.0	0.0	1	left	1.0	0.0	1.0	0	-0.08	blockFiles/set_27/main_safe/rightBlue\GB_RB_1.xlsx
19	main_safe	True	0.0	371	0	0.0	0.0	1.0	1	right	2.0	1.0	1.0	1	0.08	blockFiles/set_27/main_safe/rightBlue\GB_RB_1.xlsx
20	main_safe	True	0.0	371	0	0.0	0.0	1.0	1	right	2.0	0.0	1.0	1	0.08	blockFiles/set_27/main_safe/rightBlue\GB_RB_1.xlsx
21	main_safe	True	0.0	371	0	0.0	0.0	0.0	1	left	1.0	1.0	1.0	0	-0.08	blockFiles/set_27/main_safe/rightBlue\GB_RB_1.xlsx
22	main_safe	True	0.0	371	0	0.0	0.0	0.0	1	left	1.0	1.0	1.0	0	-0.08	blockFiles/set_27/main_safe/rightBlue\GB_RB_1.xlsx
23	main_safe	True	0.0	371	0	0.0	0.0	0.0	1	left	1.0	1.0	1.0	0	-0.08	blockFiles/set_27/main_safe/rightBlue\GB_RB_1.xlsx
24	main_safe	True	0.0	371	0	0.0	0.0	0.0	1	left	1.0	0.0	1.0	0	-0.08	blockFiles/set_27/main_safe/rightBlue\GB_RB_1.xlsx
25	main_safe	True	0.0	371	0	1.0	1.0	0.0	1	left	2.0	0.0	0.0	0	-0.08	blockFiles/set_27/main_safe/rightBlue\GB_RB_3.xlsx
26	main_safe	True	0.0	371	0	1.0	1.0	1.0	1	right	2.0	1.0	1.0	1	0.08	blockFiles/set_27/main_safe/rightBlue\GB_RB_3.xlsx
27	main_safe	True	0.0	371	0	1.0	1.0	1.0	1	right	2.0	1.0	1.0	1	0.08	blockFiles/set_27/main_safe/rightBlue\GB_RB_3.xlsx
28	main_safe	True	0.0	371	0	1.0	1.0	0.0	1	left	1.0	1.0	1.0	0	-0.08	blockFiles/set_27/main_safe/rightBlue\GB_RB_3.xlsx
29	main_safe	True	0.0	371	0	1.0	1.0	1.0	1	right	2.0	1.0	1.0	1	0.08	blockFiles/set_27/main_safe/rightBlue\GB_RB_3.xlsx
30	main_safe	True	0.0	371	0	1.0	1.0	0.0	1	left	1.0	1.0	1.0	0	-0.08	blockFiles/set_27/main_safe/rightBlue\GB_RB_3.xlsx
31	main_safe	True	1.0	371	0	1.0	1.0	0.0	1	left	n/a	0.0	n/a	0	-0.08	blockFiles/set_27/main_safe/rightBlue\GB_RB_3.xlsx
32	main_safe	True	0.0	371	0	1.0	1.0	0.0	1	left	1.0	1.0	1.0	0	-0.08	blockFiles/set_27/main_safe/rightBlue\GB_RB_3.xlsx
33	main_safe	True	0.0	371	0	1.0	1.0	0.0	1	left	1.0	1.0	1.0	0	-0.08	blockFiles/set_27/main_safe/rightBlue\GB_RB_3.xlsx
34	main_safe	True	0.0	371	0	1.0	1.0	1.0	1	right	2.0	1.0	1.0	1	0.08	blockFiles/set_27/main_safe/rightBlue\GB_RB_3.xlsx
35	main_safe	True	0.0	371	0	1.0	1.0	1.0	1	right	2.0	1.0	1.0	1	0.08	blockFiles/set_27/main_safe/rightBlue\GB_RB_3.xlsx
36	main_safe	True	0.0	371	0	1.0	1.0	1.0	1	right	2.0	0.0	1.0	1	0.08	blockFiles/set_27/main_safe/rightBlue\GB_RB_3.xlsx
37	main_safe	True	0.0	371	0	1.0	1.0	0.0	1	left	1.0	0.0	1.0	0	-0.08	blockFiles/set_27/main_safe/rightBlue\GB_RB_3.xlsx
38	main_safe	True	0.0	371	0	1.0	1.0	0.0	1	left	2.0	0.0	0.0	0	-0.08	blockFiles/set_27/main_safe/rightBlue\GB_RB_3.xlsx
39	main_safe	True	0.0	371	0	1.0	1.0	0.0	1	left	1.0	1.0	1.0	0	-0.08	blockFiles/set_27/main_safe/rightBlue\GB_RB_3.xlsx
40	main_safe	True	0.0	371	0	1.0	1.0	1.0	1	right	2.0	1.0	1.0	1	0.08	blockFiles/set_27/main_safe/rightBlue\GB_RB_3.xlsx
41	main_safe	True	0.0	371	0	1.0	1.0	1.0	1	right	2.0	1.0	1.0	1	0.08	blockFiles/set_27/main_safe/rightBlue\GB_RB_3.xlsx
42	main_safe	True	0.0	371	0	1.0	1.0	1.0	1	right	2.0	0.0	1.0	1	0.08	blockFiles/set_27/main_safe/rightBlue\GB_RB_3.xlsx
43	main_safe	True	0.0	371	0	1.0	1.0	0.0	1	left	1.0	1.0	1.0	0	-0.08	blockFiles/set_27/main_safe/rightBlue\GB_RB_3.xlsx
44	main_safe	True	0.0	371	0	1.0	1.0	0.0	1	left	1.0	1.0	1.0	0	-0.08	blockFiles/set_27/main_safe/rightBlue\GB_RB_3.xlsx
45	main_safe	True	0.0	371	0	1.0	1.0	1.0	1	right	2.0	0.0	1.0	1	0.08	blockFiles/set_27/main_safe/rightBlue\GB_RB_3.xlsx
46	main_safe	True	0.0	371	0	1.0	1.0	1.0	1	right	2.0	1.0	1.0	1	0.08	blockFiles/set_27/main_safe/rightBlue\GB_RB_3.xlsx
47	main_safe	True	0.0	371	0	1.0	1.0	0.0	1	left	1.0	1.0	1.0	0	-0.08	blockFiles/set_27/main_safe/rightBlue\GB_RB_3.xlsx
48	main_safe	True	0.0	371	0	1.0	1.0	0.0	1	left	1.0	1.0	1.0	0	-0.08	blockFiles/set_27/main_safe/rightBlue\GB_RB_3.xlsx
49	main_safe	True	0.0	371	0	1.0	1.0	1.0	1	right	2.0	0.0	1.0	1	0.08	blockFiles/set_27/main_safe/rightBlue\GB_RB_3.xlsx
50	main_safe	True	0.0	371	0	1.0	1.0	0.0	1	left	1.0	1.0	1.0	0	-0.08	blockFiles/set_27/main_safe/rightBlue\GB_RB_3.xlsx
51	main_safe	True	0.0	371	0	2.0	2.0	1.0	1	right	2.0	0.0	0.0	1	0.08	blockFiles/set_27/main_safe/leftBlue\GB_LB_2.xlsx
52	main_safe	True	0.0	371	0	2.0	2.0	1.0	1	right	1.0	1.0	1.0	1	0.08	blockFiles/set_27/main_safe/leftBlue\GB_LB_2.xlsx
53	main_safe	True	0.0	371	0	2.0	2.0	0.0	1	left	2.0	1.0	1.0	0	-0.08	blockFiles/set_27/main_safe/leftBlue\GB_LB_2.xlsx
54	main_safe	True	0.0	371	0	2.0	2.0	1.0	1	right	1.0	1.0	1.0	1	0.08	blockFiles/set_27/main_safe/leftBlue\GB_LB_2.xlsx
55	main_safe	True	0.0	371	0	2.0	2.0	0.0	1	left	2.0	1.0	1.0	0	-0.08	blockFiles/set_27/main_safe/leftBlue\GB_LB_2.xlsx
56	main_safe	True	0.0	371	0	2.0	2.0	1.0	1	right	1.0	1.0	1.0	1	0.08	blockFiles/set_27/main_safe/leftBlue\GB_LB_2.xlsx
57	main_safe	True	1.0	371	0	2.0	2.0	1.0	1	right	n/a	0.0	n/a	1	0.08	blockFiles/set_27/main_safe/leftBlue\GB_LB_2.xlsx
58	main_safe	True	0.0	371	0	2.0	2.0	0.0	1	left	2.0	1.0	1.0	0	-0.08	blockFiles/set_27/main_safe/leftBlue\GB_LB_2.xlsx
59	main_safe	True	0.0	371	0	2.0	2.0	0.0	1	left	2.0	1.0	1.0	0	-0.08	blockFiles/set_27/main_safe/leftBlue\GB_LB_2.xlsx
60	main_safe	True	0.0	371	0	2.0	2.0	1.0	1	right	1.0	1.0	1.0	1	0.08	blockFiles/set_27/main_safe/leftBlue\GB_LB_2.xlsx
61	main_safe	True	0.0	371	0	2.0	2.0	0.0	1	left	2.0	1.0	1.0	0	-0.08	blockFiles/set_27/main_safe/leftBlue\GB_LB_2.xlsx
62	main_safe	True	0.0	371	0	2.0	2.0	0.0	1	left	2.0	1.0	1.0	0	-0.08	blockFiles/set_27/main_safe/leftBlue\GB_LB_2.xlsx
63	main_safe	True	0.0	371	0	2.0	2.0	1.0	1	right	1.0	1.0	1.0	1	0.08	blockFiles/set_27/main_safe/leftBlue\GB_LB_2.xlsx
64	main_safe	True	0.0	371	0	2.0	2.0	1.0	1	right	1.0	1.0	1.0	1	0.08	blockFiles/set_27/main_safe/leftBlue\GB_LB_2.xlsx
65	main_safe	True	0.0	371	0	2.0	2.0	0.0	1	left	2.0	1.0	1.0	0	-0.08	blockFiles/set_27/main_safe/leftBlue\GB_LB_2.xlsx
66	main_safe	True	0.0	371	0	2.0	2.0	0.0	1	left	2.0	0.0	1.0	0	-0.08	blockFiles/set_27/main_safe/leftBlue\GB_LB_2.xlsx
67	main_safe	True	0.0	371	0	2.0	2.0	1.0	1	right	1.0	1.0	1.0	1	0.08	blockFiles/set_27/main_safe/leftBlue\GB_LB_2.xlsx
68	main_safe	True	0.0	371	0	2.0	2.0	0.0	1	left	2.0	1.0	1.0	0	-0.08	blockFiles/set_27/main_safe/leftBlue\GB_LB_2.xlsx
69	main_safe	True	0.0	371	0	2.0	2.0	1.0	1	right	1.0	1.0	1.0	1	0.08	blockFiles/set_27/main_safe/leftBlue\GB_LB_2.xlsx
70	main_safe	True	0.0	371	0	2.0	2.0	0.0	1	left	2.0	1.0	1.0	0	-0.08	blockFiles/set_27/main_safe/leftBlue\GB_LB_2.xlsx
71	main_safe	True	0.0	371	0	2.0	2.0	1.0	1	right	1.0	1.0	1.0	1	0.08	blockFiles/set_27/main_safe/leftBlue\GB_LB_2.xlsx
72	main_safe	True	0.0	371	0	2.0	2.0	0.0	1	left	2.0	0.0	1.0	0	-0.08	blockFiles/set_27/main_safe/leftBlue\GB_LB_2.xlsx
73	main_safe	True	0.0	371	0	2.0	2.0	1.0	1	right	1.0	0.0	1.0	1	0.08	blockFiles/set_27/main_safe/leftBlue\GB_LB_2.xlsx
74	main_safe	True	0.0	371	0	2.0	2.0	0.0	1	left	2.0	1.0	1.0	0	-0.08	blockFiles/set_27/main_safe/leftBlue\GB_LB_2.xlsx
75	main_safe	True	0.0	371	0	2.0	2.0	0.0	1	left	2.0	1.0	1.0	0	-0.08	blockFiles/set_27/main_safe/leftBlue\GB_LB_2.xlsx
76	main_safe	True	0.0	371	0	2.0	2.0	1.0	1	right	1.0	0.0	1.0	1	0.08	blockFiles/set_27/main_safe/leftBlue\GB_LB_2.xlsx
77	main_safe	True	0.0	371	0	3.0	3.0	0.0	1	left	1.0	0.0	0.0	0	-0.08	blockFiles/set_27/main_safe/leftBlue\GB_LB_3.xlsx
78	main_safe	True	0.0	371	0	3.0	3.0	0.0	1	left	2.0	1.0	1.0	0	-0.08	blockFiles/set_27/main_safe/leftBlue\GB_LB_3.xlsx
79	main_safe	True	0.0	371	0	3.0	3.0	0.0	1	left	2.0	0.0	1.0	0	-0.08	blockFiles/set_27/main_safe/leftBlue\GB_LB_3.xlsx
80	main_safe	True	0.0	371	0	3.0	3.0	1.0	1	right	1.0	1.0	1.0	1	0.08	blockFiles/set_27/main_safe/leftBlue\GB_LB_3.xlsx
81	main_safe	True	0.0	371	0	3.0	3.0	1.0	1	right	1.0	1.0	1.0	1	0.08	blockFiles/set_27/main_safe/leftBlue\GB_LB_3.xlsx
82	main_safe	True	0.0	371	0	3.0	3.0	0.0	1	left	2.0	1.0	1.0	0	-0.08	blockFiles/set_27/main_safe/leftBlue\GB_LB_3.xlsx
83	main_safe	True	0.0	371	0	3.0	3.0	1.0	1	right	1.0	1.0	1.0	1	0.08	blockFiles/set_27/main_safe/leftBlue\GB_LB_3.xlsx
84	main_safe	True	0.0	371	0	3.0	3.0	1.0	1	right	1.0	1.0	1.0	1	0.08	blockFiles/set_27/main_safe/leftBlue\GB_LB_3.xlsx
85	main_safe	True	0.0	371	0	3.0	3.0	1.0	1	right	1.0	1.0	1.0	1	0.08	blockFiles/set_27/main_safe/leftBlue\GB_LB_3.xlsx
86	main_safe	True	0.0	371	0	3.0	3.0	0.0	1	left	2.0	1.0	1.0	0	-0.08	blockFiles/set_27/main_safe/leftBlue\GB_LB_3.xlsx
87	main_safe	True	0.0	371	0	3.0	3.0	1.0	1	right	1.0	0.0	1.0	1	0.08	blockFiles/set_27/main_safe/leftBlue\GB_LB_3.xlsx
88	main_safe	True	0.0	371	0	3.0	3.0	1.0	1	right	1.0	1.0	1.0	1	0.08	blockFiles/set_27/main_safe/leftBlue\GB_LB_3.xlsx
89	main_safe	True	0.0	371	0	3.0	3.0	1.0	1	right	1.0	1.0	1.0	1	0.08	blockFiles/set_27/main_safe/leftBlue\GB_LB_3.xlsx
90	main_safe	True	0.0	371	0	3.0	3.0	1.0	1	right	1.0	1.0	1.0	1	0.08	blockFiles/set_27/main_safe/leftBlue\GB_LB_3.xlsx
91	main_safe	True	0.0	371	0	3.0	3.0	0.0	1	left	2.0	1.0	1.0	0	-0.08	blockFiles/set_27/main_safe/leftBlue\GB_LB_3.xlsx
92	main_safe	True	0.0	371	0	3.0	3.0	1.0	1	right	1.0	1.0	1.0	1	0.08	blockFiles/set_27/main_safe/leftBlue\GB_LB_3.xlsx
93	main_safe	True	0.0	371	0	3.0	3.0	0.0	1	left	2.0	1.0	1.0	0	-0.08	blockFiles/set_27/main_safe/leftBlue\GB_LB_3.xlsx
94	main_safe	True	0.0	371	0	3.0	3.0	0.0	1	left	2.0	1.0	1.0	0	-0.08	blockFiles/set_27/main_safe/leftBlue\GB_LB_3.xlsx
95	main_safe	True	0.0	371	0	3.0	3.0	1.0	1	right	1.0	0.0	1.0	1	0.08	blockFiles/set_27/main_safe/leftBlue\GB_LB_3.xlsx
96	main_safe	True	0.0	371	0	3.0	3.0	0.0	1	left	2.0	1.0	1.0	0	-0.08	blockFiles/set_27/main_safe/leftBlue\GB_LB_3.xlsx
97	main_safe	True	0.0	371	0	3.0	3.0	0.0	1	left	2.0	1.0	1.0	0	-0.08	blockFiles/set_27/main_safe/leftBlue\GB_LB_3.xlsx
98	main_safe	True	0.0	371	0	3.0	3.0	1.0	1	right	1.0	1.0	1.0	1	0.08	blockFiles/set_27/main_safe/leftBlue\GB_LB_3.xlsx
99	main_safe	True	0.0	371	0	3.0	3.0	0.0	1	left	2.0	0.0	1.0	0	-0.08	blockFiles/set_27/main_safe/leftBlue\GB_LB_3.xlsx
100	main_safe	True	0.0	371	0	3.0	3.0	0.0	1	left	2.0	1.0	1.0	0	-0.08	blockFiles/set_27/main_safe/leftBlue\GB_LB_3.xlsx
101	main_safe	True	1.0	371	0	3.0	3.0	1.0	1	right	n/a	0.0	n/a	1	0.08	blockFiles/set_27/main_safe/leftBlue\GB_LB_3.xlsx
102	main_safe	True	0.0	371	0	3.0	3.0	1.0	1	right	1.0	0.0	1.0	1	0.08	blockFiles/set_27/main_safe/leftBlue\GB_LB_3.xlsx
103	main_safe	True	0.0	371	0	4.0	4.0	1.0	1	right	2.0	0.0	0.0	1	0.08	blockFiles/set_27/main_safe/leftBlue\GB_LB_1.xlsx
104	main_safe	True	0.0	371	0	4.0	4.0	0.0	1	left	2.0	1.0	1.0	0	-0.08	blockFiles/set_27/main_safe/leftBlue\GB_LB_1.xlsx
105	main_safe	True	0.0	371	0	4.0	4.0	0.0	1	left	2.0	1.0	1.0	0	-0.08	blockFiles/set_27/main_safe/leftBlue\GB_LB_1.xlsx
106	main_safe	True	0.0	371	0	4.0	4.0	1.0	1	right	1.0	1.0	1.0	1	0.08	blockFiles/set_27/main_safe/leftBlue\GB_LB_1.xlsx
107	main_safe	True	0.0	371	0	4.0	4.0	1.0	1	right	1.0	0.0	1.0	1	0.08	blockFiles/set_27/main_safe/leftBlue\GB_LB_1.xlsx
108	main_safe	True	0.0	371	0	4.0	4.0	0.0	1	left	2.0	1.0	1.0	0	-0.08	blockFiles/set_27/main_safe/leftBlue\GB_LB_1.xlsx
109	main_safe	True	0.0	371	0	4.0	4.0	0.0	1	left	2.0	1.0	1.0	0	-0.08	blockFiles/set_27/main_safe/leftBlue\GB_LB_1.xlsx
110	main_safe	True	0.0	371	0	4.0	4.0	1.0	1	right	1.0	1.0	1.0	1	0.08	blockFiles/set_27/main_safe/leftBlue\GB_LB_1.xlsx
111	main_safe	True	0.0	371	0	4.0	4.0	0.0	1	left	2.0	1.0	1.0	0	-0.08	blockFiles/set_27/main_safe/leftBlue\GB_LB_1.xlsx
112	main_safe	True	1.0	371	0	4.0	4.0	0.0	1	left	n/a	0.0	n/a	0	-0.08	blockFiles/set_27/main_safe/leftBlue\GB_LB_1.xlsx
113	main_safe	True	0.0	371	0	4.0	4.0	0.0	1	left	2.0	1.0	1.0	0	-0.08	blockFiles/set_27/main_safe/leftBlue\GB_LB_1.xlsx
114	main_safe	True	0.0	371	0	4.0	4.0	1.0	1	right	1.0	0.0	1.0	1	0.08	blockFiles/set_27/main_safe/leftBlue\GB_LB_1.xlsx
115	main_safe	True	0.0	371	0	4.0	4.0	1.0	1	right	1.0	1.0	1.0	1	0.08	blockFiles/set_27/main_safe/leftBlue\GB_LB_1.xlsx
116	main_safe	True	0.0	371	0	4.0	4.0	1.0	1	right	1.0	0.0	1.0	1	0.08	blockFiles/set_27/main_safe/leftBlue\GB_LB_1.xlsx
117	main_safe	True	0.0	371	0	4.0	4.0	0.0	1	left	2.0	1.0	1.0	0	-0.08	blockFiles/set_27/main_safe/leftBlue\GB_LB_1.xlsx
118	main_safe	True	0.0	371	0	4.0	4.0	1.0	1	right	1.0	1.0	1.0	1	0.08	blockFiles/set_27/main_safe/leftBlue\GB_LB_1.xlsx
119	main_safe	True	0.0	371	0	4.0	4.0	0.0	1	left	2.0	0.0	1.0	0	-0.08	blockFiles/set_27/main_safe/leftBlue\GB_LB_1.xlsx
120	main_safe	True	0.0	371	0	4.0	4.0	0.0	1	left	2.0	1.0	1.0	0	-0.08	blockFiles/set_27/main_safe/leftBlue\GB_LB_1.xlsx
121	main_safe	True	0.0	371	0	4.0	4.0	0.0	1	left	2.0	1.0	1.0	0	-0.08	blockFiles/set_27/main_safe/leftBlue\GB_LB_1.xlsx
122	main_safe	True	0.0	371	0	4.0	4.0	0.0	1	left	2.0	1.0	1.0	0	-0.08	blockFiles/set_27/main_safe/leftBlue\GB_LB_1.xlsx
123	main_safe	True	0.0	371	0	4.0	4.0	1.0	1	right	1.0	1.0	1.0	1	0.08	blockFiles/set_27/main_safe/leftBlue\GB_LB_1.xlsx
124	main_safe	True	0.0	371	0	4.0	4.0	0.0	1	left	2.0	0.0	1.0	0	-0.08	blockFiles/set_27/main_safe/leftBlue\GB_LB_1.xlsx
125	main_safe	True	0.0	371	0	4.0	4.0	1.0	1	right	1.0	1.0	1.0	1	0.08	blockFiles/set_27/main_safe/leftBlue\GB_LB_1.xlsx
126	main_safe	True	0.0	371	0	4.0	4.0	1.0	1	right	1.0	1.0	1.0	1	0.08	blockFiles/set_27/main_safe/leftBlue\GB_LB_1.xlsx
127	main_safe	True	0.0	371	0	4.0	4.0	0.0	1	left	2.0	1.0	1.0	0	-0.08	blockFiles/set_27/main_safe/leftBlue\GB_LB_1.xlsx
128	main_safe	True	0.0	371	0	4.0	4.0	0.0	1	left	2.0	1.0	1.0	0	-0.08	blockFiles/set_27/main_safe/leftBlue\GB_LB_1.xlsx
129	main_safe	True	0.0	371	0	5.0	5.0	1.0	1	right	1.0	0.0	0.0	1	0.08	blockFiles/set_27/main_safe/rightBlue\GB_RB_2.xlsx
130	main_safe	True	0.0	371	0	5.0	5.0	0.0	1	left	1.0	0.0	1.0	0	-0.08	blockFiles/set_27/main_safe/rightBlue\GB_RB_2.xlsx
131	main_safe	True	0.0	371	0	5.0	5.0	1.0	1	right	2.0	0.0	1.0	1	0.08	blockFiles/set_27/main_safe/rightBlue\GB_RB_2.xlsx
132	main_safe	True	0.0	371	0	5.0	5.0	0.0	1	left	2.0	0.0	0.0	0	-0.08	blockFiles/set_27/main_safe/rightBlue\GB_RB_2.xlsx
133	main_safe	True	0.0	371	0	5.0	5.0	0.0	1	left	2.0	0.0	0.0	0	-0.08	blockFiles/set_27/main_safe/rightBlue\GB_RB_2.xlsx
134	main_safe	True	0.0	371	0	5.0	5.0	0.0	1	left	1.0	1.0	1.0	0	-0.08	blockFiles/set_27/main_safe/rightBlue\GB_RB_2.xlsx
135	main_safe	True	0.0	371	0	5.0	5.0	0.0	1	left	1.0	1.0	1.0	0	-0.08	blockFiles/set_27/main_safe/rightBlue\GB_RB_2.xlsx
136	main_safe	True	0.0	371	0	5.0	5.0	0.0	1	left	1.0	1.0	1.0	0	-0.08	blockFiles/set_27/main_safe/rightBlue\GB_RB_2.xlsx
137	main_safe	True	0.0	371	0	5.0	5.0	1.0	1	right	2.0	1.0	1.0	1	0.08	blockFiles/set_27/main_safe/rightBlue\GB_RB_2.xlsx
138	main_safe	True	0.0	371	0	5.0	5.0	0.0	1	left	1.0	1.0	1.0	0	-0.08	blockFiles/set_27/main_safe/rightBlue\GB_RB_2.xlsx
139	main_safe	True	0.0	371	0	5.0	5.0	1.0	1	right	2.0	0.0	1.0	1	0.08	blockFiles/set_27/main_safe/rightBlue\GB_RB_2.xlsx
140	main_safe	True	0.0	371	0	5.0	5.0	0.0	1	left	1.0	1.0	1.0	0	-0.08	blockFiles/set_27/main_safe/rightBlue\GB_RB_2.xlsx
141	main_safe	True	0.0	371	0	5.0	5.0	0.0	1	left	1.0	1.0	1.0	0	-0.08	blockFiles/set_27/main_safe/rightBlue\GB_RB_2.xlsx
142	main_safe	True	1.0	371	0	5.0	5.0	1.0	1	right	n/a	0.0	n/a	1	0.08	blockFiles/set_27/main_safe/rightBlue\GB_RB_2.xlsx
143	main_safe	True	0.0	371	0	5.0	5.0	0.0	1	left	1.0	1.0	1.0	0	-0.08	blockFiles/set_27/main_safe/rightBlue\GB_RB_2.xlsx
144	main_safe	True	0.0	371	0	5.0	5.0	1.0	1	right	2.0	1.0	1.0	1	0.08	blockFiles/set_27/main_safe/rightBlue\GB_RB_2.xlsx
145	main_safe	True	0.0	371	0	5.0	5.0	1.0	1	right	2.0	1.0	1.0	1	0.08	blockFiles/set_27/main_safe/rightBlue\GB_RB_2.xlsx
146	main_safe	True	0.0	371	0	5.0	5.0	1.0	1	right	2.0	1.0	1.0	1	0.08	blockFiles/set_27/main_safe/rightBlue\GB_RB_2.xlsx
147	main_safe	True	0.0	371	0	5.0	5.0	1.0	1	right	2.0	1.0	1.0	1	0.08	blockFiles/set_27/main_safe/rightBlue\GB_RB_2.xlsx
148	main_safe	True	0.0	371	0	5.0	5.0	1.0	1	right	2.0	1.0	1.0	1	0.08	blockFiles/set_27/main_safe/rightBlue\GB_RB_2.xlsx
149	main_safe	True	0.0	371	0	5.0	5.0	1.0	1	right	2.0	1.0	1.0	1	0.08	blockFiles/set_27/main_safe/rightBlue\GB_RB_2.xlsx
150	main_safe	True	0.0	371	0	5.0	5.0	1.0	1	right	2.0	1.0	1.0	1	0.08	blockFiles/set_27/main_safe/rightBlue\GB_RB_2.xlsx
151	main_safe	True	0.0	371	0	5.0	5.0	0.0	1	left	1.0	1.0	1.0	0	-0.08	blockFiles/set_27/main_safe/rightBlue\GB_RB_2.xlsx
152	main_safe	True	0.0	371	0	5.0	5.0	0.0	1	left	1.0	1.0	1.0	0	-0.08	blockFiles/set_27/main_safe/rightBlue\GB_RB_2.xlsx
153	main_safe	True	0.0	371	0	5.0	5.0	0.0	1	left	1.0	0.0	1.0	0	-0.08	blockFiles/set_27/main_safe/rightBlue\GB_RB_2.xlsx
154	main_safe	True	0.0	371	0	5.0	5.0	0.0	0	left	2.0	0.0	1.0	1	0.08	blockFiles/set_27/main_safe/rightBlue\GB_RB_2.xlsx
155	patches	True	n/a	371	0	n/a	n/a	1.0	1	right	n/a	n/a	n/a	1	0.047715413030199993	blockFiles/set_27/main_PD/GB_runPatches1.xlsx
156	patches	True	n/a	371	0	n/a	n/a	1.0	1	right	n/a	n/a	n/a	1	0.0698625768907	blockFiles/set_27/main_PD/GB_runPatches1.xlsx
157	patches	True	n/a	371	0	n/a	n/a	0.0	0	left	n/a	n/a	n/a	1	0.0220145708695	blockFiles/set_27/main_PD/GB_runPatches1.xlsx
158	patches	True	n/a	371	0	n/a	n/a	0.0	1	left	n/a	n/a	n/a	0	-0.0466724904999	blockFiles/set_27/main_PD/GB_runPatches1.xlsx
159	patches	True	n/a	371	0	n/a	n/a	0.0	1	left	n/a	n/a	n/a	0	-0.0430124532245	blockFiles/set_27/main_PD/GB_runPatches1.xlsx
160	patches	True	n/a	371	0	n/a	n/a	1.0	1	right	n/a	n/a	n/a	1	0.033579508252400005	blockFiles/set_27/main_PD/GB_runPatches1.xlsx
161	patches	True	n/a	371	0	n/a	n/a	1.0	0	right	n/a	n/a	n/a	0	-0.0695136655495	blockFiles/set_27/main_PD/GB_runPatches1.xlsx
162	patches	True	n/a	371	0	n/a	n/a	1.0	1	right	n/a	n/a	n/a	1	0.052806875091	blockFiles/set_27/main_PD/GB_runPatches1.xlsx
163	patches	True	n/a	371	0	n/a	n/a	n/a	0	None	n/a	n/a	n/a	0	-0.027635875325700002	blockFiles/set_27/main_PD/GB_runPatches1.xlsx
164	patches	True	n/a	371	0	n/a	n/a	1.0	0	right	n/a	n/a	n/a	0	-0.00471285363659	blockFiles/set_27/main_PD/GB_runPatches1.xlsx
165	patches	True	n/a	371	0	n/a	n/a	0.0	1	left	n/a	n/a	n/a	0	-0.056640122812199996	blockFiles/set_27/main_PD/GB_runPatches1.xlsx
166	patches	True	n/a	371	0	n/a	n/a	1.0	1	right	n/a	n/a	n/a	1	0.0489500235394	blockFiles/set_27/main_PD/GB_runPatches1.xlsx
167	patches	True	n/a	371	0	n/a	n/a	0.0	1	left	n/a	n/a	n/a	0	-0.051165538225300004	blockFiles/set_27/main_PD/GB_runPatches1.xlsx
168	patches	True	n/a	371	0	n/a	n/a	1.0	1	right	n/a	n/a	n/a	1	0.037070774622300004	blockFiles/set_27/main_PD/GB_runPatches1.xlsx
169	patches	True	n/a	371	0	n/a	n/a	1.0	1	right	n/a	n/a	n/a	1	0.070075104963	blockFiles/set_27/main_PD/GB_runPatches1.xlsx
170	patches	True	n/a	371	0	n/a	n/a	1.0	1	right	n/a	n/a	n/a	1	0.013569808062200001	blockFiles/set_27/main_PD/GB_runPatches1.xlsx
171	patches	True	n/a	371	0	n/a	n/a	1.0	1	right	n/a	n/a	n/a	1	0.06315991900859999	blockFiles/set_27/main_PD/GB_runPatches1.xlsx
172	patches	True	n/a	371	0	n/a	n/a	1.0	1	right	n/a	n/a	n/a	1	0.018221420645700002	blockFiles/set_27/main_PD/GB_runPatches1.xlsx
173	patches	True	n/a	371	0	n/a	n/a	1.0	1	right	n/a	n/a	n/a	1	0.0604096994549	blockFiles/set_27/main_PD/GB_runPatches1.xlsx
174	patches	True	n/a	371	0	n/a	n/a	n/a	0	None	n/a	n/a	n/a	0	-0.034110934324599995	blockFiles/set_27/main_PD/GB_runPatches1.xlsx
175	patches	True	n/a	371	0	n/a	n/a	0.0	1	left	n/a	n/a	n/a	0	-0.057903426569	blockFiles/set_27/main_PD/GB_runPatches1.xlsx
176	patches	True	n/a	371	0	n/a	n/a	1.0	0	right	n/a	n/a	n/a	0	-0.0337968156487	blockFiles/set_27/main_PD/GB_runPatches1.xlsx
177	patches	True	n/a	371	0	n/a	n/a	0.0	1	left	n/a	n/a	n/a	0	-0.0427708591521	blockFiles/set_27/main_PD/GB_runPatches1.xlsx
178	patches	True	n/a	371	0	n/a	n/a	0.0	1	left	n/a	n/a	n/a	0	-0.0150307822786	blockFiles/set_27/main_PD/GB_runPatches1.xlsx
179	patches	True	n/a	371	0	n/a	n/a	n/a	0	None	n/a	n/a	n/a	0	-0.07216428278010001	blockFiles/set_27/main_PD/GB_runPatches1.xlsx
180	patches	True	n/a	371	0	n/a	n/a	1.0	1	right	n/a	n/a	n/a	1	0.0629411985166	blockFiles/set_27/main_PD/GB_runPatches1.xlsx
181	patches	True	n/a	371	0	n/a	n/a	1.0	1	right	n/a	n/a	n/a	1	0.023281748983999997	blockFiles/set_27/main_PD/GB_runPatches1.xlsx
182	patches	True	n/a	371	0	n/a	n/a	1.0	0	right	n/a	n/a	n/a	0	-0.0570999048278	blockFiles/set_27/main_PD/GB_runPatches1.xlsx
183	patches	True	n/a	371	0	n/a	n/a	1.0	0	right	n/a	n/a	n/a	0	-0.040788692385	blockFiles/set_27/main_PD/GB_runPatches1.xlsx
184	patches	True	n/a	371	0	n/a	n/a	1.0	0	right	n/a	n/a	n/a	0	-0.0309533780627	blockFiles/set_27/main_PD/GB_runPatches1.xlsx
185	patches	True	n/a	371	0	n/a	n/a	1.0	0	right	n/a	n/a	n/a	0	-0.025200101845	blockFiles/set_27/main_PD/GB_runPatches1.xlsx
186	patches	True	n/a	371	0	n/a	n/a	1.0	1	right	n/a	n/a	n/a	1	0.022118331734099998	blockFiles/set_27/main_PD/GB_runPatches1.xlsx
187	patches	True	n/a	371	0	n/a	n/a	0.0	0	left	n/a	n/a	n/a	1	0.041264867615	blockFiles/set_27/main_PD/GB_runPatches1.xlsx
188	patches	True	n/a	371	0	n/a	n/a	1.0	1	right	n/a	n/a	n/a	1	0.04597568029540001	blockFiles/set_27/main_PD/GB_runPatches1.xlsx
189	patches	True	n/a	371	0	n/a	n/a	1.0	0	right	n/a	n/a	n/a	0	-0.0545224611089	blockFiles/set_27/main_PD/GB_runPatches1.xlsx
190	patches	True	n/a	371	0	n/a	n/a	n/a	0	None	n/a	n/a	n/a	1	0.0647391292267	blockFiles/set_27/main_PD/GB_runPatches1.xlsx
191	patches	True	n/a	371	0	n/a	n/a	0.0	1	left	n/a	n/a	n/a	0	-0.07515037367119999	blockFiles/set_27/main_PD/GB_runPatches1.xlsx
192	patches	True	n/a	371	0	n/a	n/a	0.0	0	left	n/a	n/a	n/a	1	0.00319761261344	blockFiles/set_27/main_PD/GB_runPatches1.xlsx
193	patches	True	n/a	371	0	n/a	n/a	1.0	1	right	n/a	n/a	n/a	1	0.0166305756941	blockFiles/set_27/main_PD/GB_runPatches1.xlsx
194	patches	True	n/a	371	0	n/a	n/a	1.0	0	right	n/a	n/a	n/a	0	-0.0134243235178	blockFiles/set_27/main_PD/GB_runPatches1.xlsx
195	patches	True	n/a	371	0	n/a	n/a	1.0	1	right	n/a	n/a	n/a	1	0.0695109340735	blockFiles/set_27/main_PD/GB_runPatches1.xlsx
196	patches	True	n/a	371	0	n/a	n/a	0.0	1	left	n/a	n/a	n/a	0	-0.016408507786700003	blockFiles/set_27/main_PD/GB_runPatches1.xlsx
197	patches	True	n/a	371	0	n/a	n/a	1.0	1	right	n/a	n/a	n/a	1	0.067690219041	blockFiles/set_27/main_PD/GB_runPatches1.xlsx
198	patches	True	n/a	371	0	n/a	n/a	1.0	1	right	n/a	n/a	n/a	1	0.033289622161500006	blockFiles/set_27/main_PD/GB_runPatches1.xlsx
199	patches	True	n/a	371	0	n/a	n/a	1.0	1	right	n/a	n/a	n/a	1	0.026843775920599996	blockFiles/set_27/main_PD/GB_runPatches1.xlsx
200	patches	True	n/a	371	0	n/a	n/a	1.0	0	right	n/a	n/a	n/a	0	-0.0748032119684	blockFiles/set_27/main_PD/GB_runPatches1.xlsx
201	patches	True	n/a	371	0	n/a	n/a	1.0	0	right	n/a	n/a	n/a	0	-0.0005145994387569999	blockFiles/set_27/main_PD/GB_runPatches1.xlsx
202	patches	True	n/a	371	0	n/a	n/a	0.0	1	left	n/a	n/a	n/a	0	-0.0292345035262	blockFiles/set_27/main_PD/GB_runPatches1.xlsx
203	patches	True	n/a	371	0	n/a	n/a	0.0	1	left	n/a	n/a	n/a	0	-0.0102745416015	blockFiles/set_27/main_PD/GB_runPatches1.xlsx
204	patches	True	n/a	371	0	n/a	n/a	1.0	1	right	n/a	n/a	n/a	1	0.041775159835800005	blockFiles/set_27/main_PD/GB_runPatches1.xlsx
205	patches	True	n/a	371	0	n/a	n/a	0.0	1	left	n/a	n/a	n/a	0	-0.07296278512110001	blockFiles/set_27/main_PD/GB_runPatches1.xlsx
206	patches	True	n/a	371	0	n/a	n/a	1.0	1	right	n/a	n/a	n/a	1	0.0343144698627	blockFiles/set_27/main_PD/GB_runPatches1.xlsx
207	patches	True	n/a	371	0	n/a	n/a	1.0	0	right	n/a	n/a	n/a	0	-0.00312969135121	blockFiles/set_27/main_PD/GB_runPatches1.xlsx
208	patches	True	n/a	371	0	n/a	n/a	1.0	0	right	n/a	n/a	n/a	0	-0.0736837858707	blockFiles/set_27/main_PD/GB_runPatches1.xlsx
209	patches	True	n/a	371	0	n/a	n/a	0.0	1	left	n/a	n/a	n/a	0	-0.00803591556847	blockFiles/set_27/main_PD/GB_runPatches1.xlsx
210	patches	True	n/a	371	0	n/a	n/a	1.0	0	right	n/a	n/a	n/a	0	-0.0653957897425	blockFiles/set_27/main_PD/GB_runPatches1.xlsx
211	patches	True	n/a	371	0	n/a	n/a	1.0	1	right	n/a	n/a	n/a	1	0.005733277872199999	blockFiles/set_27/main_PD/GB_runPatches1.xlsx
212	patches	True	n/a	371	0	n/a	n/a	1.0	0	right	n/a	n/a	n/a	0	-0.00683690182865	blockFiles/set_27/main_PD/GB_runPatches1.xlsx
213	patches	True	n/a	371	0	n/a	n/a	1.0	0	right	n/a	n/a	n/a	0	-0.04925027163700001	blockFiles/set_27/main_PD/GB_runPatches1.xlsx
214	patches	True	n/a	371	0	n/a	n/a	1.0	0	right	n/a	n/a	n/a	0	-0.0562660746649	blockFiles/set_27/main_PD/GB_runPatches1.xlsx
215	patches	True	n/a	371	0	n/a	n/a	1.0	0	right	n/a	n/a	n/a	0	-0.0424902202934	blockFiles/set_27/main_PD/GB_runPatches1.xlsx
216	patches	True	n/a	371	0	n/a	n/a	0.0	1	left	n/a	n/a	n/a	0	-0.07031296741219999	blockFiles/set_27/main_PD/GB_runPatches1.xlsx
217	patches	True	n/a	371	0	n/a	n/a	0.0	1	left	n/a	n/a	n/a	0	-0.0389023210853	blockFiles/set_27/main_PD/GB_runPatches1.xlsx
218	patches	True	n/a	371	0	n/a	n/a	1.0	1	right	n/a	n/a	n/a	1	0.0011152110993900002	blockFiles/set_27/main_PD/GB_runPatches1.xlsx
219	patches	True	n/a	371	0	n/a	n/a	1.0	1	right	n/a	n/a	n/a	1	0.0287526378967	blockFiles/set_27/main_PD/GB_runPatches1.xlsx
220	patches	True	n/a	371	0	n/a	n/a	1.0	0	right	n/a	n/a	n/a	0	-0.07925226598980001	blockFiles/set_27/main_PD/GB_runPatches1.xlsx
221	patches	True	n/a	371	0	n/a	n/a	1.0	1	right	n/a	n/a	n/a	1	0.06724248077719999	blockFiles/set_27/main_PD/GB_runPatches1.xlsx
222	patches	True	n/a	371	0	n/a	n/a	1.0	1	right	n/a	n/a	n/a	1	0.056281744223100005	blockFiles/set_27/main_PD/GB_runPatches1.xlsx
223	patches	True	n/a	371	0	n/a	n/a	0.0	1	left	n/a	n/a	n/a	0	-0.0322468153201	blockFiles/set_27/main_PD/GB_runPatches1.xlsx
224	patches	True	n/a	371	0	n/a	n/a	1.0	1	right	n/a	n/a	n/a	1	0.006860607992859999	blockFiles/set_27/main_PD/GB_runPatches1.xlsx
225	patches	True	n/a	371	0	n/a	n/a	1.0	1	right	n/a	n/a	n/a	1	0.0681532306038	blockFiles/set_27/main_PD/GB_runPatches1.xlsx
226	patches	True	n/a	371	0	n/a	n/a	1.0	1	right	n/a	n/a	n/a	1	0.032351715602	blockFiles/set_27/main_PD/GB_runPatches1.xlsx
227	patches	True	n/a	371	0	n/a	n/a	1.0	1	right	n/a	n/a	n/a	1	0.0387085383013	blockFiles/set_27/main_PD/GB_runPatches1.xlsx
228	patches	True	n/a	371	0	n/a	n/a	0.0	0	left	n/a	n/a	n/a	1	0.0339217941836	blockFiles/set_27/main_PD/GB_runPatches1.xlsx
229	patches	True	n/a	371	0	n/a	n/a	0.0	1	left	n/a	n/a	n/a	0	-0.043883522115599996	blockFiles/set_27/main_PD/GB_runPatches1.xlsx
230	patches	True	n/a	371	0	n/a	n/a	0.0	1	left	n/a	n/a	n/a	0	-0.065593850594	blockFiles/set_27/main_PD/GB_runPatches1.xlsx
231	patches	True	n/a	371	0	n/a	n/a	1.0	0	right	n/a	n/a	n/a	0	-0.0521343730018	blockFiles/set_27/main_PD/GB_runPatches1.xlsx
232	patches	True	n/a	371	0	n/a	n/a	1.0	0	right	n/a	n/a	n/a	0	-0.014035884085999999	blockFiles/set_27/main_PD/GB_runPatches1.xlsx
233	patches	True	n/a	371	0	n/a	n/a	0.0	1	left	n/a	n/a	n/a	0	-0.0175793747231	blockFiles/set_27/main_PD/GB_runPatches1.xlsx
234	patches	True	n/a	371	0	n/a	n/a	1.0	1	right	n/a	n/a	n/a	1	0.0731039774604	blockFiles/set_27/main_PD/GB_runPatches1.xlsx
235	patches	True	n/a	371	0	n/a	n/a	1.0	1	right	n/a	n/a	n/a	1	0.022241371125	blockFiles/set_27/main_PD/GB_runPatches1.xlsx
236	patches	True	n/a	371	0	n/a	n/a	1.0	0	right	n/a	n/a	n/a	0	-0.015462927185	blockFiles/set_27/main_PD/GB_runPatches1.xlsx
237	patches	True	n/a	371	0	n/a	n/a	1.0	0	right	n/a	n/a	n/a	0	-0.0297544997185	blockFiles/set_27/main_PD/GB_runPatches1.xlsx
238	patches	True	n/a	371	0	n/a	n/a	0.0	1	left	n/a	n/a	n/a	0	-0.0709716138616	blockFiles/set_27/main_PD/GB_runPatches1.xlsx
239	patches	True	n/a	371	0	n/a	n/a	1.0	1	right	n/a	n/a	n/a	1	0.0560664825141	blockFiles/set_27/main_PD/GB_runPatches1.xlsx
240	patches	True	n/a	371	0	n/a	n/a	1.0	1	right	n/a	n/a	n/a	1	0.0362150305882	blockFiles/set_27/main_PD/GB_runPatches1.xlsx
241	patches	True	n/a	371	0	n/a	n/a	1.0	1	right	n/a	n/a	n/a	1	0.07583060778680001	blockFiles/set_27/main_PD/GB_runPatches1.xlsx
242	patches	True	n/a	371	0	n/a	n/a	0.0	1	left	n/a	n/a	n/a	0	-0.0769283519872	blockFiles/set_27/main_PD/GB_runPatches1.xlsx
243	patches	True	n/a	371	0	n/a	n/a	1.0	1	right	n/a	n/a	n/a	1	0.0304272918031	blockFiles/set_27/main_PD/GB_runPatches1.xlsx
244	patches	True	n/a	371	0	n/a	n/a	1.0	1	right	n/a	n/a	n/a	1	0.013544592745600001	blockFiles/set_27/main_PD/GB_runPatches1.xlsx
245	patches	True	n/a	371	0	n/a	n/a	1.0	1	right	n/a	n/a	n/a	1	0.0277066496201	blockFiles/set_27/main_PD/GB_runPatches1.xlsx
246	patches	True	n/a	371	0	n/a	n/a	1.0	1	right	n/a	n/a	n/a	1	0.040725038945699996	blockFiles/set_27/main_PD/GB_runPatches1.xlsx
247	patches	True	n/a	371	0	n/a	n/a	1.0	1	right	n/a	n/a	n/a	1	0.0317358185723	blockFiles/set_27/main_PD/GB_runPatches1.xlsx
248	patches	True	n/a	371	0	n/a	n/a	1.0	1	right	n/a	n/a	n/a	1	0.028394425157499997	blockFiles/set_27/main_PD/GB_runPatches1.xlsx
249	patches	True	n/a	371	0	n/a	n/a	0.0	1	left	n/a	n/a	n/a	0	-0.0675708691031	blockFiles/set_27/main_PD/GB_runPatches1.xlsx
250	patches	True	n/a	371	0	n/a	n/a	1.0	1	right	n/a	n/a	n/a	1	0.0767806351185	blockFiles/set_27/main_PD/GB_runPatches1.xlsx
251	patches	True	n/a	371	0	n/a	n/a	1.0	0	right	n/a	n/a	n/a	0	-0.0509679024108	blockFiles/set_27/main_PD/GB_runPatches1.xlsx
252	patches	True	n/a	371	0	n/a	n/a	1.0	1	right	n/a	n/a	n/a	1	0.022853954117700002	blockFiles/set_27/main_PD/GB_runPatches1.xlsx
253	patches	True	n/a	371	0	n/a	n/a	1.0	0	right	n/a	n/a	n/a	0	-0.012860314883299999	blockFiles/set_27/main_PD/GB_runPatches1.xlsx
254	patches	True	n/a	371	0	n/a	n/a	1.0	1	right	n/a	n/a	n/a	1	0.017984230816400004	blockFiles/set_27/main_PD/GB_runPatches1.xlsx
255	main_unc	True	0.0	371	0	0.0	0.0	0.0	0	left	1.0	1.0	1.0	1	0.006286692079159999	blockFiles/set_27/main_unc/leftBlue\GB_LB_2.xlsx
256	main_unc	True	0.0	371	0	0.0	0.0	0.0	1	left	1.0	1.0	0.0	0	-0.0420860529691	blockFiles/set_27/main_unc/leftBlue\GB_LB_2.xlsx
257	main_unc	True	0.0	371	0	0.0	0.0	1.0	1	right	2.0	0.0	0.0	1	0.047238030824800006	blockFiles/set_27/main_unc/leftBlue\GB_LB_2.xlsx
258	main_unc	True	0.0	371	0	0.0	0.0	0.0	0	left	2.0	0.0	0.0	1	0.0236430607922	blockFiles/set_27/main_unc/leftBlue\GB_LB_2.xlsx
259	main_unc	True	0.0	371	0	0.0	0.0	1.0	1	right	2.0	0.0	0.0	1	0.0305269585922	blockFiles/set_27/main_unc/leftBlue\GB_LB_2.xlsx
260	main_unc	True	0.0	371	0	0.0	0.0	0.0	1	left	1.0	0.0	0.0	0	-0.0747607416287	blockFiles/set_27/main_unc/leftBlue\GB_LB_2.xlsx
261	main_unc	True	0.0	371	0	0.0	0.0	0.0	1	left	2.0	0.0	1.0	0	-0.0200845758058	blockFiles/set_27/main_unc/leftBlue\GB_LB_2.xlsx
262	main_unc	True	0.0	371	0	0.0	0.0	1.0	1	right	1.0	1.0	1.0	1	0.0587795326114	blockFiles/set_27/main_unc/leftBlue\GB_LB_2.xlsx
263	main_unc	True	0.0	371	0	0.0	0.0	0.0	1	left	2.0	0.0	1.0	0	-0.0339173933119	blockFiles/set_27/main_unc/leftBlue\GB_LB_2.xlsx
264	main_unc	True	0.0	371	0	0.0	0.0	0.0	1	left	2.0	1.0	1.0	0	-0.0236202257499	blockFiles/set_27/main_unc/leftBlue\GB_LB_2.xlsx
265	main_unc	True	0.0	371	0	0.0	0.0	1.0	1	right	1.0	1.0	1.0	1	0.0254219276272	blockFiles/set_27/main_unc/leftBlue\GB_LB_2.xlsx
266	main_unc	True	0.0	371	0	0.0	0.0	1.0	1	right	1.0	1.0	1.0	1	0.064599394314	blockFiles/set_27/main_unc/leftBlue\GB_LB_2.xlsx
267	main_unc	True	0.0	371	0	0.0	0.0	0.0	0	left	2.0	1.0	0.0	1	0.042470735013499995	blockFiles/set_27/main_unc/leftBlue\GB_LB_2.xlsx
268	main_unc	True	0.0	371	0	0.0	0.0	1.0	1	right	2.0	1.0	0.0	1	0.0050674036890299996	blockFiles/set_27/main_unc/leftBlue\GB_LB_2.xlsx
269	main_unc	True	0.0	371	0	0.0	0.0	0.0	1	left	1.0	0.0	0.0	0	-0.045238512773099995	blockFiles/set_27/main_unc/leftBlue\GB_LB_2.xlsx
270	main_unc	True	0.0	371	0	0.0	0.0	0.0	1	left	1.0	0.0	0.0	0	-0.0291571858525	blockFiles/set_27/main_unc/leftBlue\GB_LB_2.xlsx
271	main_unc	True	0.0	371	0	0.0	0.0	0.0	1	left	2.0	1.0	1.0	0	-0.0066918849386300005	blockFiles/set_27/main_unc/leftBlue\GB_LB_2.xlsx
272	main_unc	True	0.0	371	0	0.0	0.0	0.0	1	left	1.0	0.0	0.0	0	-0.0567189249024	blockFiles/set_27/main_unc/leftBlue\GB_LB_2.xlsx
273	main_unc	True	0.0	371	0	0.0	0.0	0.0	1	left	1.0	0.0	0.0	0	-0.0358733371645	blockFiles/set_27/main_unc/leftBlue\GB_LB_2.xlsx
274	main_unc	True	0.0	371	0	0.0	0.0	1.0	1	right	2.0	0.0	0.0	1	0.0758132767677	blockFiles/set_27/main_unc/leftBlue\GB_LB_2.xlsx
275	main_unc	True	0.0	371	0	0.0	0.0	1.0	1	right	2.0	0.0	0.0	1	0.06297382367769999	blockFiles/set_27/main_unc/leftBlue\GB_LB_2.xlsx
276	main_unc	True	0.0	371	0	0.0	0.0	1.0	0	right	2.0	1.0	1.0	0	-0.015979080963899998	blockFiles/set_27/main_unc/leftBlue\GB_LB_2.xlsx
277	main_unc	True	0.0	371	0	0.0	0.0	1.0	1	right	2.0	0.0	0.0	1	0.0038377191685100005	blockFiles/set_27/main_unc/leftBlue\GB_LB_2.xlsx
278	main_unc	True	0.0	371	0	0.0	0.0	0.0	1	left	2.0	1.0	1.0	0	-0.0796081271768	blockFiles/set_27/main_unc/leftBlue\GB_LB_2.xlsx
279	main_unc	True	0.0	371	0	0.0	0.0	1.0	0	right	2.0	1.0	1.0	0	-0.0106306059286	blockFiles/set_27/main_unc/leftBlue\GB_LB_2.xlsx
280	main_unc	True	0.0	371	0	1.0	1.0	0.0	1	left	2.0	0.0	0.0	0	-0.0252457412146	blockFiles/set_27/main_unc/rightBlue\GB_RB_6.xlsx
281	main_unc	True	0.0	371	0	1.0	1.0	0.0	1	left	1.0	0.0	1.0	0	-0.0653467324562	blockFiles/set_27/main_unc/rightBlue\GB_RB_6.xlsx
282	main_unc	True	0.0	371	0	1.0	1.0	1.0	1	right	2.0	1.0	1.0	1	0.058433666918400004	blockFiles/set_27/main_unc/rightBlue\GB_RB_6.xlsx
283	main_unc	True	0.0	371	0	1.0	1.0	1.0	0	right	1.0	1.0	1.0	0	-0.0293559310026	blockFiles/set_27/main_unc/rightBlue\GB_RB_6.xlsx
284	main_unc	True	0.0	371	0	1.0	1.0	0.0	1	left	1.0	1.0	1.0	0	-0.0334303090349	blockFiles/set_27/main_unc/rightBlue\GB_RB_6.xlsx
285	main_unc	True	0.0	371	0	1.0	1.0	1.0	0	right	2.0	0.0	0.0	0	-0.00823623269796	blockFiles/set_27/main_unc/rightBlue\GB_RB_6.xlsx
286	main_unc	True	0.0	371	0	1.0	1.0	0.0	0	left	1.0	0.0	0.0	1	0.028776630386700003	blockFiles/set_27/main_unc/rightBlue\GB_RB_6.xlsx
287	main_unc	True	0.0	371	0	1.0	1.0	1.0	1	right	2.0	1.0	1.0	1	0.025764564909	blockFiles/set_27/main_unc/rightBlue\GB_RB_6.xlsx
288	main_unc	True	0.0	371	0	1.0	1.0	1.0	1	right	2.0	1.0	1.0	1	0.07914304951210001	blockFiles/set_27/main_unc/rightBlue\GB_RB_6.xlsx
289	main_unc	True	0.0	371	0	1.0	1.0	1.0	1	right	2.0	1.0	1.0	1	0.0313703124598	blockFiles/set_27/main_unc/rightBlue\GB_RB_6.xlsx
290	main_unc	True	0.0	371	0	1.0	1.0	0.0	0	left	2.0	1.0	1.0	1	0.031096037886999998	blockFiles/set_27/main_unc/rightBlue\GB_RB_6.xlsx
291	main_unc	True	0.0	371	0	1.0	1.0	1.0	1	right	2.0	1.0	1.0	1	0.022081546299200002	blockFiles/set_27/main_unc/rightBlue\GB_RB_6.xlsx
292	main_unc	True	0.0	371	0	1.0	1.0	0.0	0	left	2.0	1.0	1.0	1	0.0535417184606	blockFiles/set_27/main_unc/rightBlue\GB_RB_6.xlsx
293	main_unc	True	0.0	371	0	1.0	1.0	1.0	1	right	2.0	1.0	1.0	1	0.0395781254955	blockFiles/set_27/main_unc/rightBlue\GB_RB_6.xlsx
294	main_unc	True	0.0	371	0	1.0	1.0	0.0	1	left	1.0	0.0	1.0	0	-0.051722537055599996	blockFiles/set_27/main_unc/rightBlue\GB_RB_6.xlsx
295	main_unc	True	0.0	371	0	1.0	1.0	1.0	0	right	2.0	0.0	0.0	0	-0.00195788118988	blockFiles/set_27/main_unc/rightBlue\GB_RB_6.xlsx
296	main_unc	True	0.0	371	0	1.0	1.0	1.0	1	right	2.0	1.0	1.0	1	0.07421580331399999	blockFiles/set_27/main_unc/rightBlue\GB_RB_6.xlsx
297	main_unc	True	0.0	371	0	1.0	1.0	1.0	1	right	2.0	1.0	1.0	1	0.022898890189799997	blockFiles/set_27/main_unc/rightBlue\GB_RB_6.xlsx
298	main_unc	True	0.0	371	0	1.0	1.0	0.0	1	left	1.0	0.0	1.0	0	-0.0144300404005	blockFiles/set_27/main_unc/rightBlue\GB_RB_6.xlsx
299	main_unc	True	0.0	371	0	1.0	1.0	0.0	1	left	1.0	1.0	1.0	0	-0.0678212643228	blockFiles/set_27/main_unc/rightBlue\GB_RB_6.xlsx
300	main_unc	True	0.0	371	0	1.0	1.0	1.0	1	right	2.0	1.0	1.0	1	0.07654353586960001	blockFiles/set_27/main_unc/rightBlue\GB_RB_6.xlsx
301	main_unc	True	0.0	371	0	1.0	1.0	0.0	1	left	1.0	0.0	1.0	0	-0.0114392647333	blockFiles/set_27/main_unc/rightBlue\GB_RB_6.xlsx
302	main_unc	True	0.0	371	0	1.0	1.0	1.0	1	right	2.0	1.0	1.0	1	0.010917646381999999	blockFiles/set_27/main_unc/rightBlue\GB_RB_6.xlsx
303	main_unc	True	0.0	371	0	1.0	1.0	0.0	1	left	1.0	1.0	1.0	0	-0.030166019313	blockFiles/set_27/main_unc/rightBlue\GB_RB_6.xlsx
304	main_unc	True	0.0	371	0	1.0	1.0	1.0	0	right	1.0	1.0	1.0	0	-0.043669237177800004	blockFiles/set_27/main_unc/rightBlue\GB_RB_6.xlsx
305	main_unc	True	0.0	371	0	2.0	2.0	0.0	1	left	1.0	0.0	0.0	0	-0.00647322323173	blockFiles/set_27/main_unc/leftBlue\GB_LB_3.xlsx
306	main_unc	True	0.0	371	0	2.0	2.0	0.0	1	left	2.0	1.0	1.0	0	-0.061574998684199994	blockFiles/set_27/main_unc/leftBlue\GB_LB_3.xlsx
307	main_unc	True	0.0	371	0	2.0	2.0	0.0	1	left	2.0	1.0	1.0	0	-0.045436845142400005	blockFiles/set_27/main_unc/leftBlue\GB_LB_3.xlsx
308	main_unc	True	0.0	371	0	2.0	2.0	0.0	1	left	2.0	0.0	1.0	0	-0.006425360031430001	blockFiles/set_27/main_unc/leftBlue\GB_LB_3.xlsx
309	main_unc	True	0.0	371	0	2.0	2.0	0.0	1	left	2.0	1.0	1.0	0	-0.0440002535284	blockFiles/set_27/main_unc/leftBlue\GB_LB_3.xlsx
310	main_unc	True	0.0	371	0	2.0	2.0	0.0	1	left	2.0	1.0	1.0	0	-0.0157123623975	blockFiles/set_27/main_unc/leftBlue\GB_LB_3.xlsx
311	main_unc	True	0.0	371	0	2.0	2.0	1.0	1	right	1.0	1.0	1.0	1	0.07298922797669999	blockFiles/set_27/main_unc/leftBlue\GB_LB_3.xlsx
312	main_unc	True	0.0	371	0	2.0	2.0	0.0	1	left	2.0	1.0	1.0	0	-0.07241743970660001	blockFiles/set_27/main_unc/leftBlue\GB_LB_3.xlsx
313	main_unc	True	0.0	371	0	2.0	2.0	0.0	0	left	2.0	0.0	0.0	1	0.021696874704200002	blockFiles/set_27/main_unc/leftBlue\GB_LB_3.xlsx
314	main_unc	True	0.0	371	0	2.0	2.0	0.0	1	left	1.0	0.0	0.0	0	-0.020746057312900003	blockFiles/set_27/main_unc/leftBlue\GB_LB_3.xlsx
315	main_unc	True	0.0	371	0	2.0	2.0	1.0	1	right	1.0	1.0	1.0	1	0.052875639759	blockFiles/set_27/main_unc/leftBlue\GB_LB_3.xlsx
316	main_unc	True	0.0	371	0	2.0	2.0	0.0	1	left	2.0	1.0	1.0	0	-0.0643571910635	blockFiles/set_27/main_unc/leftBlue\GB_LB_3.xlsx
317	main_unc	True	0.0	371	0	2.0	2.0	0.0	1	left	2.0	1.0	1.0	0	-0.0465549590066	blockFiles/set_27/main_unc/leftBlue\GB_LB_3.xlsx
318	main_unc	True	0.0	371	0	2.0	2.0	1.0	1	right	1.0	1.0	1.0	1	0.024339290466200002	blockFiles/set_27/main_unc/leftBlue\GB_LB_3.xlsx
319	main_unc	True	0.0	371	0	2.0	2.0	0.0	1	left	2.0	1.0	1.0	0	-0.060958398375699996	blockFiles/set_27/main_unc/leftBlue\GB_LB_3.xlsx
320	main_unc	True	0.0	371	0	2.0	2.0	1.0	1	right	2.0	1.0	0.0	1	0.0532905234955	blockFiles/set_27/main_unc/leftBlue\GB_LB_3.xlsx
321	main_unc	True	0.0	371	0	2.0	2.0	1.0	1	right	1.0	0.0	1.0	1	0.0637625542283	blockFiles/set_27/main_unc/leftBlue\GB_LB_3.xlsx
322	main_unc	True	0.0	371	0	2.0	2.0	1.0	1	right	2.0	0.0	0.0	1	0.020314699281	blockFiles/set_27/main_unc/leftBlue\GB_LB_3.xlsx
323	main_unc	True	0.0	371	0	2.0	2.0	0.0	0	left	2.0	1.0	0.0	1	0.00693895634264	blockFiles/set_27/main_unc/leftBlue\GB_LB_3.xlsx
324	main_unc	True	0.0	371	0	2.0	2.0	1.0	1	right	1.0	1.0	1.0	1	0.0574208532646	blockFiles/set_27/main_unc/leftBlue\GB_LB_3.xlsx
325	main_unc	True	0.0	371	0	2.0	2.0	0.0	1	left	2.0	1.0	1.0	0	-0.0530974849127	blockFiles/set_27/main_unc/leftBlue\GB_LB_3.xlsx
326	main_unc	True	0.0	371	0	2.0	2.0	0.0	1	left	2.0	1.0	1.0	0	-0.0544740073197	blockFiles/set_27/main_unc/leftBlue\GB_LB_3.xlsx
327	main_unc	True	0.0	371	0	2.0	2.0	1.0	1	right	1.0	1.0	1.0	1	0.0694149021804	blockFiles/set_27/main_unc/leftBlue\GB_LB_3.xlsx
328	main_unc	True	0.0	371	0	2.0	2.0	0.0	1	left	2.0	1.0	1.0	0	-0.0513422301039	blockFiles/set_27/main_unc/leftBlue\GB_LB_3.xlsx
329	main_unc	True	0.0	371	0	2.0	2.0	0.0	0	left	2.0	0.0	0.0	1	0.00618098653853	blockFiles/set_27/main_unc/leftBlue\GB_LB_3.xlsx
330	main_unc	True	0.0	371	0	3.0	3.0	0.0	1	left	2.0	1.0	1.0	0	-0.0699083254859	blockFiles/set_27/main_unc/leftBlue\GB_LB_4.xlsx
331	main_unc	True	0.0	371	0	3.0	3.0	1.0	1	right	1.0	1.0	1.0	1	0.052250114381300006	blockFiles/set_27/main_unc/leftBlue\GB_LB_4.xlsx
332	main_unc	True	0.0	371	0	3.0	3.0	0.0	0	left	1.0	1.0	1.0	1	0.0284015540592	blockFiles/set_27/main_unc/leftBlue\GB_LB_4.xlsx
333	main_unc	True	0.0	371	0	3.0	3.0	1.0	1	right	1.0	1.0	1.0	1	0.0675770307332	blockFiles/set_27/main_unc/leftBlue\GB_LB_4.xlsx
334	main_unc	True	0.0	371	0	3.0	3.0	0.0	1	left	2.0	1.0	1.0	0	-0.07036229470739999	blockFiles/set_27/main_unc/leftBlue\GB_LB_4.xlsx
335	main_unc	True	0.0	371	0	3.0	3.0	1.0	1	right	1.0	0.0	1.0	1	0.036211031600800005	blockFiles/set_27/main_unc/leftBlue\GB_LB_4.xlsx
336	main_unc	True	0.0	371	0	3.0	3.0	0.0	1	left	2.0	1.0	1.0	0	-0.0340132874623	blockFiles/set_27/main_unc/leftBlue\GB_LB_4.xlsx
337	main_unc	True	0.0	371	0	3.0	3.0	1.0	1	right	1.0	1.0	1.0	1	0.0140386945009	blockFiles/set_27/main_unc/leftBlue\GB_LB_4.xlsx
338	main_unc	True	0.0	371	0	3.0	3.0	0.0	1	left	2.0	1.0	1.0	0	-0.021882460024200003	blockFiles/set_27/main_unc/leftBlue\GB_LB_4.xlsx
339	main_unc	True	0.0	371	0	3.0	3.0	0.0	1	left	2.0	0.0	1.0	0	-0.053592489939199996	blockFiles/set_27/main_unc/leftBlue\GB_LB_4.xlsx
340	main_unc	True	0.0	371	0	3.0	3.0	0.0	1	left	2.0	1.0	1.0	0	-0.0365843054093	blockFiles/set_27/main_unc/leftBlue\GB_LB_4.xlsx
341	main_unc	True	0.0	371	0	3.0	3.0	0.0	1	left	1.0	0.0	0.0	0	-0.0026672719419	blockFiles/set_27/main_unc/leftBlue\GB_LB_4.xlsx
342	main_unc	True	0.0	371	0	3.0	3.0	0.0	1	left	2.0	1.0	1.0	0	-0.0618143286556	blockFiles/set_27/main_unc/leftBlue\GB_LB_4.xlsx
343	main_unc	True	0.0	371	0	3.0	3.0	1.0	1	right	1.0	0.0	1.0	1	0.032405484821599995	blockFiles/set_27/main_unc/leftBlue\GB_LB_4.xlsx
344	main_unc	True	0.0	371	0	3.0	3.0	1.0	1	right	1.0	1.0	1.0	1	0.0747755466215	blockFiles/set_27/main_unc/leftBlue\GB_LB_4.xlsx
345	main_unc	True	0.0	371	0	3.0	3.0	1.0	0	right	1.0	0.0	0.0	0	-0.013801295980799998	blockFiles/set_27/main_unc/leftBlue\GB_LB_4.xlsx
346	main_unc	True	0.0	371	0	3.0	3.0	0.0	1	left	2.0	1.0	1.0	0	-0.0696713538095	blockFiles/set_27/main_unc/leftBlue\GB_LB_4.xlsx
347	main_unc	True	0.0	371	0	3.0	3.0	0.0	1	left	2.0	1.0	1.0	0	-0.0478638471104	blockFiles/set_27/main_unc/leftBlue\GB_LB_4.xlsx
348	main_unc	True	0.0	371	0	3.0	3.0	1.0	1	right	1.0	1.0	1.0	1	0.0329919142276	blockFiles/set_27/main_unc/leftBlue\GB_LB_4.xlsx
349	main_unc	True	0.0	371	0	3.0	3.0	0.0	0	left	2.0	1.0	0.0	1	0.0408641533181	blockFiles/set_27/main_unc/leftBlue\GB_LB_4.xlsx
350	main_unc	True	0.0	371	0	3.0	3.0	1.0	0	right	2.0	1.0	1.0	0	-0.032889304459099995	blockFiles/set_27/main_unc/leftBlue\GB_LB_4.xlsx
351	main_unc	True	0.0	371	0	3.0	3.0	0.0	0	left	2.0	1.0	0.0	1	0.0026007267274000003	blockFiles/set_27/main_unc/leftBlue\GB_LB_4.xlsx
352	main_unc	True	0.0	371	0	3.0	3.0	1.0	1	right	1.0	1.0	1.0	1	0.045995671171699996	blockFiles/set_27/main_unc/leftBlue\GB_LB_4.xlsx
353	main_unc	True	0.0	371	0	3.0	3.0	1.0	1	right	1.0	1.0	1.0	1	0.0234388159961	blockFiles/set_27/main_unc/leftBlue\GB_LB_4.xlsx
354	main_unc	True	0.0	371	0	3.0	3.0	0.0	1	left	2.0	1.0	1.0	0	-0.0354580818489	blockFiles/set_27/main_unc/leftBlue\GB_LB_4.xlsx
355	main_unc	True	0.0	371	0	4.0	4.0	1.0	1	right	2.0	1.0	1.0	1	0.052738039586699995	blockFiles/set_27/main_unc/rightBlue\GB_RB_2.xlsx
356	main_unc	True	0.0	371	0	4.0	4.0	0.0	1	left	1.0	0.0	1.0	0	-0.0744738802128	blockFiles/set_27/main_unc/rightBlue\GB_RB_2.xlsx
357	main_unc	True	0.0	371	0	4.0	4.0	0.0	0	left	2.0	1.0	1.0	1	0.00140406986699	blockFiles/set_27/main_unc/rightBlue\GB_RB_2.xlsx
358	main_unc	True	0.0	371	0	4.0	4.0	1.0	1	right	2.0	1.0	1.0	1	0.0274056348391	blockFiles/set_27/main_unc/rightBlue\GB_RB_2.xlsx
359	main_unc	True	0.0	371	0	4.0	4.0	0.0	1	left	1.0	1.0	1.0	0	-0.00608425140381	blockFiles/set_27/main_unc/rightBlue\GB_RB_2.xlsx
360	main_unc	True	0.0	371	0	4.0	4.0	1.0	1	right	2.0	1.0	1.0	1	0.043769593611399996	blockFiles/set_27/main_unc/rightBlue\GB_RB_2.xlsx
361	main_unc	True	0.0	371	0	4.0	4.0	0.0	1	left	1.0	0.0	1.0	0	-0.056164937038000004	blockFiles/set_27/main_unc/rightBlue\GB_RB_2.xlsx
362	main_unc	True	0.0	371	0	4.0	4.0	1.0	0	right	1.0	0.0	1.0	0	-0.06968527499589999	blockFiles/set_27/main_unc/rightBlue\GB_RB_2.xlsx
363	main_unc	True	0.0	371	0	4.0	4.0	1.0	0	right	2.0	0.0	0.0	0	-0.029372449796599996	blockFiles/set_27/main_unc/rightBlue\GB_RB_2.xlsx
364	main_unc	True	0.0	371	0	4.0	4.0	1.0	1	right	2.0	1.0	1.0	1	0.021348366867800003	blockFiles/set_27/main_unc/rightBlue\GB_RB_2.xlsx
365	main_unc	True	0.0	371	0	4.0	4.0	1.0	1	right	2.0	1.0	1.0	1	0.031099794339400005	blockFiles/set_27/main_unc/rightBlue\GB_RB_2.xlsx
366	main_unc	True	0.0	371	0	4.0	4.0	0.0	1	left	1.0	1.0	1.0	0	-0.057217580601599996	blockFiles/set_27/main_unc/rightBlue\GB_RB_2.xlsx
367	main_unc	True	0.0	371	0	4.0	4.0	0.0	1	left	1.0	1.0	1.0	0	-0.03588276373219999	blockFiles/set_27/main_unc/rightBlue\GB_RB_2.xlsx
368	main_unc	True	1.0	371	0	4.0	4.0	n/a	0	None	n/a	0.0	n/a	0	-0.0508292705193	blockFiles/set_27/main_unc/rightBlue\GB_RB_2.xlsx
369	main_unc	True	0.0	371	0	4.0	4.0	0.0	1	left	1.0	1.0	1.0	0	-0.00859435761347	blockFiles/set_27/main_unc/rightBlue\GB_RB_2.xlsx
370	main_unc	True	0.0	371	0	4.0	4.0	0.0	1	left	1.0	1.0	1.0	0	-0.041519661415400005	blockFiles/set_27/main_unc/rightBlue\GB_RB_2.xlsx
371	main_unc	True	1.0	371	0	4.0	4.0	n/a	0	None	n/a	0.0	n/a	1	0.0287868082896	blockFiles/set_27/main_unc/rightBlue\GB_RB_2.xlsx
372	main_unc	True	0.0	371	0	4.0	4.0	1.0	1	right	2.0	1.0	1.0	1	0.034480629377099996	blockFiles/set_27/main_unc/rightBlue\GB_RB_2.xlsx
373	main_unc	True	0.0	371	0	4.0	4.0	1.0	1	right	2.0	1.0	1.0	1	0.0618663783371	blockFiles/set_27/main_unc/rightBlue\GB_RB_2.xlsx
374	main_unc	True	0.0	371	0	4.0	4.0	0.0	1	left	2.0	0.0	0.0	0	-0.07433898273860001	blockFiles/set_27/main_unc/rightBlue\GB_RB_2.xlsx
375	main_unc	True	0.0	371	0	4.0	4.0	1.0	1	right	2.0	1.0	1.0	1	0.0166482668184	blockFiles/set_27/main_unc/rightBlue\GB_RB_2.xlsx
376	main_unc	True	0.0	371	0	4.0	4.0	0.0	0	left	1.0	1.0	0.0	1	0.010348590370299999	blockFiles/set_27/main_unc/rightBlue\GB_RB_2.xlsx
377	main_unc	True	0.0	371	0	4.0	4.0	0.0	0	left	2.0	1.0	1.0	1	0.036948272828	blockFiles/set_27/main_unc/rightBlue\GB_RB_2.xlsx
378	main_unc	True	0.0	371	0	4.0	4.0	0.0	1	left	1.0	1.0	1.0	0	-0.0363434611075	blockFiles/set_27/main_unc/rightBlue\GB_RB_2.xlsx
379	main_unc	True	0.0	371	0	4.0	4.0	1.0	1	right	2.0	0.0	1.0	1	0.04935944428669999	blockFiles/set_27/main_unc/rightBlue\GB_RB_2.xlsx
380	main_unc	True	0.0	371	0	4.0	4.0	0.0	1	left	1.0	1.0	1.0	0	-0.0508292705193	blockFiles/set_27/main_unc/rightBlue\GB_RB_2.xlsx
381	main_unc	True	0.0	371	0	4.0	4.0	0.0	0	left	2.0	1.0	1.0	1	0.0287868082896	blockFiles/set_27/main_unc/rightBlue\GB_RB_2.xlsx
382	main_unc	True	0.0	371	0	5.0	5.0	0.0	1	left	1.0	0.0	0.0	0	-0.011682187505099998	blockFiles/set_27/main_unc/leftBlue\GB_LB_5.xlsx
383	main_unc	True	0.0	371	0	5.0	5.0	1.0	1	right	1.0	1.0	1.0	1	0.060833262465900005	blockFiles/set_27/main_unc/leftBlue\GB_LB_5.xlsx
384	main_unc	True	0.0	371	0	5.0	5.0	1.0	1	right	1.0	1.0	1.0	1	0.0717992213555	blockFiles/set_27/main_unc/leftBlue\GB_LB_5.xlsx
385	main_unc	True	0.0	371	0	5.0	5.0	1.0	1	right	1.0	1.0	1.0	1	0.051175527405000004	blockFiles/set_27/main_unc/leftBlue\GB_LB_5.xlsx
386	main_unc	True	0.0	371	0	5.0	5.0	0.0	0	left	1.0	0.0	1.0	1	0.0152703959122	blockFiles/set_27/main_unc/leftBlue\GB_LB_5.xlsx
387	main_unc	True	0.0	371	0	5.0	5.0	1.0	1	right	1.0	1.0	1.0	1	0.07487814653660001	blockFiles/set_27/main_unc/leftBlue\GB_LB_5.xlsx
388	main_unc	True	1.0	371	0	5.0	5.0	n/a	0	None	n/a	0.0	n/a	0	-0.037780665531800005	blockFiles/set_27/main_unc/leftBlue\GB_LB_5.xlsx
389	main_unc	True	0.0	371	0	5.0	5.0	0.0	1	left	2.0	1.0	1.0	0	-0.012174716293799999	blockFiles/set_27/main_unc/leftBlue\GB_LB_5.xlsx
390	main_unc	True	0.0	371	0	5.0	5.0	0.0	1	left	1.0	0.0	0.0	0	-0.0684175542369	blockFiles/set_27/main_unc/leftBlue\GB_LB_5.xlsx
391	main_unc	True	0.0	371	0	5.0	5.0	0.0	0	left	2.0	1.0	0.0	1	0.006343573126939999	blockFiles/set_27/main_unc/leftBlue\GB_LB_5.xlsx
392	main_unc	True	0.0	371	0	5.0	5.0	1.0	1	right	2.0	0.0	0.0	1	0.0275855439156	blockFiles/set_27/main_unc/leftBlue\GB_LB_5.xlsx
393	main_unc	True	1.0	371	0	5.0	5.0	n/a	0	None	n/a	0.0	n/a	0	-0.0244818280265	blockFiles/set_27/main_unc/leftBlue\GB_LB_5.xlsx
394	main_unc	True	0.0	371	0	5.0	5.0	0.0	1	left	1.0	0.0	0.0	0	-0.0644478122704	blockFiles/set_27/main_unc/leftBlue\GB_LB_5.xlsx
395	main_unc	True	0.0	371	0	5.0	5.0	0.0	1	left	1.0	0.0	0.0	0	-0.041611079275599996	blockFiles/set_27/main_unc/leftBlue\GB_LB_5.xlsx
396	main_unc	True	0.0	371	0	5.0	5.0	0.0	1	left	2.0	1.0	1.0	0	-0.0174179064855	blockFiles/set_27/main_unc/leftBlue\GB_LB_5.xlsx
397	main_unc	True	0.0	371	0	5.0	5.0	1.0	1	right	1.0	1.0	1.0	1	0.0553562155552	blockFiles/set_27/main_unc/leftBlue\GB_LB_5.xlsx
398	main_unc	True	0.0	371	0	5.0	5.0	1.0	1	right	1.0	1.0	1.0	1	0.0667626954056	blockFiles/set_27/main_unc/leftBlue\GB_LB_5.xlsx
399	main_unc	True	0.0	371	0	5.0	5.0	1.0	1	right	1.0	0.0	1.0	1	0.0105459936336	blockFiles/set_27/main_unc/leftBlue\GB_LB_5.xlsx
400	main_unc	True	0.0	371	0	5.0	5.0	0.0	1	left	2.0	1.0	1.0	0	-0.0507442100905	blockFiles/set_27/main_unc/leftBlue\GB_LB_5.xlsx
401	main_unc	True	0.0	371	0	5.0	5.0	0.0	1	left	2.0	1.0	1.0	0	-0.013686892110899998	blockFiles/set_27/main_unc/leftBlue\GB_LB_5.xlsx
402	main_unc	True	0.0	371	0	5.0	5.0	1.0	1	right	2.0	0.0	0.0	1	0.0568180671148	blockFiles/set_27/main_unc/leftBlue\GB_LB_5.xlsx
403	main_unc	True	0.0	371	0	5.0	5.0	0.0	1	left	2.0	0.0	1.0	0	-0.051595140509299996	blockFiles/set_27/main_unc/leftBlue\GB_LB_5.xlsx
404	main_unc	True	0.0	371	0	5.0	5.0	0.0	1	left	2.0	1.0	1.0	0	-0.0197473224252	blockFiles/set_27/main_unc/leftBlue\GB_LB_5.xlsx
405	main_unc	True	0.0	371	0	5.0	5.0	0.0	1	left	2.0	0.0	1.0	0	-0.006490387506779999	blockFiles/set_27/main_unc/leftBlue\GB_LB_5.xlsx
406	main_unc	True	0.0	371	0	5.0	5.0	1.0	1	right	1.0	1.0	1.0	1	0.0375497397035	blockFiles/set_27/main_unc/leftBlue\GB_LB_5.xlsx
407	main_unc	True	0.0	371	0	5.0	5.0	0.0	1	left	2.0	1.0	1.0	0	-0.037780665531800005	blockFiles/set_27/main_unc/leftBlue\GB_LB_5.xlsx
408	main_unc	True	0.0	371	0	5.0	5.0	0.0	1	left	2.0	1.0	1.0	0	-0.0244818280265	blockFiles/set_27/main_unc/leftBlue\GB_LB_5.xlsx
409	main_unc	True	0.0	371	0	6.0	6.0	0.0	1	left	2.0	0.0	0.0	0	-0.009846396353100001	blockFiles/set_27/main_unc/rightBlue\GB_RB_5.xlsx
410	main_unc	True	1.0	371	0	6.0	6.0	n/a	0	None	n/a	0.0	n/a	0	-0.0432488925569	blockFiles/set_27/main_unc/rightBlue\GB_RB_5.xlsx
411	main_unc	True	0.0	371	0	6.0	6.0	1.0	1	right	1.0	0.0	0.0	1	0.0601085076667	blockFiles/set_27/main_unc/rightBlue\GB_RB_5.xlsx
412	main_unc	True	0.0	371	0	6.0	6.0	1.0	1	right	2.0	1.0	1.0	1	0.0382216436602	blockFiles/set_27/main_unc/rightBlue\GB_RB_5.xlsx
413	main_unc	True	0.0	371	0	6.0	6.0	1.0	1	right	2.0	1.0	1.0	1	0.0452116604149	blockFiles/set_27/main_unc/rightBlue\GB_RB_5.xlsx
414	main_unc	True	0.0	371	0	6.0	6.0	0.0	1	left	1.0	1.0	1.0	0	-0.036815484482800004	blockFiles/set_27/main_unc/rightBlue\GB_RB_5.xlsx
415	main_unc	True	0.0	371	0	6.0	6.0	1.0	1	right	2.0	1.0	1.0	1	0.045490978192499996	blockFiles/set_27/main_unc/rightBlue\GB_RB_5.xlsx
416	main_unc	True	0.0	371	0	6.0	6.0	1.0	1	right	2.0	1.0	1.0	1	0.0240111268125	blockFiles/set_27/main_unc/rightBlue\GB_RB_5.xlsx
417	main_unc	True	0.0	371	0	6.0	6.0	1.0	1	right	2.0	1.0	1.0	1	0.0304545621201	blockFiles/set_27/main_unc/rightBlue\GB_RB_5.xlsx
418	main_unc	True	0.0	371	0	6.0	6.0	1.0	0	right	2.0	0.0	0.0	0	-0.00941544657573	blockFiles/set_27/main_unc/rightBlue\GB_RB_5.xlsx
419	main_unc	True	0.0	371	0	6.0	6.0	1.0	1	right	2.0	1.0	1.0	1	0.0189820677415	blockFiles/set_27/main_unc/rightBlue\GB_RB_5.xlsx
420	main_unc	True	1.0	371	0	6.0	6.0	0.0	1	left	n/a	0.0	n/a	0	-0.05571841649709999	blockFiles/set_27/main_unc/rightBlue\GB_RB_5.xlsx
421	main_unc	True	0.0	371	0	6.0	6.0	0.0	1	left	1.0	0.0	1.0	0	-0.07061548156660001	blockFiles/set_27/main_unc/rightBlue\GB_RB_5.xlsx
422	main_unc	True	0.0	371	0	6.0	6.0	0.0	1	left	1.0	0.0	1.0	0	-0.0699402661994	blockFiles/set_27/main_unc/rightBlue\GB_RB_5.xlsx
423	main_unc	True	0.0	371	0	6.0	6.0	1.0	1	right	2.0	1.0	1.0	1	0.0689080510475	blockFiles/set_27/main_unc/rightBlue\GB_RB_5.xlsx
424	main_unc	True	0.0	371	0	6.0	6.0	1.0	0	right	2.0	1.0	0.0	0	-0.0023540073633200004	blockFiles/set_27/main_unc/rightBlue\GB_RB_5.xlsx
425	main_unc	True	0.0	371	0	6.0	6.0	0.0	1	left	1.0	1.0	1.0	0	-0.0572987531312	blockFiles/set_27/main_unc/rightBlue\GB_RB_5.xlsx
426	main_unc	True	0.0	371	0	6.0	6.0	0.0	1	left	1.0	0.0	1.0	0	-0.04607073554769999	blockFiles/set_27/main_unc/rightBlue\GB_RB_5.xlsx
427	main_unc	True	0.0	371	0	6.0	6.0	1.0	1	right	2.0	1.0	1.0	1	0.010428723338999999	blockFiles/set_27/main_unc/rightBlue\GB_RB_5.xlsx
428	main_unc	True	0.0	371	0	6.0	6.0	0.0	1	left	1.0	0.0	1.0	0	-0.0639441728406	blockFiles/set_27/main_unc/rightBlue\GB_RB_5.xlsx
429	main_unc	True	0.0	371	0	6.0	6.0	1.0	1	right	2.0	1.0	1.0	1	0.0158619102091	blockFiles/set_27/main_unc/rightBlue\GB_RB_5.xlsx
430	main_unc	True	0.0	371	0	6.0	6.0	0.0	1	left	1.0	1.0	1.0	0	-0.0591489916481	blockFiles/set_27/main_unc/rightBlue\GB_RB_5.xlsx
431	main_unc	True	0.0	371	0	6.0	6.0	0.0	1	left	1.0	1.0	1.0	0	-0.0356120110676	blockFiles/set_27/main_unc/rightBlue\GB_RB_5.xlsx
432	main_unc	True	0.0	371	0	6.0	6.0	0.0	0	left	2.0	0.0	1.0	1	0.00981407308951	blockFiles/set_27/main_unc/rightBlue\GB_RB_5.xlsx
433	main_unc	True	0.0	371	0	6.0	6.0	1.0	1	right	2.0	1.0	1.0	1	0.0499712627567	blockFiles/set_27/main_unc/rightBlue\GB_RB_5.xlsx
434	main_unc	True	0.0	371	0	6.0	6.0	0.0	1	left	1.0	1.0	1.0	0	-0.0432488925569	blockFiles/set_27/main_unc/rightBlue\GB_RB_5.xlsx
435	main_unc	True	0.0	371	0	6.0	6.0	0.0	1	left	1.0	1.0	1.0	0	-0.05571841649709999	blockFiles/set_27/main_unc/rightBlue\GB_RB_5.xlsx
436	main_unc	True	0.0	371	0	7.0	7.0	1.0	1	right	2.0	0.0	0.0	1	0.059571714643400005	blockFiles/set_27/main_unc/leftBlue\GB_LB_1.xlsx
437	main_unc	True	0.0	371	0	7.0	7.0	1.0	1	right	1.0	1.0	1.0	1	0.00502523247153	blockFiles/set_27/main_unc/leftBlue\GB_LB_1.xlsx
438	main_unc	True	0.0	371	0	7.0	7.0	0.0	1	left	2.0	1.0	1.0	0	-0.045376935638499996	blockFiles/set_27/main_unc/leftBlue\GB_LB_1.xlsx
439	main_unc	True	0.0	371	0	7.0	7.0	1.0	0	right	1.0	0.0	0.0	0	-0.033332840800299995	blockFiles/set_27/main_unc/leftBlue\GB_LB_1.xlsx
440	main_unc	True	0.0	371	0	7.0	7.0	0.0	1	left	1.0	0.0	0.0	0	-0.0687999947555	blockFiles/set_27/main_unc/leftBlue\GB_LB_1.xlsx
441	main_unc	True	0.0	371	0	7.0	7.0	1.0	1	right	2.0	1.0	0.0	1	0.0784870715439	blockFiles/set_27/main_unc/leftBlue\GB_LB_1.xlsx
442	main_unc	True	0.0	371	0	7.0	7.0	1.0	1	right	2.0	0.0	0.0	1	0.026986600365499998	blockFiles/set_27/main_unc/leftBlue\GB_LB_1.xlsx
443	main_unc	True	0.0	371	0	7.0	7.0	1.0	0	right	2.0	1.0	1.0	0	-0.00216618474573	blockFiles/set_27/main_unc/leftBlue\GB_LB_1.xlsx
444	main_unc	True	0.0	371	0	7.0	7.0	1.0	1	right	2.0	0.0	0.0	1	0.041092023421099994	blockFiles/set_27/main_unc/leftBlue\GB_LB_1.xlsx
445	main_unc	True	0.0	371	0	7.0	7.0	1.0	1	right	2.0	1.0	0.0	1	0.0176237505488	blockFiles/set_27/main_unc/leftBlue\GB_LB_1.xlsx
446	main_unc	True	0.0	371	0	7.0	7.0	1.0	1	right	2.0	0.0	0.0	1	0.0675142450817	blockFiles/set_27/main_unc/leftBlue\GB_LB_1.xlsx
447	main_unc	True	0.0	371	0	7.0	7.0	0.0	1	left	1.0	1.0	0.0	0	-0.0444656802341	blockFiles/set_27/main_unc/leftBlue\GB_LB_1.xlsx
448	main_unc	True	0.0	371	0	7.0	7.0	1.0	1	right	2.0	0.0	0.0	1	0.026671995781400004	blockFiles/set_27/main_unc/leftBlue\GB_LB_1.xlsx
449	main_unc	True	0.0	371	0	7.0	7.0	1.0	0	right	2.0	1.0	1.0	0	-0.0316167516448	blockFiles/set_27/main_unc/leftBlue\GB_LB_1.xlsx
450	main_unc	True	0.0	371	0	7.0	7.0	1.0	1	right	2.0	0.0	0.0	1	0.029059760849900005	blockFiles/set_27/main_unc/leftBlue\GB_LB_1.xlsx
451	main_unc	True	0.0	371	0	7.0	7.0	1.0	1	right	2.0	1.0	0.0	1	0.0060294243879599994	blockFiles/set_27/main_unc/leftBlue\GB_LB_1.xlsx
452	main_unc	True	0.0	371	0	7.0	7.0	1.0	1	right	2.0	0.0	0.0	1	0.07804259937260001	blockFiles/set_27/main_unc/leftBlue\GB_LB_1.xlsx
453	main_unc	True	0.0	371	0	7.0	7.0	0.0	1	left	1.0	0.0	0.0	0	-0.0203611551225	blockFiles/set_27/main_unc/leftBlue\GB_LB_1.xlsx
454	main_unc	True	0.0	371	0	7.0	7.0	1.0	1	right	2.0	0.0	0.0	1	0.0367830624804	blockFiles/set_27/main_unc/leftBlue\GB_LB_1.xlsx
455	main_unc	True	0.0	371	0	7.0	7.0	0.0	1	left	2.0	1.0	1.0	0	-0.0371956752241	blockFiles/set_27/main_unc/leftBlue\GB_LB_1.xlsx
456	main_unc	True	0.0	371	0	7.0	7.0	1.0	1	right	1.0	1.0	1.0	1	0.0307158838771	blockFiles/set_27/main_unc/leftBlue\GB_LB_1.xlsx
457	main_unc	True	0.0	371	0	7.0	7.0	1.0	1	right	1.0	1.0	1.0	1	0.0609559649974	blockFiles/set_27/main_unc/leftBlue\GB_LB_1.xlsx
458	main_unc	True	0.0	371	0	7.0	7.0	0.0	1	left	2.0	1.0	1.0	0	-0.00486611226574	blockFiles/set_27/main_unc/leftBlue\GB_LB_1.xlsx
459	main_unc	True	0.0	371	0	7.0	7.0	0.0	1	left	2.0	1.0	1.0	0	-0.0282982823998	blockFiles/set_27/main_unc/leftBlue\GB_LB_1.xlsx
460	main_unc	True	0.0	371	0	7.0	7.0	0.0	1	left	2.0	1.0	1.0	0	-0.0640988355502	blockFiles/set_27/main_unc/leftBlue\GB_LB_1.xlsx
461	main_unc	True	0.0	371	0	8.0	8.0	1.0	1	right	2.0	0.0	1.0	1	0.029929200112799998	blockFiles/set_27/main_unc/rightBlue\GB_RB_4.xlsx
462	main_unc	True	0.0	371	0	8.0	8.0	0.0	1	left	2.0	0.0	0.0	0	-0.0201448974013	blockFiles/set_27/main_unc/rightBlue\GB_RB_4.xlsx
463	main_unc	True	0.0	371	0	8.0	8.0	1.0	1	right	1.0	0.0	0.0	1	0.0622784817219	blockFiles/set_27/main_unc/rightBlue\GB_RB_4.xlsx
464	main_unc	True	0.0	371	0	8.0	8.0	0.0	1	left	1.0	1.0	1.0	0	-0.0437876817584	blockFiles/set_27/main_unc/rightBlue\GB_RB_4.xlsx
465	main_unc	True	0.0	371	0	8.0	8.0	1.0	1	right	2.0	1.0	1.0	1	0.0418575838022	blockFiles/set_27/main_unc/rightBlue\GB_RB_4.xlsx
466	main_unc	True	0.0	371	0	8.0	8.0	0.0	1	left	2.0	0.0	0.0	0	-0.010613538269	blockFiles/set_27/main_unc/rightBlue\GB_RB_4.xlsx
467	main_unc	True	0.0	371	0	8.0	8.0	0.0	1	left	2.0	0.0	0.0	0	-0.043244987335099995	blockFiles/set_27/main_unc/rightBlue\GB_RB_4.xlsx
468	main_unc	True	0.0	371	0	8.0	8.0	0.0	1	left	2.0	0.0	0.0	0	-0.05399919996040001	blockFiles/set_27/main_unc/rightBlue\GB_RB_4.xlsx
469	main_unc	True	0.0	371	0	8.0	8.0	1.0	1	right	2.0	0.0	1.0	1	0.0169250741415	blockFiles/set_27/main_unc/rightBlue\GB_RB_4.xlsx
470	main_unc	True	0.0	371	0	8.0	8.0	1.0	1	right	2.0	1.0	1.0	1	0.044648813121	blockFiles/set_27/main_unc/rightBlue\GB_RB_4.xlsx
471	main_unc	True	0.0	371	0	8.0	8.0	0.0	1	left	1.0	1.0	1.0	0	-0.0473097646236	blockFiles/set_27/main_unc/rightBlue\GB_RB_4.xlsx
472	main_unc	True	0.0	371	0	8.0	8.0	1.0	1	right	2.0	1.0	1.0	1	0.0157089154236	blockFiles/set_27/main_unc/rightBlue\GB_RB_4.xlsx
473	main_unc	True	0.0	371	0	8.0	8.0	0.0	1	left	1.0	0.0	1.0	0	-0.0750024462864	blockFiles/set_27/main_unc/rightBlue\GB_RB_4.xlsx
474	main_unc	True	0.0	371	0	8.0	8.0	0.0	1	left	1.0	1.0	1.0	0	-0.013274355940499999	blockFiles/set_27/main_unc/rightBlue\GB_RB_4.xlsx
475	main_unc	True	0.0	371	0	8.0	8.0	0.0	1	left	1.0	1.0	1.0	0	-0.017109750099500002	blockFiles/set_27/main_unc/rightBlue\GB_RB_4.xlsx
476	main_unc	True	0.0	371	0	8.0	8.0	0.0	1	left	1.0	0.0	1.0	0	-0.07598005123439999	blockFiles/set_27/main_unc/rightBlue\GB_RB_4.xlsx
477	main_unc	True	0.0	371	0	8.0	8.0	1.0	1	right	1.0	0.0	0.0	1	0.036221022289199996	blockFiles/set_27/main_unc/rightBlue\GB_RB_4.xlsx
478	main_unc	True	0.0	371	0	8.0	8.0	0.0	1	left	1.0	1.0	1.0	0	-0.010646447707	blockFiles/set_27/main_unc/rightBlue\GB_RB_4.xlsx
479	main_unc	True	0.0	371	0	8.0	8.0	1.0	1	right	2.0	1.0	1.0	1	0.0179867796972	blockFiles/set_27/main_unc/rightBlue\GB_RB_4.xlsx
480	main_unc	True	0.0	371	0	8.0	8.0	0.0	1	left	1.0	1.0	1.0	0	-0.050827229823900005	blockFiles/set_27/main_unc/rightBlue\GB_RB_4.xlsx
481	main_unc	True	0.0	371	0	8.0	8.0	1.0	1	right	2.0	1.0	1.0	1	0.0696083976887	blockFiles/set_27/main_unc/rightBlue\GB_RB_4.xlsx
482	main_unc	True	0.0	371	0	8.0	8.0	0.0	1	left	2.0	0.0	0.0	0	-0.0362187084369	blockFiles/set_27/main_unc/rightBlue\GB_RB_4.xlsx
483	main_unc	True	0.0	371	0	8.0	8.0	1.0	1	right	2.0	1.0	1.0	1	0.011658293027399999	blockFiles/set_27/main_unc/rightBlue\GB_RB_4.xlsx
484	main_unc	True	0.0	371	0	8.0	8.0	1.0	1	right	2.0	0.0	1.0	1	0.04099659381430001	blockFiles/set_27/main_unc/rightBlue\GB_RB_4.xlsx
485	main_unc	True	0.0	371	0	8.0	8.0	1.0	1	right	2.0	0.0	1.0	1	0.027370144706200004	blockFiles/set_27/main_unc/rightBlue\GB_RB_4.xlsx
486	main_unc	True	0.0	371	0	9.0	9.0	1.0	1	right	1.0	0.0	0.0	1	0.0248300330527	blockFiles/set_27/main_unc/rightBlue\GB_RB_3.xlsx
487	main_unc	True	0.0	371	0	9.0	9.0	0.0	1	left	1.0	1.0	1.0	0	-0.0640370688401	blockFiles/set_27/main_unc/rightBlue\GB_RB_3.xlsx
488	main_unc	True	0.0	371	0	9.0	9.0	0.0	1	left	1.0	1.0	1.0	0	-0.0609061273374	blockFiles/set_27/main_unc/rightBlue\GB_RB_3.xlsx
489	main_unc	True	0.0	371	0	9.0	9.0	1.0	1	right	2.0	1.0	1.0	1	0.0326618670113	blockFiles/set_27/main_unc/rightBlue\GB_RB_3.xlsx
490	main_unc	True	0.0	371	0	9.0	9.0	0.0	1	left	1.0	1.0	1.0	0	-0.036834214367	blockFiles/set_27/main_unc/rightBlue\GB_RB_3.xlsx
491	main_unc	True	0.0	371	0	9.0	9.0	0.0	1	left	1.0	1.0	1.0	0	-0.054234340768300006	blockFiles/set_27/main_unc/rightBlue\GB_RB_3.xlsx
492	main_unc	True	0.0	371	0	9.0	9.0	1.0	1	right	2.0	0.0	1.0	1	0.0360390739329	blockFiles/set_27/main_unc/rightBlue\GB_RB_3.xlsx
493	main_unc	True	0.0	371	0	9.0	9.0	1.0	1	right	2.0	1.0	1.0	1	0.0706188204139	blockFiles/set_27/main_unc/rightBlue\GB_RB_3.xlsx
494	main_unc	True	0.0	371	0	9.0	9.0	0.0	1	left	1.0	1.0	1.0	0	-0.0311032417417	blockFiles/set_27/main_unc/rightBlue\GB_RB_3.xlsx
495	main_unc	True	0.0	371	0	9.0	9.0	1.0	1	right	2.0	1.0	1.0	1	0.00407963415608	blockFiles/set_27/main_unc/rightBlue\GB_RB_3.xlsx
496	main_unc	True	0.0	371	0	9.0	9.0	1.0	1	right	2.0	1.0	1.0	1	0.0249028548785	blockFiles/set_27/main_unc/rightBlue\GB_RB_3.xlsx
497	main_unc	True	0.0	371	0	9.0	9.0	1.0	1	right	1.0	0.0	0.0	1	0.026222778596	blockFiles/set_27/main_unc/rightBlue\GB_RB_3.xlsx
498	main_unc	True	0.0	371	0	9.0	9.0	1.0	1	right	2.0	1.0	1.0	1	0.0628818662465	blockFiles/set_27/main_unc/rightBlue\GB_RB_3.xlsx
499	main_unc	True	0.0	371	0	9.0	9.0	1.0	1	right	2.0	1.0	1.0	1	0.0369814293273	blockFiles/set_27/main_unc/rightBlue\GB_RB_3.xlsx
500	main_unc	True	0.0	371	0	9.0	9.0	0.0	1	left	1.0	1.0	1.0	0	-0.06430049799380001	blockFiles/set_27/main_unc/rightBlue\GB_RB_3.xlsx
501	main_unc	True	0.0	371	0	9.0	9.0	0.0	1	left	1.0	0.0	1.0	0	-0.07695129737260001	blockFiles/set_27/main_unc/rightBlue\GB_RB_3.xlsx
502	main_unc	True	0.0	371	0	9.0	9.0	1.0	1	right	2.0	1.0	1.0	1	0.047094391007000004	blockFiles/set_27/main_unc/rightBlue\GB_RB_3.xlsx
503	main_unc	True	0.0	371	0	9.0	9.0	0.0	1	left	1.0	0.0	1.0	0	-0.056998302005199994	blockFiles/set_27/main_unc/rightBlue\GB_RB_3.xlsx
504	main_unc	True	0.0	371	0	9.0	9.0	0.0	1	left	1.0	1.0	1.0	0	-0.00789874568582	blockFiles/set_27/main_unc/rightBlue\GB_RB_3.xlsx
505	main_unc	True	0.0	371	0	9.0	9.0	0.0	0	left	1.0	0.0	0.0	1	0.021049683354799998	blockFiles/set_27/main_unc/rightBlue\GB_RB_3.xlsx
506	main_unc	True	0.0	371	0	9.0	9.0	0.0	1	left	2.0	0.0	0.0	0	-0.00390942897648	blockFiles/set_27/main_unc/rightBlue\GB_RB_3.xlsx
507	main_unc	True	0.0	371	0	9.0	9.0	1.0	1	right	2.0	1.0	1.0	1	0.068689396549	blockFiles/set_27/main_unc/rightBlue\GB_RB_3.xlsx
508	main_unc	True	0.0	371	0	9.0	9.0	1.0	1	right	2.0	0.0	1.0	1	0.0702322651632	blockFiles/set_27/main_unc/rightBlue\GB_RB_3.xlsx
509	main_unc	True	0.0	371	0	9.0	9.0	0.0	1	left	1.0	1.0	1.0	0	-0.0679121081904	blockFiles/set_27/main_unc/rightBlue\GB_RB_3.xlsx
510	main_unc	True	0.0	371	0	9.0	9.0	1.0	0	right	1.0	0.0	1.0	0	-0.015479873120799998	blockFiles/set_27/main_unc/rightBlue\GB_RB_3.xlsx
511	main_unc	True	0.0	371	0	10.0	10.0	1.0	1	right	1.0	1.0	1.0	1	0.0122411153093	blockFiles/set_27/main_unc/leftBlue\GB_LB_6.xlsx
512	main_unc	True	0.0	371	0	10.0	10.0	0.0	1	left	2.0	1.0	1.0	0	-0.0696609449387	blockFiles/set_27/main_unc/leftBlue\GB_LB_6.xlsx
513	main_unc	True	0.0	371	0	10.0	10.0	1.0	0	right	2.0	1.0	1.0	0	-0.039511570204	blockFiles/set_27/main_unc/leftBlue\GB_LB_6.xlsx
514	main_unc	True	0.0	371	0	10.0	10.0	0.0	0	left	1.0	1.0	1.0	1	0.04674851220099999	blockFiles/set_27/main_unc/leftBlue\GB_LB_6.xlsx
515	main_unc	True	0.0	371	0	10.0	10.0	1.0	0	right	2.0	0.0	1.0	0	-0.0216356033646	blockFiles/set_27/main_unc/leftBlue\GB_LB_6.xlsx
516	main_unc	True	0.0	371	0	10.0	10.0	1.0	0	right	1.0	0.0	0.0	0	-0.005533212181180001	blockFiles/set_27/main_unc/leftBlue\GB_LB_6.xlsx
517	main_unc	True	0.0	371	0	10.0	10.0	0.0	1	left	2.0	1.0	1.0	0	-0.0784771244973	blockFiles/set_27/main_unc/leftBlue\GB_LB_6.xlsx
518	main_unc	True	0.0	371	0	10.0	10.0	1.0	1	right	1.0	0.0	1.0	1	0.00951996108517	blockFiles/set_27/main_unc/leftBlue\GB_LB_6.xlsx
519	main_unc	True	0.0	371	0	10.0	10.0	0.0	1	left	2.0	1.0	1.0	0	-0.0782902877592	blockFiles/set_27/main_unc/leftBlue\GB_LB_6.xlsx
520	main_unc	True	0.0	371	0	10.0	10.0	1.0	1	right	1.0	1.0	1.0	1	0.0174295478128	blockFiles/set_27/main_unc/leftBlue\GB_LB_6.xlsx
521	main_unc	True	0.0	371	0	10.0	10.0	0.0	1	left	2.0	0.0	1.0	0	-0.0776811012253	blockFiles/set_27/main_unc/leftBlue\GB_LB_6.xlsx
522	main_unc	True	0.0	371	0	10.0	10.0	0.0	1	left	2.0	1.0	1.0	0	-0.046987074259699994	blockFiles/set_27/main_unc/leftBlue\GB_LB_6.xlsx
523	main_unc	True	0.0	371	0	10.0	10.0	0.0	1	left	2.0	1.0	1.0	0	-0.028539878223099998	blockFiles/set_27/main_unc/leftBlue\GB_LB_6.xlsx
524	main_unc	True	0.0	371	0	10.0	10.0	0.0	0	left	1.0	1.0	1.0	1	0.0123006004281	blockFiles/set_27/main_unc/leftBlue\GB_LB_6.xlsx
525	main_unc	True	0.0	371	0	10.0	10.0	0.0	1	left	2.0	1.0	1.0	0	-0.0371536959335	blockFiles/set_27/main_unc/leftBlue\GB_LB_6.xlsx
526	main_unc	True	0.0	371	0	10.0	10.0	1.0	1	right	1.0	0.0	1.0	1	0.0457234001346	blockFiles/set_27/main_unc/leftBlue\GB_LB_6.xlsx
527	main_unc	True	0.0	371	0	10.0	10.0	0.0	1	left	2.0	0.0	1.0	0	-0.07407511929050001	blockFiles/set_27/main_unc/leftBlue\GB_LB_6.xlsx
528	main_unc	True	0.0	371	0	10.0	10.0	1.0	1	right	2.0	0.0	0.0	1	0.0499237513356	blockFiles/set_27/main_unc/leftBlue\GB_LB_6.xlsx
529	main_unc	True	0.0	371	0	10.0	10.0	1.0	0	right	1.0	0.0	0.0	0	-0.0109768633544	blockFiles/set_27/main_unc/leftBlue\GB_LB_6.xlsx
530	main_unc	True	0.0	371	0	10.0	10.0	1.0	1	right	1.0	1.0	1.0	1	0.0297213084623	blockFiles/set_27/main_unc/leftBlue\GB_LB_6.xlsx
531	main_unc	True	0.0	371	0	10.0	10.0	1.0	1	right	2.0	0.0	0.0	1	0.0695143197104	blockFiles/set_27/main_unc/leftBlue\GB_LB_6.xlsx
532	main_unc	True	0.0	371	0	10.0	10.0	1.0	1	right	1.0	1.0	1.0	1	0.0400833211839	blockFiles/set_27/main_unc/leftBlue\GB_LB_6.xlsx
533	main_unc	True	0.0	371	0	10.0	10.0	1.0	1	right	1.0	1.0	1.0	1	0.044869846813400005	blockFiles/set_27/main_unc/leftBlue\GB_LB_6.xlsx
534	main_unc	True	0.0	371	0	10.0	10.0	0.0	1	left	2.0	1.0	1.0	0	-0.06679814795030001	blockFiles/set_27/main_unc/leftBlue\GB_LB_6.xlsx
535	main_unc	True	0.0	371	0	10.0	10.0	1.0	1	right	1.0	1.0	1.0	1	0.0110818735696	blockFiles/set_27/main_unc/leftBlue\GB_LB_6.xlsx
536	main_unc	True	0.0	371	0	11.0	11.0	0.0	1	left	1.0	1.0	1.0	0	-0.0216650085896	blockFiles/set_27/main_unc/rightBlue\GB_RB_1.xlsx
537	main_unc	True	0.0	371	0	11.0	11.0	1.0	1	right	2.0	1.0	1.0	1	0.055803170520800006	blockFiles/set_27/main_unc/rightBlue\GB_RB_1.xlsx
538	main_unc	True	0.0	371	0	11.0	11.0	0.0	0	left	2.0	1.0	1.0	1	0.014778585918199999	blockFiles/set_27/main_unc/rightBlue\GB_RB_1.xlsx
539	main_unc	True	0.0	371	0	11.0	11.0	0.0	1	left	1.0	1.0	1.0	0	-0.0451320451498	blockFiles/set_27/main_unc/rightBlue\GB_RB_1.xlsx
540	main_unc	True	0.0	371	0	11.0	11.0	0.0	1	left	1.0	1.0	1.0	0	-0.05975003713740001	blockFiles/set_27/main_unc/rightBlue\GB_RB_1.xlsx
541	main_unc	True	0.0	371	0	11.0	11.0	1.0	1	right	2.0	1.0	1.0	1	0.0161031410843	blockFiles/set_27/main_unc/rightBlue\GB_RB_1.xlsx
542	main_unc	True	0.0	371	0	11.0	11.0	0.0	1	left	1.0	1.0	1.0	0	-0.0553487474471	blockFiles/set_27/main_unc/rightBlue\GB_RB_1.xlsx
543	main_unc	True	0.0	371	0	11.0	11.0	1.0	1	right	2.0	0.0	1.0	1	0.0189792856015	blockFiles/set_27/main_unc/rightBlue\GB_RB_1.xlsx
544	main_unc	True	0.0	371	0	11.0	11.0	0.0	0	left	2.0	1.0	1.0	1	0.021391617320500003	blockFiles/set_27/main_unc/rightBlue\GB_RB_1.xlsx
545	main_unc	True	0.0	371	0	11.0	11.0	0.0	1	left	1.0	1.0	1.0	0	-0.0587674486823	blockFiles/set_27/main_unc/rightBlue\GB_RB_1.xlsx
546	main_unc	True	0.0	371	0	11.0	11.0	0.0	1	left	1.0	0.0	1.0	0	-0.0269249877147	blockFiles/set_27/main_unc/rightBlue\GB_RB_1.xlsx
547	main_unc	True	0.0	371	0	11.0	11.0	1.0	0	right	2.0	0.0	0.0	0	-0.00597193140537	blockFiles/set_27/main_unc/rightBlue\GB_RB_1.xlsx
548	main_unc	True	0.0	371	0	11.0	11.0	1.0	1	right	2.0	1.0	1.0	1	0.050201989170199995	blockFiles/set_27/main_unc/rightBlue\GB_RB_1.xlsx
549	main_unc	True	0.0	371	0	11.0	11.0	1.0	0	right	1.0	1.0	1.0	0	-0.045400116685800004	blockFiles/set_27/main_unc/rightBlue\GB_RB_1.xlsx
550	main_unc	True	0.0	371	0	11.0	11.0	1.0	1	right	2.0	1.0	1.0	1	0.0763459046744	blockFiles/set_27/main_unc/rightBlue\GB_RB_1.xlsx
551	main_unc	True	0.0	371	0	11.0	11.0	1.0	1	right	2.0	0.0	1.0	1	0.00843151742592	blockFiles/set_27/main_unc/rightBlue\GB_RB_1.xlsx
552	main_unc	True	0.0	371	0	11.0	11.0	0.0	0	left	2.0	1.0	1.0	1	0.0135607331432	blockFiles/set_27/main_unc/rightBlue\GB_RB_1.xlsx
553	main_unc	True	0.0	371	0	11.0	11.0	1.0	1	right	2.0	1.0	1.0	1	0.0552983679622	blockFiles/set_27/main_unc/rightBlue\GB_RB_1.xlsx
554	main_unc	True	0.0	371	0	11.0	11.0	1.0	1	right	2.0	1.0	1.0	1	0.0739343908615	blockFiles/set_27/main_unc/rightBlue\GB_RB_1.xlsx
555	main_unc	True	0.0	371	0	11.0	11.0	0.0	1	left	1.0	1.0	1.0	0	-0.0711806533858	blockFiles/set_27/main_unc/rightBlue\GB_RB_1.xlsx
556	main_unc	True	0.0	371	0	11.0	11.0	1.0	1	right	2.0	1.0	1.0	1	0.0553618712164	blockFiles/set_27/main_unc/rightBlue\GB_RB_1.xlsx
557	main_unc	True	0.0	371	0	11.0	11.0	1.0	1	right	2.0	1.0	1.0	1	0.0029956634342699997	blockFiles/set_27/main_unc/rightBlue\GB_RB_1.xlsx
558	main_unc	True	0.0	371	0	11.0	11.0	0.0	1	left	1.0	0.0	1.0	0	-0.053708994779699995	blockFiles/set_27/main_unc/rightBlue\GB_RB_1.xlsx
559	main_unc	True	0.0	371	0	11.0	11.0	0.0	1	left	1.0	0.0	1.0	0	-0.019386028703299998	blockFiles/set_27/main_unc/rightBlue\GB_RB_1.xlsx
560	main_unc	True	0.0	371	0	11.0	11.0	1.0	1	right	2.0	1.0	1.0	1	0.047931488938600005	blockFiles/set_27/main_unc/rightBlue\GB_RB_1.xlsx
