	trial_type	complete	missIndex	participant	id	blockNumber	b_t	d_t	decision1.corr	decision1.keys	a_t	r_t	decision2.corr	s_t	u_t	block_file
0	main_safe	True	0.0	736	0	0.0	0.0	1.0	1	right	2.0	0.0	0.0	1	0.08	blockFiles/set_38/main_safe/leftBlue\GB_LB_3.xlsx
1	main_safe	True	0.0	736	0	0.0	0.0	1.0	1	right	2.0	1.0	0.0	1	0.08	blockFiles/set_38/main_safe/leftBlue\GB_LB_3.xlsx
2	main_safe	True	0.0	736	0	0.0	0.0	0.0	1	left	1.0	0.0	0.0	0	-0.08	blockFiles/set_38/main_safe/leftBlue\GB_LB_3.xlsx
3	main_safe	True	0.0	736	0	0.0	0.0	1.0	1	right	1.0	1.0	1.0	1	0.08	blockFiles/set_38/main_safe/leftBlue\GB_LB_3.xlsx
4	main_safe	True	0.0	736	0	0.0	0.0	1.0	1	right	1.0	1.0	1.0	1	0.08	blockFiles/set_38/main_safe/leftBlue\GB_LB_3.xlsx
5	main_safe	True	0.0	736	0	0.0	0.0	0.0	1	left	2.0	1.0	1.0	0	-0.08	blockFiles/set_38/main_safe/leftBlue\GB_LB_3.xlsx
6	main_safe	True	0.0	736	0	0.0	0.0	0.0	1	left	2.0	1.0	1.0	0	-0.08	blockFiles/set_38/main_safe/leftBlue\GB_LB_3.xlsx
7	main_safe	True	0.0	736	0	0.0	0.0	1.0	1	right	1.0	0.0	1.0	1	0.08	blockFiles/set_38/main_safe/leftBlue\GB_LB_3.xlsx
8	main_safe	True	0.0	736	0	0.0	0.0	0.0	1	left	2.0	1.0	1.0	0	-0.08	blockFiles/set_38/main_safe/leftBlue\GB_LB_3.xlsx
9	main_safe	True	0.0	736	0	0.0	0.0	0.0	1	left	2.0	1.0	1.0	0	-0.08	blockFiles/set_38/main_safe/leftBlue\GB_LB_3.xlsx
10	main_safe	True	0.0	736	0	0.0	0.0	0.0	1	left	2.0	0.0	1.0	0	-0.08	blockFiles/set_38/main_safe/leftBlue\GB_LB_3.xlsx
11	main_safe	True	0.0	736	0	0.0	0.0	1.0	1	right	1.0	1.0	1.0	1	0.08	blockFiles/set_38/main_safe/leftBlue\GB_LB_3.xlsx
12	main_safe	True	0.0	736	0	0.0	0.0	0.0	1	left	2.0	1.0	1.0	0	-0.08	blockFiles/set_38/main_safe/leftBlue\GB_LB_3.xlsx
13	main_safe	True	0.0	736	0	0.0	0.0	1.0	1	right	1.0	0.0	1.0	1	0.08	blockFiles/set_38/main_safe/leftBlue\GB_LB_3.xlsx
14	main_safe	True	0.0	736	0	0.0	0.0	0.0	1	left	2.0	1.0	1.0	0	-0.08	blockFiles/set_38/main_safe/leftBlue\GB_LB_3.xlsx
15	main_safe	True	0.0	736	0	0.0	0.0	0.0	1	left	2.0	1.0	1.0	0	-0.08	blockFiles/set_38/main_safe/leftBlue\GB_LB_3.xlsx
16	main_safe	True	0.0	736	0	0.0	0.0	0.0	1	left	2.0	1.0	1.0	0	-0.08	blockFiles/set_38/main_safe/leftBlue\GB_LB_3.xlsx
17	main_safe	True	0.0	736	0	0.0	0.0	0.0	1	left	2.0	1.0	1.0	0	-0.08	blockFiles/set_38/main_safe/leftBlue\GB_LB_3.xlsx
18	main_safe	True	0.0	736	0	0.0	0.0	1.0	1	right	1.0	1.0	1.0	1	0.08	blockFiles/set_38/main_safe/leftBlue\GB_LB_3.xlsx
19	main_safe	True	0.0	736	0	0.0	0.0	0.0	1	left	2.0	1.0	1.0	0	-0.08	blockFiles/set_38/main_safe/leftBlue\GB_LB_3.xlsx
20	main_safe	True	0.0	736	0	0.0	0.0	1.0	1	right	1.0	1.0	1.0	1	0.08	blockFiles/set_38/main_safe/leftBlue\GB_LB_3.xlsx
21	main_safe	True	0.0	736	0	0.0	0.0	0.0	1	left	2.0	1.0	1.0	0	-0.08	blockFiles/set_38/main_safe/leftBlue\GB_LB_3.xlsx
22	main_safe	True	0.0	736	0	0.0	0.0	1.0	1	right	1.0	1.0	1.0	1	0.08	blockFiles/set_38/main_safe/leftBlue\GB_LB_3.xlsx
23	main_safe	True	0.0	736	0	0.0	0.0	1.0	1	right	1.0	0.0	1.0	1	0.08	blockFiles/set_38/main_safe/leftBlue\GB_LB_3.xlsx
24	main_safe	True	0.0	736	0	0.0	0.0	1.0	1	right	1.0	1.0	1.0	1	0.08	blockFiles/set_38/main_safe/leftBlue\GB_LB_3.xlsx
25	main_safe	True	1.0	736	0	1.0	1.0	1.0	1	right	n/a	0.0	n/a	1	0.08	blockFiles/set_38/main_safe/rightBlue\GB_RB_2.xlsx
26	main_safe	True	0.0	736	0	1.0	1.0	0.0	1	left	1.0	1.0	1.0	0	-0.08	blockFiles/set_38/main_safe/rightBlue\GB_RB_2.xlsx
27	main_safe	True	0.0	736	0	1.0	1.0	1.0	1	right	2.0	1.0	1.0	1	0.08	blockFiles/set_38/main_safe/rightBlue\GB_RB_2.xlsx
28	main_safe	True	0.0	736	0	1.0	1.0	0.0	1	left	1.0	1.0	1.0	0	-0.08	blockFiles/set_38/main_safe/rightBlue\GB_RB_2.xlsx
29	main_safe	True	0.0	736	0	1.0	1.0	0.0	1	left	1.0	1.0	1.0	0	-0.08	blockFiles/set_38/main_safe/rightBlue\GB_RB_2.xlsx
30	main_safe	True	0.0	736	0	1.0	1.0	1.0	1	right	2.0	1.0	1.0	1	0.08	blockFiles/set_38/main_safe/rightBlue\GB_RB_2.xlsx
31	main_safe	True	0.0	736	0	1.0	1.0	0.0	1	left	1.0	1.0	1.0	0	-0.08	blockFiles/set_38/main_safe/rightBlue\GB_RB_2.xlsx
32	main_safe	True	0.0	736	0	1.0	1.0	1.0	1	right	2.0	1.0	1.0	1	0.08	blockFiles/set_38/main_safe/rightBlue\GB_RB_2.xlsx
33	main_safe	True	0.0	736	0	1.0	1.0	0.0	1	left	1.0	1.0	1.0	0	-0.08	blockFiles/set_38/main_safe/rightBlue\GB_RB_2.xlsx
34	main_safe	True	0.0	736	0	1.0	1.0	0.0	1	left	1.0	0.0	1.0	0	-0.08	blockFiles/set_38/main_safe/rightBlue\GB_RB_2.xlsx
35	main_safe	True	0.0	736	0	1.0	1.0	1.0	1	right	2.0	1.0	1.0	1	0.08	blockFiles/set_38/main_safe/rightBlue\GB_RB_2.xlsx
36	main_safe	True	0.0	736	0	1.0	1.0	0.0	1	left	1.0	0.0	1.0	0	-0.08	blockFiles/set_38/main_safe/rightBlue\GB_RB_2.xlsx
37	main_safe	True	0.0	736	0	1.0	1.0	0.0	1	left	1.0	1.0	1.0	0	-0.08	blockFiles/set_38/main_safe/rightBlue\GB_RB_2.xlsx
38	main_safe	True	0.0	736	0	1.0	1.0	0.0	1	left	1.0	0.0	1.0	0	-0.08	blockFiles/set_38/main_safe/rightBlue\GB_RB_2.xlsx
39	main_safe	True	0.0	736	0	1.0	1.0	1.0	1	right	2.0	1.0	1.0	1	0.08	blockFiles/set_38/main_safe/rightBlue\GB_RB_2.xlsx
40	main_safe	True	0.0	736	0	1.0	1.0	1.0	1	right	2.0	0.0	1.0	1	0.08	blockFiles/set_38/main_safe/rightBlue\GB_RB_2.xlsx
41	main_safe	True	0.0	736	0	1.0	1.0	0.0	1	left	1.0	1.0	1.0	0	-0.08	blockFiles/set_38/main_safe/rightBlue\GB_RB_2.xlsx
42	main_safe	True	0.0	736	0	1.0	1.0	1.0	1	right	2.0	1.0	1.0	1	0.08	blockFiles/set_38/main_safe/rightBlue\GB_RB_2.xlsx
43	main_safe	True	0.0	736	0	1.0	1.0	0.0	1	left	1.0	1.0	1.0	0	-0.08	blockFiles/set_38/main_safe/rightBlue\GB_RB_2.xlsx
44	main_safe	True	0.0	736	0	1.0	1.0	1.0	1	right	2.0	1.0	1.0	1	0.08	blockFiles/set_38/main_safe/rightBlue\GB_RB_2.xlsx
45	main_safe	True	0.0	736	0	1.0	1.0	1.0	1	right	2.0	1.0	1.0	1	0.08	blockFiles/set_38/main_safe/rightBlue\GB_RB_2.xlsx
46	main_safe	True	0.0	736	0	1.0	1.0	1.0	1	right	2.0	1.0	1.0	1	0.08	blockFiles/set_38/main_safe/rightBlue\GB_RB_2.xlsx
47	main_safe	True	0.0	736	0	1.0	1.0	0.0	1	left	1.0	1.0	1.0	0	-0.08	blockFiles/set_38/main_safe/rightBlue\GB_RB_2.xlsx
48	main_safe	True	1.0	736	0	1.0	1.0	0.0	1	left	n/a	0.0	n/a	0	-0.08	blockFiles/set_38/main_safe/rightBlue\GB_RB_2.xlsx
49	main_safe	True	0.0	736	0	1.0	1.0	1.0	1	right	2.0	1.0	1.0	1	0.08	blockFiles/set_38/main_safe/rightBlue\GB_RB_2.xlsx
50	main_safe	True	0.0	736	0	1.0	1.0	1.0	1	right	2.0	1.0	1.0	1	0.08	blockFiles/set_38/main_safe/rightBlue\GB_RB_2.xlsx
51	main_safe	True	0.0	736	0	1.0	1.0	0.0	1	left	1.0	1.0	1.0	0	-0.08	blockFiles/set_38/main_safe/rightBlue\GB_RB_2.xlsx
52	main_safe	True	0.0	736	0	2.0	2.0	0.0	1	left	2.0	1.0	0.0	0	-0.08	blockFiles/set_38/main_safe/rightBlue\GB_RB_3.xlsx
53	main_safe	True	0.0	736	0	2.0	2.0	0.0	0	left	2.0	1.0	1.0	1	0.08	blockFiles/set_38/main_safe/rightBlue\GB_RB_3.xlsx
54	main_safe	True	0.0	736	0	2.0	2.0	0.0	1	left	2.0	0.0	0.0	0	-0.08	blockFiles/set_38/main_safe/rightBlue\GB_RB_3.xlsx
55	main_safe	True	0.0	736	0	2.0	2.0	1.0	1	right	2.0	1.0	1.0	1	0.08	blockFiles/set_38/main_safe/rightBlue\GB_RB_3.xlsx
56	main_safe	True	0.0	736	0	2.0	2.0	1.0	1	right	2.0	1.0	1.0	1	0.08	blockFiles/set_38/main_safe/rightBlue\GB_RB_3.xlsx
57	main_safe	True	0.0	736	0	2.0	2.0	0.0	1	left	2.0	0.0	0.0	0	-0.08	blockFiles/set_38/main_safe/rightBlue\GB_RB_3.xlsx
58	main_safe	True	0.0	736	0	2.0	2.0	0.0	1	left	1.0	1.0	1.0	0	-0.08	blockFiles/set_38/main_safe/rightBlue\GB_RB_3.xlsx
59	main_safe	True	0.0	736	0	2.0	2.0	0.0	1	left	1.0	1.0	1.0	0	-0.08	blockFiles/set_38/main_safe/rightBlue\GB_RB_3.xlsx
60	main_safe	True	0.0	736	0	2.0	2.0	1.0	1	right	2.0	1.0	1.0	1	0.08	blockFiles/set_38/main_safe/rightBlue\GB_RB_3.xlsx
61	main_safe	True	0.0	736	0	2.0	2.0	0.0	1	left	1.0	1.0	1.0	0	-0.08	blockFiles/set_38/main_safe/rightBlue\GB_RB_3.xlsx
62	main_safe	True	0.0	736	0	2.0	2.0	1.0	1	right	2.0	1.0	1.0	1	0.08	blockFiles/set_38/main_safe/rightBlue\GB_RB_3.xlsx
63	main_safe	True	0.0	736	0	2.0	2.0	0.0	1	left	1.0	0.0	1.0	0	-0.08	blockFiles/set_38/main_safe/rightBlue\GB_RB_3.xlsx
64	main_safe	True	0.0	736	0	2.0	2.0	0.0	1	left	1.0	1.0	1.0	0	-0.08	blockFiles/set_38/main_safe/rightBlue\GB_RB_3.xlsx
65	main_safe	True	0.0	736	0	2.0	2.0	0.0	1	left	1.0	1.0	1.0	0	-0.08	blockFiles/set_38/main_safe/rightBlue\GB_RB_3.xlsx
66	main_safe	True	0.0	736	0	2.0	2.0	0.0	1	left	1.0	1.0	1.0	0	-0.08	blockFiles/set_38/main_safe/rightBlue\GB_RB_3.xlsx
67	main_safe	True	0.0	736	0	2.0	2.0	0.0	1	left	1.0	1.0	1.0	0	-0.08	blockFiles/set_38/main_safe/rightBlue\GB_RB_3.xlsx
68	main_safe	True	0.0	736	0	2.0	2.0	1.0	1	right	2.0	1.0	1.0	1	0.08	blockFiles/set_38/main_safe/rightBlue\GB_RB_3.xlsx
69	main_safe	True	0.0	736	0	2.0	2.0	1.0	1	right	2.0	1.0	1.0	1	0.08	blockFiles/set_38/main_safe/rightBlue\GB_RB_3.xlsx
70	main_safe	True	0.0	736	0	2.0	2.0	1.0	1	right	2.0	1.0	1.0	1	0.08	blockFiles/set_38/main_safe/rightBlue\GB_RB_3.xlsx
71	main_safe	True	0.0	736	0	2.0	2.0	0.0	1	left	1.0	1.0	1.0	0	-0.08	blockFiles/set_38/main_safe/rightBlue\GB_RB_3.xlsx
72	main_safe	True	0.0	736	0	2.0	2.0	1.0	1	right	2.0	0.0	1.0	1	0.08	blockFiles/set_38/main_safe/rightBlue\GB_RB_3.xlsx
73	main_safe	True	0.0	736	0	2.0	2.0	1.0	1	right	2.0	1.0	1.0	1	0.08	blockFiles/set_38/main_safe/rightBlue\GB_RB_3.xlsx
74	main_safe	True	0.0	736	0	2.0	2.0	1.0	1	right	2.0	1.0	1.0	1	0.08	blockFiles/set_38/main_safe/rightBlue\GB_RB_3.xlsx
75	main_safe	True	0.0	736	0	2.0	2.0	0.0	1	left	2.0	0.0	0.0	0	-0.08	blockFiles/set_38/main_safe/rightBlue\GB_RB_3.xlsx
76	main_safe	True	0.0	736	0	2.0	2.0	0.0	1	left	1.0	1.0	1.0	0	-0.08	blockFiles/set_38/main_safe/rightBlue\GB_RB_3.xlsx
77	main_safe	True	0.0	736	0	3.0	3.0	1.0	1	right	1.0	0.0	0.0	1	0.08	blockFiles/set_38/main_safe/rightBlue\GB_RB_1.xlsx
78	main_safe	True	0.0	736	0	3.0	3.0	0.0	1	left	1.0	1.0	1.0	0	-0.08	blockFiles/set_38/main_safe/rightBlue\GB_RB_1.xlsx
79	main_safe	True	0.0	736	0	3.0	3.0	0.0	1	left	1.0	1.0	1.0	0	-0.08	blockFiles/set_38/main_safe/rightBlue\GB_RB_1.xlsx
80	main_safe	True	0.0	736	0	3.0	3.0	0.0	1	left	1.0	1.0	1.0	0	-0.08	blockFiles/set_38/main_safe/rightBlue\GB_RB_1.xlsx
81	main_safe	True	0.0	736	0	3.0	3.0	1.0	1	right	1.0	0.0	0.0	1	0.08	blockFiles/set_38/main_safe/rightBlue\GB_RB_1.xlsx
82	main_safe	True	0.0	736	0	3.0	3.0	0.0	1	left	1.0	1.0	1.0	0	-0.08	blockFiles/set_38/main_safe/rightBlue\GB_RB_1.xlsx
83	main_safe	True	0.0	736	0	3.0	3.0	0.0	1	left	1.0	1.0	1.0	0	-0.08	blockFiles/set_38/main_safe/rightBlue\GB_RB_1.xlsx
84	main_safe	True	0.0	736	0	3.0	3.0	1.0	1	right	2.0	1.0	1.0	1	0.08	blockFiles/set_38/main_safe/rightBlue\GB_RB_1.xlsx
85	main_safe	True	0.0	736	0	3.0	3.0	1.0	1	right	2.0	1.0	1.0	1	0.08	blockFiles/set_38/main_safe/rightBlue\GB_RB_1.xlsx
86	main_safe	True	0.0	736	0	3.0	3.0	0.0	1	left	1.0	1.0	1.0	0	-0.08	blockFiles/set_38/main_safe/rightBlue\GB_RB_1.xlsx
87	main_safe	True	0.0	736	0	3.0	3.0	0.0	1	left	2.0	0.0	0.0	0	-0.08	blockFiles/set_38/main_safe/rightBlue\GB_RB_1.xlsx
88	main_safe	True	0.0	736	0	3.0	3.0	1.0	1	right	1.0	0.0	0.0	1	0.08	blockFiles/set_38/main_safe/rightBlue\GB_RB_1.xlsx
89	main_safe	True	0.0	736	0	3.0	3.0	1.0	1	right	2.0	0.0	1.0	1	0.08	blockFiles/set_38/main_safe/rightBlue\GB_RB_1.xlsx
90	main_safe	True	0.0	736	0	3.0	3.0	1.0	1	right	2.0	1.0	1.0	1	0.08	blockFiles/set_38/main_safe/rightBlue\GB_RB_1.xlsx
91	main_safe	True	0.0	736	0	3.0	3.0	1.0	1	right	2.0	1.0	1.0	1	0.08	blockFiles/set_38/main_safe/rightBlue\GB_RB_1.xlsx
92	main_safe	True	0.0	736	0	3.0	3.0	0.0	1	left	1.0	0.0	1.0	0	-0.08	blockFiles/set_38/main_safe/rightBlue\GB_RB_1.xlsx
93	main_safe	True	0.0	736	0	3.0	3.0	1.0	1	right	2.0	1.0	1.0	1	0.08	blockFiles/set_38/main_safe/rightBlue\GB_RB_1.xlsx
94	main_safe	True	0.0	736	0	3.0	3.0	0.0	1	left	1.0	0.0	1.0	0	-0.08	blockFiles/set_38/main_safe/rightBlue\GB_RB_1.xlsx
95	main_safe	True	0.0	736	0	3.0	3.0	0.0	1	left	2.0	0.0	0.0	0	-0.08	blockFiles/set_38/main_safe/rightBlue\GB_RB_1.xlsx
96	main_safe	True	0.0	736	0	3.0	3.0	0.0	1	left	2.0	0.0	0.0	0	-0.08	blockFiles/set_38/main_safe/rightBlue\GB_RB_1.xlsx
97	main_safe	True	0.0	736	0	3.0	3.0	1.0	1	right	2.0	1.0	1.0	1	0.08	blockFiles/set_38/main_safe/rightBlue\GB_RB_1.xlsx
98	main_safe	True	0.0	736	0	3.0	3.0	1.0	1	right	2.0	1.0	1.0	1	0.08	blockFiles/set_38/main_safe/rightBlue\GB_RB_1.xlsx
99	main_safe	True	0.0	736	0	3.0	3.0	1.0	1	right	2.0	1.0	1.0	1	0.08	blockFiles/set_38/main_safe/rightBlue\GB_RB_1.xlsx
100	main_safe	True	0.0	736	0	3.0	3.0	1.0	1	right	2.0	0.0	1.0	1	0.08	blockFiles/set_38/main_safe/rightBlue\GB_RB_1.xlsx
101	main_safe	True	0.0	736	0	3.0	3.0	1.0	1	right	2.0	1.0	1.0	1	0.08	blockFiles/set_38/main_safe/rightBlue\GB_RB_1.xlsx
102	main_safe	True	0.0	736	0	4.0	4.0	0.0	1	left	1.0	0.0	0.0	0	-0.08	blockFiles/set_38/main_safe/leftBlue\GB_LB_2.xlsx
103	main_safe	True	0.0	736	0	4.0	4.0	0.0	1	left	2.0	0.0	1.0	0	-0.08	blockFiles/set_38/main_safe/leftBlue\GB_LB_2.xlsx
104	main_safe	True	0.0	736	0	4.0	4.0	1.0	1	right	2.0	0.0	0.0	1	0.08	blockFiles/set_38/main_safe/leftBlue\GB_LB_2.xlsx
105	main_safe	True	0.0	736	0	4.0	4.0	0.0	1	left	1.0	0.0	0.0	0	-0.08	blockFiles/set_38/main_safe/leftBlue\GB_LB_2.xlsx
106	main_safe	True	0.0	736	0	4.0	4.0	0.0	1	left	2.0	1.0	1.0	0	-0.08	blockFiles/set_38/main_safe/leftBlue\GB_LB_2.xlsx
107	main_safe	True	0.0	736	0	4.0	4.0	1.0	1	right	1.0	1.0	1.0	1	0.08	blockFiles/set_38/main_safe/leftBlue\GB_LB_2.xlsx
108	main_safe	True	0.0	736	0	4.0	4.0	0.0	1	left	2.0	1.0	1.0	0	-0.08	blockFiles/set_38/main_safe/leftBlue\GB_LB_2.xlsx
109	main_safe	True	0.0	736	0	4.0	4.0	1.0	1	right	1.0	0.0	1.0	1	0.08	blockFiles/set_38/main_safe/leftBlue\GB_LB_2.xlsx
110	main_safe	True	0.0	736	0	4.0	4.0	0.0	1	left	2.0	0.0	1.0	0	-0.08	blockFiles/set_38/main_safe/leftBlue\GB_LB_2.xlsx
111	main_safe	True	0.0	736	0	4.0	4.0	1.0	1	right	1.0	1.0	1.0	1	0.08	blockFiles/set_38/main_safe/leftBlue\GB_LB_2.xlsx
112	main_safe	True	0.0	736	0	4.0	4.0	0.0	1	left	2.0	1.0	1.0	0	-0.08	blockFiles/set_38/main_safe/leftBlue\GB_LB_2.xlsx
113	main_safe	True	0.0	736	0	4.0	4.0	0.0	1	left	2.0	0.0	1.0	0	-0.08	blockFiles/set_38/main_safe/leftBlue\GB_LB_2.xlsx
114	main_safe	True	0.0	736	0	4.0	4.0	1.0	1	right	1.0	1.0	1.0	1	0.08	blockFiles/set_38/main_safe/leftBlue\GB_LB_2.xlsx
115	main_safe	True	0.0	736	0	4.0	4.0	0.0	1	left	2.0	1.0	1.0	0	-0.08	blockFiles/set_38/main_safe/leftBlue\GB_LB_2.xlsx
116	main_safe	True	0.0	736	0	4.0	4.0	0.0	1	left	2.0	1.0	1.0	0	-0.08	blockFiles/set_38/main_safe/leftBlue\GB_LB_2.xlsx
117	main_safe	True	0.0	736	0	4.0	4.0	0.0	1	left	2.0	1.0	1.0	0	-0.08	blockFiles/set_38/main_safe/leftBlue\GB_LB_2.xlsx
118	main_safe	True	0.0	736	0	4.0	4.0	1.0	1	right	1.0	1.0	1.0	1	0.08	blockFiles/set_38/main_safe/leftBlue\GB_LB_2.xlsx
119	main_safe	True	0.0	736	0	4.0	4.0	1.0	1	right	1.0	1.0	1.0	1	0.08	blockFiles/set_38/main_safe/leftBlue\GB_LB_2.xlsx
120	main_safe	True	0.0	736	0	4.0	4.0	0.0	1	left	2.0	1.0	1.0	0	-0.08	blockFiles/set_38/main_safe/leftBlue\GB_LB_2.xlsx
121	main_safe	True	0.0	736	0	4.0	4.0	1.0	0	right	2.0	1.0	1.0	0	-0.08	blockFiles/set_38/main_safe/leftBlue\GB_LB_2.xlsx
122	main_safe	True	0.0	736	0	4.0	4.0	1.0	1	right	1.0	1.0	1.0	1	0.08	blockFiles/set_38/main_safe/leftBlue\GB_LB_2.xlsx
123	main_safe	True	0.0	736	0	4.0	4.0	1.0	1	right	1.0	0.0	1.0	1	0.08	blockFiles/set_38/main_safe/leftBlue\GB_LB_2.xlsx
124	main_safe	True	0.0	736	0	4.0	4.0	0.0	1	left	2.0	1.0	1.0	0	-0.08	blockFiles/set_38/main_safe/leftBlue\GB_LB_2.xlsx
125	main_safe	True	0.0	736	0	4.0	4.0	1.0	1	right	1.0	1.0	1.0	1	0.08	blockFiles/set_38/main_safe/leftBlue\GB_LB_2.xlsx
126	main_safe	True	0.0	736	0	4.0	4.0	1.0	1	right	1.0	1.0	1.0	1	0.08	blockFiles/set_38/main_safe/leftBlue\GB_LB_2.xlsx
127	main_safe	True	0.0	736	0	5.0	5.0	1.0	1	right	2.0	0.0	0.0	1	0.08	blockFiles/set_38/main_safe/leftBlue\GB_LB_1.xlsx
128	main_safe	True	0.0	736	0	5.0	5.0	1.0	1	right	1.0	1.0	1.0	1	0.08	blockFiles/set_38/main_safe/leftBlue\GB_LB_1.xlsx
129	main_safe	True	0.0	736	0	5.0	5.0	0.0	1	left	2.0	1.0	1.0	0	-0.08	blockFiles/set_38/main_safe/leftBlue\GB_LB_1.xlsx
130	main_safe	True	0.0	736	0	5.0	5.0	1.0	1	right	1.0	0.0	1.0	1	0.08	blockFiles/set_38/main_safe/leftBlue\GB_LB_1.xlsx
131	main_safe	True	0.0	736	0	5.0	5.0	0.0	1	left	2.0	1.0	1.0	0	-0.08	blockFiles/set_38/main_safe/leftBlue\GB_LB_1.xlsx
132	main_safe	True	0.0	736	0	5.0	5.0	1.0	1	right	1.0	1.0	1.0	1	0.08	blockFiles/set_38/main_safe/leftBlue\GB_LB_1.xlsx
133	main_safe	True	0.0	736	0	5.0	5.0	0.0	1	left	2.0	1.0	1.0	0	-0.08	blockFiles/set_38/main_safe/leftBlue\GB_LB_1.xlsx
134	main_safe	True	0.0	736	0	5.0	5.0	1.0	1	right	1.0	1.0	1.0	1	0.08	blockFiles/set_38/main_safe/leftBlue\GB_LB_1.xlsx
135	main_safe	True	0.0	736	0	5.0	5.0	0.0	1	left	2.0	1.0	1.0	0	-0.08	blockFiles/set_38/main_safe/leftBlue\GB_LB_1.xlsx
136	main_safe	True	0.0	736	0	5.0	5.0	1.0	1	right	1.0	0.0	1.0	1	0.08	blockFiles/set_38/main_safe/leftBlue\GB_LB_1.xlsx
137	main_safe	True	0.0	736	0	5.0	5.0	0.0	1	left	2.0	1.0	1.0	0	-0.08	blockFiles/set_38/main_safe/leftBlue\GB_LB_1.xlsx
138	main_safe	True	0.0	736	0	5.0	5.0	1.0	1	right	1.0	1.0	1.0	1	0.08	blockFiles/set_38/main_safe/leftBlue\GB_LB_1.xlsx
139	main_safe	True	0.0	736	0	5.0	5.0	0.0	1	left	2.0	1.0	1.0	0	-0.08	blockFiles/set_38/main_safe/leftBlue\GB_LB_1.xlsx
140	main_safe	True	0.0	736	0	5.0	5.0	0.0	1	left	2.0	1.0	1.0	0	-0.08	blockFiles/set_38/main_safe/leftBlue\GB_LB_1.xlsx
141	main_safe	True	0.0	736	0	5.0	5.0	0.0	1	left	2.0	0.0	1.0	0	-0.08	blockFiles/set_38/main_safe/leftBlue\GB_LB_1.xlsx
142	main_safe	True	0.0	736	0	5.0	5.0	0.0	1	left	2.0	1.0	1.0	0	-0.08	blockFiles/set_38/main_safe/leftBlue\GB_LB_1.xlsx
143	main_safe	True	0.0	736	0	5.0	5.0	0.0	1	left	2.0	1.0	1.0	0	-0.08	blockFiles/set_38/main_safe/leftBlue\GB_LB_1.xlsx
144	main_safe	True	0.0	736	0	5.0	5.0	0.0	1	left	2.0	1.0	1.0	0	-0.08	blockFiles/set_38/main_safe/leftBlue\GB_LB_1.xlsx
145	main_safe	True	0.0	736	0	5.0	5.0	1.0	1	right	1.0	1.0	1.0	1	0.08	blockFiles/set_38/main_safe/leftBlue\GB_LB_1.xlsx
146	main_safe	True	0.0	736	0	5.0	5.0	0.0	1	left	2.0	1.0	1.0	0	-0.08	blockFiles/set_38/main_safe/leftBlue\GB_LB_1.xlsx
147	main_safe	True	0.0	736	0	5.0	5.0	1.0	1	right	1.0	0.0	1.0	1	0.08	blockFiles/set_38/main_safe/leftBlue\GB_LB_1.xlsx
148	main_safe	True	0.0	736	0	5.0	5.0	0.0	1	left	2.0	0.0	1.0	0	-0.08	blockFiles/set_38/main_safe/leftBlue\GB_LB_1.xlsx
149	main_safe	True	0.0	736	0	5.0	5.0	1.0	1	right	1.0	1.0	1.0	1	0.08	blockFiles/set_38/main_safe/leftBlue\GB_LB_1.xlsx
150	main_safe	True	0.0	736	0	5.0	5.0	1.0	1	right	1.0	1.0	1.0	1	0.08	blockFiles/set_38/main_safe/leftBlue\GB_LB_1.xlsx
151	main_safe	True	0.0	736	0	5.0	5.0	0.0	1	left	2.0	1.0	1.0	0	-0.08	blockFiles/set_38/main_safe/leftBlue\GB_LB_1.xlsx
152	patches	True	n/a	736	0	n/a	n/a	1.0	1	right	n/a	n/a	n/a	1	0.0125583089143	blockFiles/set_38/main_PD/GB_runPatches1.xlsx
153	patches	True	n/a	736	0	n/a	n/a	1.0	1	right	n/a	n/a	n/a	1	0.022258559484	blockFiles/set_38/main_PD/GB_runPatches1.xlsx
154	patches	True	n/a	736	0	n/a	n/a	0.0	1	left	n/a	n/a	n/a	0	-0.0421506092325	blockFiles/set_38/main_PD/GB_runPatches1.xlsx
155	patches	True	n/a	736	0	n/a	n/a	1.0	1	right	n/a	n/a	n/a	1	0.049038757551499994	blockFiles/set_38/main_PD/GB_runPatches1.xlsx
156	patches	True	n/a	736	0	n/a	n/a	0.0	1	left	n/a	n/a	n/a	0	-0.024406551532400005	blockFiles/set_38/main_PD/GB_runPatches1.xlsx
157	patches	True	n/a	736	0	n/a	n/a	0.0	1	left	n/a	n/a	n/a	0	-0.07278954301030001	blockFiles/set_38/main_PD/GB_runPatches1.xlsx
158	patches	True	n/a	736	0	n/a	n/a	0.0	1	left	n/a	n/a	n/a	0	-0.036351543013	blockFiles/set_38/main_PD/GB_runPatches1.xlsx
159	patches	True	n/a	736	0	n/a	n/a	1.0	1	right	n/a	n/a	n/a	1	0.00375388454646	blockFiles/set_38/main_PD/GB_runPatches1.xlsx
160	patches	True	n/a	736	0	n/a	n/a	1.0	1	right	n/a	n/a	n/a	1	0.035212248452	blockFiles/set_38/main_PD/GB_runPatches1.xlsx
161	patches	True	n/a	736	0	n/a	n/a	0.0	1	left	n/a	n/a	n/a	0	-0.0666151301377	blockFiles/set_38/main_PD/GB_runPatches1.xlsx
162	patches	True	n/a	736	0	n/a	n/a	1.0	1	right	n/a	n/a	n/a	1	0.0173693098687	blockFiles/set_38/main_PD/GB_runPatches1.xlsx
163	patches	True	n/a	736	0	n/a	n/a	1.0	1	right	n/a	n/a	n/a	1	0.06884496079760001	blockFiles/set_38/main_PD/GB_runPatches1.xlsx
164	patches	True	n/a	736	0	n/a	n/a	0.0	1	left	n/a	n/a	n/a	0	-0.0542783754691	blockFiles/set_38/main_PD/GB_runPatches1.xlsx
165	patches	True	n/a	736	0	n/a	n/a	1.0	1	right	n/a	n/a	n/a	1	0.0579308444448	blockFiles/set_38/main_PD/GB_runPatches1.xlsx
166	patches	True	n/a	736	0	n/a	n/a	1.0	0	right	n/a	n/a	n/a	0	-0.020929287932799998	blockFiles/set_38/main_PD/GB_runPatches1.xlsx
167	patches	True	n/a	736	0	n/a	n/a	1.0	0	right	n/a	n/a	n/a	0	-0.0025412931293200005	blockFiles/set_38/main_PD/GB_runPatches1.xlsx
168	patches	True	n/a	736	0	n/a	n/a	1.0	1	right	n/a	n/a	n/a	1	0.0428425224312	blockFiles/set_38/main_PD/GB_runPatches1.xlsx
169	patches	True	n/a	736	0	n/a	n/a	0.0	1	left	n/a	n/a	n/a	0	-0.0629836377315	blockFiles/set_38/main_PD/GB_runPatches1.xlsx
170	patches	True	n/a	736	0	n/a	n/a	0.0	1	left	n/a	n/a	n/a	0	-0.0252161956206	blockFiles/set_38/main_PD/GB_runPatches1.xlsx
171	patches	True	n/a	736	0	n/a	n/a	0.0	1	left	n/a	n/a	n/a	0	-0.037029895279599996	blockFiles/set_38/main_PD/GB_runPatches1.xlsx
172	patches	True	n/a	736	0	n/a	n/a	1.0	1	right	n/a	n/a	n/a	1	0.07024298707019999	blockFiles/set_38/main_PD/GB_runPatches1.xlsx
173	patches	True	n/a	736	0	n/a	n/a	1.0	0	right	n/a	n/a	n/a	0	-0.0340001522377	blockFiles/set_38/main_PD/GB_runPatches1.xlsx
174	patches	True	n/a	736	0	n/a	n/a	1.0	1	right	n/a	n/a	n/a	1	0.0650748320855	blockFiles/set_38/main_PD/GB_runPatches1.xlsx
175	patches	True	n/a	736	0	n/a	n/a	1.0	0	right	n/a	n/a	n/a	0	-0.0275293879397	blockFiles/set_38/main_PD/GB_runPatches1.xlsx
176	patches	True	n/a	736	0	n/a	n/a	1.0	1	right	n/a	n/a	n/a	1	0.0677622192726	blockFiles/set_38/main_PD/GB_runPatches1.xlsx
177	patches	True	n/a	736	0	n/a	n/a	0.0	1	left	n/a	n/a	n/a	0	-0.00793899046257	blockFiles/set_38/main_PD/GB_runPatches1.xlsx
178	patches	True	n/a	736	0	n/a	n/a	0.0	1	left	n/a	n/a	n/a	0	-0.00898072734475	blockFiles/set_38/main_PD/GB_runPatches1.xlsx
179	patches	True	n/a	736	0	n/a	n/a	1.0	1	right	n/a	n/a	n/a	1	0.0280700542405	blockFiles/set_38/main_PD/GB_runPatches1.xlsx
180	patches	True	n/a	736	0	n/a	n/a	0.0	1	left	n/a	n/a	n/a	0	-0.0776660618931	blockFiles/set_38/main_PD/GB_runPatches1.xlsx
181	patches	True	n/a	736	0	n/a	n/a	1.0	1	right	n/a	n/a	n/a	1	0.021185469534200002	blockFiles/set_38/main_PD/GB_runPatches1.xlsx
182	patches	True	n/a	736	0	n/a	n/a	1.0	1	right	n/a	n/a	n/a	1	0.0643572103605	blockFiles/set_38/main_PD/GB_runPatches1.xlsx
183	patches	True	n/a	736	0	n/a	n/a	0.0	1	left	n/a	n/a	n/a	0	-0.0364800050855	blockFiles/set_38/main_PD/GB_runPatches1.xlsx
184	patches	True	n/a	736	0	n/a	n/a	1.0	0	right	n/a	n/a	n/a	0	-0.0152372188494	blockFiles/set_38/main_PD/GB_runPatches1.xlsx
185	patches	True	n/a	736	0	n/a	n/a	0.0	1	left	n/a	n/a	n/a	0	-0.0165656258166	blockFiles/set_38/main_PD/GB_runPatches1.xlsx
186	patches	True	n/a	736	0	n/a	n/a	n/a	0	None	n/a	n/a	n/a	0	-0.035924563910800004	blockFiles/set_38/main_PD/GB_runPatches1.xlsx
187	patches	True	n/a	736	0	n/a	n/a	1.0	1	right	n/a	n/a	n/a	1	0.0775483577698	blockFiles/set_38/main_PD/GB_runPatches1.xlsx
188	patches	True	n/a	736	0	n/a	n/a	1.0	1	right	n/a	n/a	n/a	1	0.0395568170585	blockFiles/set_38/main_PD/GB_runPatches1.xlsx
189	patches	True	n/a	736	0	n/a	n/a	0.0	1	left	n/a	n/a	n/a	0	-0.052220385521700004	blockFiles/set_38/main_PD/GB_runPatches1.xlsx
190	patches	True	n/a	736	0	n/a	n/a	1.0	0	right	n/a	n/a	n/a	0	-0.0700187540241	blockFiles/set_38/main_PD/GB_runPatches1.xlsx
191	patches	True	n/a	736	0	n/a	n/a	1.0	1	right	n/a	n/a	n/a	1	0.00841704331338	blockFiles/set_38/main_PD/GB_runPatches1.xlsx
192	patches	True	n/a	736	0	n/a	n/a	1.0	1	right	n/a	n/a	n/a	1	0.013472916632900001	blockFiles/set_38/main_PD/GB_runPatches1.xlsx
193	patches	True	n/a	736	0	n/a	n/a	1.0	0	right	n/a	n/a	n/a	0	-0.0507045346685	blockFiles/set_38/main_PD/GB_runPatches1.xlsx
194	patches	True	n/a	736	0	n/a	n/a	0.0	1	left	n/a	n/a	n/a	0	-0.0739623077028	blockFiles/set_38/main_PD/GB_runPatches1.xlsx
195	patches	True	n/a	736	0	n/a	n/a	1.0	1	right	n/a	n/a	n/a	1	0.042403268069	blockFiles/set_38/main_PD/GB_runPatches1.xlsx
196	patches	True	n/a	736	0	n/a	n/a	1.0	1	right	n/a	n/a	n/a	1	0.00616308821365	blockFiles/set_38/main_PD/GB_runPatches1.xlsx
197	patches	True	n/a	736	0	n/a	n/a	1.0	1	right	n/a	n/a	n/a	1	0.0202180143446	blockFiles/set_38/main_PD/GB_runPatches1.xlsx
198	patches	True	n/a	736	0	n/a	n/a	1.0	1	right	n/a	n/a	n/a	1	0.0503004707955	blockFiles/set_38/main_PD/GB_runPatches1.xlsx
199	patches	True	n/a	736	0	n/a	n/a	0.0	1	left	n/a	n/a	n/a	0	-0.03235481048	blockFiles/set_38/main_PD/GB_runPatches1.xlsx
200	patches	True	n/a	736	0	n/a	n/a	0.0	1	left	n/a	n/a	n/a	0	-0.0507412260585	blockFiles/set_38/main_PD/GB_runPatches1.xlsx
201	patches	True	n/a	736	0	n/a	n/a	0.0	1	left	n/a	n/a	n/a	0	-0.0696805265732	blockFiles/set_38/main_PD/GB_runPatches1.xlsx
202	patches	True	n/a	736	0	n/a	n/a	1.0	1	right	n/a	n/a	n/a	1	0.0580640644766	blockFiles/set_38/main_PD/GB_runPatches1.xlsx
203	patches	True	n/a	736	0	n/a	n/a	0.0	1	left	n/a	n/a	n/a	0	-0.029969255905599998	blockFiles/set_38/main_PD/GB_runPatches1.xlsx
204	patches	True	n/a	736	0	n/a	n/a	0.0	1	left	n/a	n/a	n/a	0	-0.0306829508394	blockFiles/set_38/main_PD/GB_runPatches1.xlsx
205	patches	True	n/a	736	0	n/a	n/a	1.0	1	right	n/a	n/a	n/a	1	0.0395344855264	blockFiles/set_38/main_PD/GB_runPatches1.xlsx
206	patches	True	n/a	736	0	n/a	n/a	1.0	1	right	n/a	n/a	n/a	1	0.00726444052532	blockFiles/set_38/main_PD/GB_runPatches1.xlsx
207	patches	True	n/a	736	0	n/a	n/a	0.0	1	left	n/a	n/a	n/a	0	-0.0652794668823	blockFiles/set_38/main_PD/GB_runPatches1.xlsx
208	patches	True	n/a	736	0	n/a	n/a	1.0	1	right	n/a	n/a	n/a	1	0.0799702070095	blockFiles/set_38/main_PD/GB_runPatches1.xlsx
209	patches	True	n/a	736	0	n/a	n/a	1.0	1	right	n/a	n/a	n/a	1	0.05145562300459999	blockFiles/set_38/main_PD/GB_runPatches1.xlsx
210	patches	True	n/a	736	0	n/a	n/a	1.0	1	right	n/a	n/a	n/a	1	0.00667827710509	blockFiles/set_38/main_PD/GB_runPatches1.xlsx
211	patches	True	n/a	736	0	n/a	n/a	0.0	1	left	n/a	n/a	n/a	0	-0.0338379220106	blockFiles/set_38/main_PD/GB_runPatches1.xlsx
212	patches	True	n/a	736	0	n/a	n/a	1.0	0	right	n/a	n/a	n/a	0	-0.0617958579957	blockFiles/set_38/main_PD/GB_runPatches1.xlsx
213	patches	True	n/a	736	0	n/a	n/a	0.0	1	left	n/a	n/a	n/a	0	-0.00435752432793	blockFiles/set_38/main_PD/GB_runPatches1.xlsx
214	patches	True	n/a	736	0	n/a	n/a	0.0	1	left	n/a	n/a	n/a	0	-0.0743063574284	blockFiles/set_38/main_PD/GB_runPatches1.xlsx
215	patches	True	n/a	736	0	n/a	n/a	0.0	1	left	n/a	n/a	n/a	0	-0.026756743807299997	blockFiles/set_38/main_PD/GB_runPatches1.xlsx
216	patches	True	n/a	736	0	n/a	n/a	1.0	1	right	n/a	n/a	n/a	1	0.0479338971339	blockFiles/set_38/main_PD/GB_runPatches1.xlsx
217	patches	True	n/a	736	0	n/a	n/a	1.0	1	right	n/a	n/a	n/a	1	0.0471085044183	blockFiles/set_38/main_PD/GB_runPatches1.xlsx
218	patches	True	n/a	736	0	n/a	n/a	1.0	1	right	n/a	n/a	n/a	1	0.0478875339963	blockFiles/set_38/main_PD/GB_runPatches1.xlsx
219	patches	True	n/a	736	0	n/a	n/a	1.0	1	right	n/a	n/a	n/a	1	0.0379149645381	blockFiles/set_38/main_PD/GB_runPatches1.xlsx
220	patches	True	n/a	736	0	n/a	n/a	1.0	0	right	n/a	n/a	n/a	0	-0.022562789265099997	blockFiles/set_38/main_PD/GB_runPatches1.xlsx
221	patches	True	n/a	736	0	n/a	n/a	1.0	0	right	n/a	n/a	n/a	0	-0.0261580982991	blockFiles/set_38/main_PD/GB_runPatches1.xlsx
222	patches	True	n/a	736	0	n/a	n/a	0.0	1	left	n/a	n/a	n/a	0	-0.03945257861169999	blockFiles/set_38/main_PD/GB_runPatches1.xlsx
223	patches	True	n/a	736	0	n/a	n/a	1.0	0	right	n/a	n/a	n/a	0	-0.0197426738031	blockFiles/set_38/main_PD/GB_runPatches1.xlsx
224	patches	True	n/a	736	0	n/a	n/a	1.0	1	right	n/a	n/a	n/a	1	0.0255864287168	blockFiles/set_38/main_PD/GB_runPatches1.xlsx
225	patches	True	n/a	736	0	n/a	n/a	1.0	1	right	n/a	n/a	n/a	1	0.0795226139948	blockFiles/set_38/main_PD/GB_runPatches1.xlsx
226	patches	True	n/a	736	0	n/a	n/a	0.0	1	left	n/a	n/a	n/a	0	-0.0640911885537	blockFiles/set_38/main_PD/GB_runPatches1.xlsx
227	patches	True	n/a	736	0	n/a	n/a	1.0	0	right	n/a	n/a	n/a	0	-0.0500356198102	blockFiles/set_38/main_PD/GB_runPatches1.xlsx
228	patches	True	n/a	736	0	n/a	n/a	1.0	1	right	n/a	n/a	n/a	1	0.036674023401000004	blockFiles/set_38/main_PD/GB_runPatches1.xlsx
229	patches	True	n/a	736	0	n/a	n/a	n/a	0	None	n/a	n/a	n/a	0	-0.0398725179024	blockFiles/set_38/main_PD/GB_runPatches1.xlsx
230	patches	True	n/a	736	0	n/a	n/a	1.0	1	right	n/a	n/a	n/a	1	0.056433459985999995	blockFiles/set_38/main_PD/GB_runPatches1.xlsx
231	patches	True	n/a	736	0	n/a	n/a	1.0	1	right	n/a	n/a	n/a	1	0.0390382901952	blockFiles/set_38/main_PD/GB_runPatches1.xlsx
232	patches	True	n/a	736	0	n/a	n/a	0.0	1	left	n/a	n/a	n/a	0	-0.0277607402019	blockFiles/set_38/main_PD/GB_runPatches1.xlsx
233	patches	True	n/a	736	0	n/a	n/a	1.0	1	right	n/a	n/a	n/a	1	0.0799160415493	blockFiles/set_38/main_PD/GB_runPatches1.xlsx
234	patches	True	n/a	736	0	n/a	n/a	0.0	1	left	n/a	n/a	n/a	0	-0.052678446788300005	blockFiles/set_38/main_PD/GB_runPatches1.xlsx
235	patches	True	n/a	736	0	n/a	n/a	0.0	1	left	n/a	n/a	n/a	0	-0.0515677363798	blockFiles/set_38/main_PD/GB_runPatches1.xlsx
236	patches	True	n/a	736	0	n/a	n/a	1.0	1	right	n/a	n/a	n/a	1	0.0360439775325	blockFiles/set_38/main_PD/GB_runPatches1.xlsx
237	patches	True	n/a	736	0	n/a	n/a	0.0	0	left	n/a	n/a	n/a	1	0.012642716597799999	blockFiles/set_38/main_PD/GB_runPatches1.xlsx
238	patches	True	n/a	736	0	n/a	n/a	1.0	1	right	n/a	n/a	n/a	1	0.07465118985619999	blockFiles/set_38/main_PD/GB_runPatches1.xlsx
239	patches	True	n/a	736	0	n/a	n/a	1.0	0	right	n/a	n/a	n/a	0	-0.014542708359700002	blockFiles/set_38/main_PD/GB_runPatches1.xlsx
240	patches	True	n/a	736	0	n/a	n/a	1.0	1	right	n/a	n/a	n/a	1	0.0620391385257	blockFiles/set_38/main_PD/GB_runPatches1.xlsx
241	patches	True	n/a	736	0	n/a	n/a	0.0	1	left	n/a	n/a	n/a	0	-0.0699211201817	blockFiles/set_38/main_PD/GB_runPatches1.xlsx
242	patches	True	n/a	736	0	n/a	n/a	0.0	1	left	n/a	n/a	n/a	0	-0.057608699109399995	blockFiles/set_38/main_PD/GB_runPatches1.xlsx
243	patches	True	n/a	736	0	n/a	n/a	1.0	0	right	n/a	n/a	n/a	0	-0.015461579300500001	blockFiles/set_38/main_PD/GB_runPatches1.xlsx
244	patches	True	n/a	736	0	n/a	n/a	1.0	1	right	n/a	n/a	n/a	1	0.0558482512273	blockFiles/set_38/main_PD/GB_runPatches1.xlsx
245	patches	True	n/a	736	0	n/a	n/a	0.0	0	left	n/a	n/a	n/a	1	0.010968984030200002	blockFiles/set_38/main_PD/GB_runPatches1.xlsx
246	patches	True	n/a	736	0	n/a	n/a	1.0	1	right	n/a	n/a	n/a	1	0.0295107180625	blockFiles/set_38/main_PD/GB_runPatches1.xlsx
247	patches	True	n/a	736	0	n/a	n/a	1.0	1	right	n/a	n/a	n/a	1	0.0409580859356	blockFiles/set_38/main_PD/GB_runPatches1.xlsx
248	patches	True	n/a	736	0	n/a	n/a	1.0	1	right	n/a	n/a	n/a	1	0.059873748105	blockFiles/set_38/main_PD/GB_runPatches1.xlsx
249	patches	True	n/a	736	0	n/a	n/a	0.0	1	left	n/a	n/a	n/a	0	-0.029731587059800002	blockFiles/set_38/main_PD/GB_runPatches1.xlsx
250	patches	True	n/a	736	0	n/a	n/a	1.0	1	right	n/a	n/a	n/a	1	0.0159428232722	blockFiles/set_38/main_PD/GB_runPatches1.xlsx
251	patches	True	n/a	736	0	n/a	n/a	1.0	1	right	n/a	n/a	n/a	1	0.061463233158	blockFiles/set_38/main_PD/GB_runPatches1.xlsx
252	main_unc	True	0.0	736	0	0.0	0.0	1.0	0	right	1.0	0.0	0.0	0	-0.0534020352736	blockFiles/set_38/main_unc/leftBlue\GB_LB_6.xlsx
253	main_unc	True	0.0	736	0	0.0	0.0	0.0	1	left	1.0	1.0	0.0	0	-0.07880153274160001	blockFiles/set_38/main_unc/leftBlue\GB_LB_6.xlsx
254	main_unc	True	0.0	736	0	0.0	0.0	0.0	1	left	1.0	0.0	0.0	0	-0.00364230403677	blockFiles/set_38/main_unc/leftBlue\GB_LB_6.xlsx
255	main_unc	True	0.0	736	0	0.0	0.0	0.0	1	left	1.0	0.0	0.0	0	-0.0512830892392	blockFiles/set_38/main_unc/leftBlue\GB_LB_6.xlsx
256	main_unc	True	0.0	736	0	0.0	0.0	1.0	1	right	2.0	0.0	0.0	1	0.016439017485799998	blockFiles/set_38/main_unc/leftBlue\GB_LB_6.xlsx
257	main_unc	True	0.0	736	0	0.0	0.0	1.0	1	right	1.0	1.0	1.0	1	0.05474371027200001	blockFiles/set_38/main_unc/leftBlue\GB_LB_6.xlsx
258	main_unc	True	0.0	736	0	0.0	0.0	1.0	1	right	1.0	1.0	1.0	1	0.0148427042365	blockFiles/set_38/main_unc/leftBlue\GB_LB_6.xlsx
259	main_unc	True	0.0	736	0	0.0	0.0	1.0	1	right	1.0	0.0	1.0	1	0.052357118427800005	blockFiles/set_38/main_unc/leftBlue\GB_LB_6.xlsx
260	main_unc	True	0.0	736	0	0.0	0.0	0.0	1	left	2.0	1.0	1.0	0	-0.0406609044597	blockFiles/set_38/main_unc/leftBlue\GB_LB_6.xlsx
261	main_unc	True	0.0	736	0	0.0	0.0	1.0	1	right	1.0	0.0	1.0	1	0.040165338907400004	blockFiles/set_38/main_unc/leftBlue\GB_LB_6.xlsx
262	main_unc	True	0.0	736	0	0.0	0.0	1.0	1	right	1.0	0.0	1.0	1	0.0668002642877	blockFiles/set_38/main_unc/leftBlue\GB_LB_6.xlsx
263	main_unc	True	0.0	736	0	0.0	0.0	0.0	1	left	2.0	1.0	1.0	0	-0.038334475867499995	blockFiles/set_38/main_unc/leftBlue\GB_LB_6.xlsx
264	main_unc	True	0.0	736	0	0.0	0.0	1.0	1	right	1.0	0.0	1.0	1	0.0277505926602	blockFiles/set_38/main_unc/leftBlue\GB_LB_6.xlsx
265	main_unc	True	0.0	736	0	0.0	0.0	0.0	0	left	1.0	1.0	1.0	1	0.020724420193599997	blockFiles/set_38/main_unc/leftBlue\GB_LB_6.xlsx
266	main_unc	True	0.0	736	0	0.0	0.0	0.0	1	left	2.0	1.0	1.0	0	-0.014459491632900001	blockFiles/set_38/main_unc/leftBlue\GB_LB_6.xlsx
267	main_unc	True	0.0	736	0	0.0	0.0	1.0	1	right	1.0	1.0	1.0	1	0.0454184606671	blockFiles/set_38/main_unc/leftBlue\GB_LB_6.xlsx
268	main_unc	True	0.0	736	0	0.0	0.0	1.0	1	right	1.0	1.0	1.0	1	0.06358978275209999	blockFiles/set_38/main_unc/leftBlue\GB_LB_6.xlsx
269	main_unc	True	0.0	736	0	0.0	0.0	0.0	1	left	2.0	1.0	1.0	0	-0.0392763326876	blockFiles/set_38/main_unc/leftBlue\GB_LB_6.xlsx
270	main_unc	True	0.0	736	0	0.0	0.0	1.0	1	right	1.0	1.0	1.0	1	0.0463959591649	blockFiles/set_38/main_unc/leftBlue\GB_LB_6.xlsx
271	main_unc	True	0.0	736	0	0.0	0.0	0.0	1	left	2.0	1.0	1.0	0	-0.07798432197420001	blockFiles/set_38/main_unc/leftBlue\GB_LB_6.xlsx
272	main_unc	True	0.0	736	0	0.0	0.0	0.0	1	left	2.0	1.0	1.0	0	-0.027055447455500002	blockFiles/set_38/main_unc/leftBlue\GB_LB_6.xlsx
273	main_unc	True	0.0	736	0	0.0	0.0	1.0	1	right	1.0	1.0	1.0	1	0.07659920286389998	blockFiles/set_38/main_unc/leftBlue\GB_LB_6.xlsx
274	main_unc	True	0.0	736	0	0.0	0.0	0.0	1	left	2.0	0.0	1.0	0	-0.0029557899944499997	blockFiles/set_38/main_unc/leftBlue\GB_LB_6.xlsx
275	main_unc	True	0.0	736	0	0.0	0.0	0.0	1	left	1.0	0.0	0.0	0	-0.0157732268795	blockFiles/set_38/main_unc/leftBlue\GB_LB_6.xlsx
276	main_unc	True	0.0	736	0	0.0	0.0	0.0	1	left	2.0	1.0	1.0	0	-0.0672872032784	blockFiles/set_38/main_unc/leftBlue\GB_LB_6.xlsx
277	main_unc	True	0.0	736	0	1.0	1.0	1.0	1	right	1.0	0.0	0.0	1	0.0770464886166	blockFiles/set_38/main_unc/rightBlue\GB_RB_3.xlsx
278	main_unc	True	0.0	736	0	1.0	1.0	1.0	1	right	1.0	1.0	0.0	1	0.0681981147639	blockFiles/set_38/main_unc/rightBlue\GB_RB_3.xlsx
279	main_unc	True	0.0	736	0	1.0	1.0	1.0	1	right	1.0	0.0	0.0	1	0.0409189428575	blockFiles/set_38/main_unc/rightBlue\GB_RB_3.xlsx
280	main_unc	True	0.0	736	0	1.0	1.0	1.0	1	right	1.0	0.0	0.0	1	0.0218367578089	blockFiles/set_38/main_unc/rightBlue\GB_RB_3.xlsx
281	main_unc	True	0.0	736	0	1.0	1.0	0.0	1	left	2.0	0.0	0.0	0	-0.031079255118999997	blockFiles/set_38/main_unc/rightBlue\GB_RB_3.xlsx
282	main_unc	True	0.0	736	0	1.0	1.0	0.0	1	left	1.0	0.0	1.0	0	-0.00462066082284	blockFiles/set_38/main_unc/rightBlue\GB_RB_3.xlsx
283	main_unc	True	0.0	736	0	1.0	1.0	1.0	1	right	2.0	1.0	1.0	1	0.0471572700888	blockFiles/set_38/main_unc/rightBlue\GB_RB_3.xlsx
284	main_unc	True	0.0	736	0	1.0	1.0	0.0	0	left	1.0	0.0	0.0	1	0.000589677728713	blockFiles/set_38/main_unc/rightBlue\GB_RB_3.xlsx
285	main_unc	True	0.0	736	0	1.0	1.0	0.0	1	left	1.0	1.0	1.0	0	-0.07530729731539999	blockFiles/set_38/main_unc/rightBlue\GB_RB_3.xlsx
286	main_unc	True	0.0	736	0	1.0	1.0	0.0	1	left	1.0	1.0	1.0	0	-0.0490869110078	blockFiles/set_38/main_unc/rightBlue\GB_RB_3.xlsx
287	main_unc	True	0.0	736	0	1.0	1.0	1.0	1	right	2.0	0.0	1.0	1	0.028747170232199998	blockFiles/set_38/main_unc/rightBlue\GB_RB_3.xlsx
288	main_unc	True	0.0	736	0	1.0	1.0	1.0	1	right	2.0	1.0	1.0	1	0.0651854909398	blockFiles/set_38/main_unc/rightBlue\GB_RB_3.xlsx
289	main_unc	True	1.0	736	0	1.0	1.0	n/a	0	None	n/a	0.0	n/a	1	0.0144407249801	blockFiles/set_38/main_unc/rightBlue\GB_RB_3.xlsx
290	main_unc	True	0.0	736	0	1.0	1.0	0.0	0	left	2.0	1.0	1.0	1	0.011774341352299999	blockFiles/set_38/main_unc/rightBlue\GB_RB_3.xlsx
291	main_unc	True	0.0	736	0	1.0	1.0	0.0	1	left	1.0	1.0	1.0	0	-0.05651617610830001	blockFiles/set_38/main_unc/rightBlue\GB_RB_3.xlsx
292	main_unc	True	0.0	736	0	1.0	1.0	1.0	1	right	2.0	1.0	1.0	1	0.0317593268119	blockFiles/set_38/main_unc/rightBlue\GB_RB_3.xlsx
293	main_unc	True	0.0	736	0	1.0	1.0	0.0	1	left	1.0	1.0	1.0	0	-0.0645473389886	blockFiles/set_38/main_unc/rightBlue\GB_RB_3.xlsx
294	main_unc	True	0.0	736	0	1.0	1.0	1.0	0	right	1.0	1.0	1.0	0	-0.031558417026	blockFiles/set_38/main_unc/rightBlue\GB_RB_3.xlsx
295	main_unc	True	0.0	736	0	1.0	1.0	1.0	1	right	2.0	1.0	1.0	1	0.014233124479700002	blockFiles/set_38/main_unc/rightBlue\GB_RB_3.xlsx
296	main_unc	True	0.0	736	0	1.0	1.0	0.0	1	left	1.0	1.0	1.0	0	-0.0556016526744	blockFiles/set_38/main_unc/rightBlue\GB_RB_3.xlsx
297	main_unc	True	0.0	736	0	1.0	1.0	0.0	1	left	1.0	1.0	1.0	0	-0.0424819678627	blockFiles/set_38/main_unc/rightBlue\GB_RB_3.xlsx
298	main_unc	True	0.0	736	0	1.0	1.0	1.0	0	right	1.0	1.0	1.0	0	-0.00479469247162	blockFiles/set_38/main_unc/rightBlue\GB_RB_3.xlsx
299	main_unc	True	0.0	736	0	1.0	1.0	1.0	1	right	2.0	1.0	1.0	1	0.0719894223101	blockFiles/set_38/main_unc/rightBlue\GB_RB_3.xlsx
300	main_unc	True	0.0	736	0	1.0	1.0	0.0	1	left	1.0	1.0	1.0	0	-0.0471200698614	blockFiles/set_38/main_unc/rightBlue\GB_RB_3.xlsx
301	main_unc	True	0.0	736	0	1.0	1.0	1.0	0	right	2.0	1.0	0.0	0	-0.058596714977199996	blockFiles/set_38/main_unc/rightBlue\GB_RB_3.xlsx
302	main_unc	True	0.0	736	0	1.0	1.0	1.0	1	right	2.0	0.0	1.0	1	0.0144407249801	blockFiles/set_38/main_unc/rightBlue\GB_RB_3.xlsx
303	main_unc	True	0.0	736	0	2.0	2.0	1.0	1	right	2.0	0.0	1.0	1	0.0792219781317	blockFiles/set_38/main_unc/rightBlue\GB_RB_2.xlsx
304	main_unc	True	0.0	736	0	2.0	2.0	1.0	0	right	1.0	0.0	1.0	0	-0.04356241790580001	blockFiles/set_38/main_unc/rightBlue\GB_RB_2.xlsx
305	main_unc	True	1.0	736	0	2.0	2.0	0.0	1	left	n/a	0.0	n/a	0	-0.07047914290799999	blockFiles/set_38/main_unc/rightBlue\GB_RB_2.xlsx
306	main_unc	True	0.0	736	0	2.0	2.0	0.0	1	left	2.0	0.0	0.0	0	-0.0528367101401	blockFiles/set_38/main_unc/rightBlue\GB_RB_2.xlsx
307	main_unc	True	0.0	736	0	2.0	2.0	1.0	1	right	1.0	0.0	0.0	1	0.0659954589233	blockFiles/set_38/main_unc/rightBlue\GB_RB_2.xlsx
308	main_unc	True	0.0	736	0	2.0	2.0	1.0	1	right	1.0	0.0	0.0	1	0.0303541673906	blockFiles/set_38/main_unc/rightBlue\GB_RB_2.xlsx
309	main_unc	True	0.0	736	0	2.0	2.0	0.0	1	left	1.0	1.0	1.0	0	-0.0005002561584119999	blockFiles/set_38/main_unc/rightBlue\GB_RB_2.xlsx
310	main_unc	True	0.0	736	0	2.0	2.0	0.0	1	left	1.0	1.0	1.0	0	-0.00977190252393	blockFiles/set_38/main_unc/rightBlue\GB_RB_2.xlsx
311	main_unc	True	0.0	736	0	2.0	2.0	1.0	1	right	2.0	1.0	1.0	1	0.0781842184253	blockFiles/set_38/main_unc/rightBlue\GB_RB_2.xlsx
312	main_unc	True	0.0	736	0	2.0	2.0	0.0	1	left	1.0	1.0	1.0	0	-0.0188926626183	blockFiles/set_38/main_unc/rightBlue\GB_RB_2.xlsx
313	main_unc	True	0.0	736	0	2.0	2.0	0.0	1	left	1.0	1.0	1.0	0	-0.032072913684	blockFiles/set_38/main_unc/rightBlue\GB_RB_2.xlsx
314	main_unc	True	0.0	736	0	2.0	2.0	0.0	1	left	1.0	1.0	1.0	0	-0.0132800044864	blockFiles/set_38/main_unc/rightBlue\GB_RB_2.xlsx
315	main_unc	True	0.0	736	0	2.0	2.0	0.0	1	left	1.0	1.0	1.0	0	-0.0641307560168	blockFiles/set_38/main_unc/rightBlue\GB_RB_2.xlsx
316	main_unc	True	0.0	736	0	2.0	2.0	1.0	0	right	1.0	0.0	1.0	0	-0.054959532711699996	blockFiles/set_38/main_unc/rightBlue\GB_RB_2.xlsx
317	main_unc	True	0.0	736	0	2.0	2.0	1.0	1	right	2.0	1.0	1.0	1	0.0683283576928	blockFiles/set_38/main_unc/rightBlue\GB_RB_2.xlsx
318	main_unc	True	0.0	736	0	2.0	2.0	1.0	0	right	1.0	0.0	1.0	0	-0.00966247040778	blockFiles/set_38/main_unc/rightBlue\GB_RB_2.xlsx
319	main_unc	True	0.0	736	0	2.0	2.0	0.0	0	left	2.0	1.0	1.0	1	0.022280912194400003	blockFiles/set_38/main_unc/rightBlue\GB_RB_2.xlsx
320	main_unc	True	0.0	736	0	2.0	2.0	1.0	1	right	2.0	0.0	1.0	1	0.016445383504000002	blockFiles/set_38/main_unc/rightBlue\GB_RB_2.xlsx
321	main_unc	True	0.0	736	0	2.0	2.0	1.0	1	right	2.0	1.0	1.0	1	0.042205952499099995	blockFiles/set_38/main_unc/rightBlue\GB_RB_2.xlsx
322	main_unc	True	0.0	736	0	2.0	2.0	1.0	1	right	2.0	1.0	1.0	1	0.013255747035100001	blockFiles/set_38/main_unc/rightBlue\GB_RB_2.xlsx
323	main_unc	True	0.0	736	0	2.0	2.0	0.0	1	left	1.0	1.0	1.0	0	-0.0731864627451	blockFiles/set_38/main_unc/rightBlue\GB_RB_2.xlsx
324	main_unc	True	0.0	736	0	2.0	2.0	0.0	1	left	1.0	1.0	1.0	0	-0.0174892007746	blockFiles/set_38/main_unc/rightBlue\GB_RB_2.xlsx
325	main_unc	True	0.0	736	0	2.0	2.0	1.0	1	right	2.0	1.0	1.0	1	0.051813815254699996	blockFiles/set_38/main_unc/rightBlue\GB_RB_2.xlsx
326	main_unc	True	0.0	736	0	2.0	2.0	1.0	0	right	1.0	1.0	1.0	0	-0.00800429521129	blockFiles/set_38/main_unc/rightBlue\GB_RB_2.xlsx
327	main_unc	True	0.0	736	0	2.0	2.0	1.0	1	right	2.0	1.0	1.0	1	0.0545335557312	blockFiles/set_38/main_unc/rightBlue\GB_RB_2.xlsx
328	main_unc	True	0.0	736	0	2.0	2.0	0.0	1	left	1.0	1.0	1.0	0	-0.07047914290799999	blockFiles/set_38/main_unc/rightBlue\GB_RB_2.xlsx
329	main_unc	True	0.0	736	0	3.0	3.0	0.0	1	left	2.0	1.0	1.0	0	-0.0234932567552	blockFiles/set_38/main_unc/leftBlue\GB_LB_4.xlsx
330	main_unc	True	0.0	736	0	3.0	3.0	1.0	1	right	1.0	1.0	1.0	1	0.0286537240073	blockFiles/set_38/main_unc/leftBlue\GB_LB_4.xlsx
331	main_unc	True	0.0	736	0	3.0	3.0	1.0	0	right	1.0	0.0	0.0	0	-0.014017878938500001	blockFiles/set_38/main_unc/leftBlue\GB_LB_4.xlsx
332	main_unc	True	0.0	736	0	3.0	3.0	0.0	1	left	2.0	1.0	1.0	0	-0.0664789041691	blockFiles/set_38/main_unc/leftBlue\GB_LB_4.xlsx
333	main_unc	True	0.0	736	0	3.0	3.0	1.0	1	right	1.0	1.0	1.0	1	0.0384941856377	blockFiles/set_38/main_unc/leftBlue\GB_LB_4.xlsx
334	main_unc	True	0.0	736	0	3.0	3.0	1.0	1	right	1.0	1.0	1.0	1	0.0571018697694	blockFiles/set_38/main_unc/leftBlue\GB_LB_4.xlsx
335	main_unc	True	0.0	736	0	3.0	3.0	1.0	1	right	1.0	1.0	1.0	1	0.0779474080727	blockFiles/set_38/main_unc/leftBlue\GB_LB_4.xlsx
336	main_unc	True	0.0	736	0	3.0	3.0	0.0	1	left	2.0	1.0	1.0	0	-0.04424678621809999	blockFiles/set_38/main_unc/leftBlue\GB_LB_4.xlsx
337	main_unc	True	0.0	736	0	3.0	3.0	1.0	1	right	2.0	1.0	0.0	1	0.00488219693303	blockFiles/set_38/main_unc/leftBlue\GB_LB_4.xlsx
338	main_unc	True	0.0	736	0	3.0	3.0	1.0	1	right	1.0	1.0	1.0	1	0.0425777361728	blockFiles/set_38/main_unc/leftBlue\GB_LB_4.xlsx
339	main_unc	True	0.0	736	0	3.0	3.0	0.0	1	left	2.0	1.0	1.0	0	-0.0559325289726	blockFiles/set_38/main_unc/leftBlue\GB_LB_4.xlsx
340	main_unc	True	0.0	736	0	3.0	3.0	1.0	1	right	1.0	1.0	1.0	1	0.0207619401626	blockFiles/set_38/main_unc/leftBlue\GB_LB_4.xlsx
341	main_unc	True	0.0	736	0	3.0	3.0	0.0	1	left	2.0	0.0	1.0	0	-0.0470565196313	blockFiles/set_38/main_unc/leftBlue\GB_LB_4.xlsx
342	main_unc	True	0.0	736	0	3.0	3.0	0.0	1	left	2.0	1.0	1.0	0	-0.0742302861251	blockFiles/set_38/main_unc/leftBlue\GB_LB_4.xlsx
343	main_unc	True	0.0	736	0	3.0	3.0	1.0	1	right	1.0	1.0	1.0	1	0.0520502336882	blockFiles/set_38/main_unc/leftBlue\GB_LB_4.xlsx
344	main_unc	True	1.0	736	0	3.0	3.0	1.0	1	right	n/a	0.0	n/a	1	0.0420559802279	blockFiles/set_38/main_unc/leftBlue\GB_LB_4.xlsx
345	main_unc	True	0.0	736	0	3.0	3.0	0.0	1	left	2.0	1.0	1.0	0	-0.00635863892734	blockFiles/set_38/main_unc/leftBlue\GB_LB_4.xlsx
346	main_unc	True	0.0	736	0	3.0	3.0	1.0	1	right	1.0	1.0	1.0	1	0.0669516161829	blockFiles/set_38/main_unc/leftBlue\GB_LB_4.xlsx
347	main_unc	True	0.0	736	0	3.0	3.0	0.0	1	left	2.0	1.0	1.0	0	-0.0222568168677	blockFiles/set_38/main_unc/leftBlue\GB_LB_4.xlsx
348	main_unc	True	0.0	736	0	3.0	3.0	0.0	1	left	2.0	0.0	1.0	0	-0.0709466637485	blockFiles/set_38/main_unc/leftBlue\GB_LB_4.xlsx
349	main_unc	True	0.0	736	0	3.0	3.0	0.0	1	left	2.0	1.0	1.0	0	-0.0536981757544	blockFiles/set_38/main_unc/leftBlue\GB_LB_4.xlsx
350	main_unc	True	0.0	736	0	3.0	3.0	1.0	1	right	1.0	1.0	1.0	1	0.0435561998188	blockFiles/set_38/main_unc/leftBlue\GB_LB_4.xlsx
351	main_unc	True	0.0	736	0	3.0	3.0	0.0	0	left	2.0	1.0	0.0	1	0.000384085159749	blockFiles/set_38/main_unc/leftBlue\GB_LB_4.xlsx
352	main_unc	True	0.0	736	0	3.0	3.0	1.0	1	right	1.0	1.0	1.0	1	0.00369292445481	blockFiles/set_38/main_unc/leftBlue\GB_LB_4.xlsx
353	main_unc	True	0.0	736	0	3.0	3.0	0.0	1	left	2.0	1.0	1.0	0	-0.0722457179241	blockFiles/set_38/main_unc/leftBlue\GB_LB_4.xlsx
354	main_unc	True	0.0	736	0	3.0	3.0	1.0	1	right	1.0	0.0	1.0	1	0.0420559802279	blockFiles/set_38/main_unc/leftBlue\GB_LB_4.xlsx
355	main_unc	True	0.0	736	0	4.0	4.0	0.0	0	left	2.0	1.0	1.0	1	0.00394838616252	blockFiles/set_38/main_unc/rightBlue\GB_RB_4.xlsx
356	main_unc	True	0.0	736	0	4.0	4.0	1.0	0	right	2.0	0.0	0.0	0	-0.0196220026165	blockFiles/set_38/main_unc/rightBlue\GB_RB_4.xlsx
357	main_unc	True	0.0	736	0	4.0	4.0	0.0	1	left	2.0	0.0	0.0	0	-0.0550186847523	blockFiles/set_38/main_unc/rightBlue\GB_RB_4.xlsx
358	main_unc	True	0.0	736	0	4.0	4.0	1.0	1	right	2.0	1.0	1.0	1	0.0534209740348	blockFiles/set_38/main_unc/rightBlue\GB_RB_4.xlsx
359	main_unc	True	0.0	736	0	4.0	4.0	1.0	1	right	2.0	1.0	1.0	1	0.0406541749649	blockFiles/set_38/main_unc/rightBlue\GB_RB_4.xlsx
360	main_unc	True	0.0	736	0	4.0	4.0	0.0	1	left	2.0	0.0	0.0	0	-0.0680243978649	blockFiles/set_38/main_unc/rightBlue\GB_RB_4.xlsx
361	main_unc	True	0.0	736	0	4.0	4.0	1.0	1	right	2.0	1.0	1.0	1	0.0134981271625	blockFiles/set_38/main_unc/rightBlue\GB_RB_4.xlsx
362	main_unc	True	0.0	736	0	4.0	4.0	0.0	0	left	2.0	1.0	1.0	1	0.0246891718172	blockFiles/set_38/main_unc/rightBlue\GB_RB_4.xlsx
363	main_unc	True	0.0	736	0	4.0	4.0	0.0	1	left	1.0	1.0	1.0	0	-0.0787373720296	blockFiles/set_38/main_unc/rightBlue\GB_RB_4.xlsx
364	main_unc	True	0.0	736	0	4.0	4.0	1.0	1	right	2.0	1.0	1.0	1	0.020655211173	blockFiles/set_38/main_unc/rightBlue\GB_RB_4.xlsx
365	main_unc	True	0.0	736	0	4.0	4.0	1.0	0	right	1.0	1.0	1.0	0	-0.0103460564464	blockFiles/set_38/main_unc/rightBlue\GB_RB_4.xlsx
366	main_unc	True	0.0	736	0	4.0	4.0	1.0	1	right	2.0	1.0	1.0	1	0.0103446861356	blockFiles/set_38/main_unc/rightBlue\GB_RB_4.xlsx
367	main_unc	True	0.0	736	0	4.0	4.0	0.0	1	left	1.0	1.0	1.0	0	-0.0762201283686	blockFiles/set_38/main_unc/rightBlue\GB_RB_4.xlsx
368	main_unc	True	0.0	736	0	4.0	4.0	1.0	1	right	2.0	1.0	1.0	1	0.057223421074400004	blockFiles/set_38/main_unc/rightBlue\GB_RB_4.xlsx
369	main_unc	True	0.0	736	0	4.0	4.0	0.0	1	left	1.0	0.0	1.0	0	-0.05395260496069999	blockFiles/set_38/main_unc/rightBlue\GB_RB_4.xlsx
370	main_unc	True	0.0	736	0	4.0	4.0	0.0	1	left	1.0	1.0	1.0	0	-0.025952796190999997	blockFiles/set_38/main_unc/rightBlue\GB_RB_4.xlsx
371	main_unc	True	0.0	736	0	4.0	4.0	1.0	0	right	1.0	1.0	1.0	0	-0.031365780253	blockFiles/set_38/main_unc/rightBlue\GB_RB_4.xlsx
372	main_unc	True	0.0	736	0	4.0	4.0	1.0	1	right	2.0	1.0	1.0	1	0.0250680188276	blockFiles/set_38/main_unc/rightBlue\GB_RB_4.xlsx
373	main_unc	True	0.0	736	0	4.0	4.0	1.0	1	right	2.0	0.0	1.0	1	0.055583670083400004	blockFiles/set_38/main_unc/rightBlue\GB_RB_4.xlsx
374	main_unc	True	0.0	736	0	4.0	4.0	1.0	1	right	1.0	1.0	0.0	1	0.050976216550900004	blockFiles/set_38/main_unc/rightBlue\GB_RB_4.xlsx
375	main_unc	True	0.0	736	0	4.0	4.0	0.0	1	left	1.0	1.0	1.0	0	-0.022982229683500003	blockFiles/set_38/main_unc/rightBlue\GB_RB_4.xlsx
376	main_unc	True	1.0	736	0	4.0	4.0	1.0	1	right	n/a	0.0	n/a	1	0.046149879694	blockFiles/set_38/main_unc/rightBlue\GB_RB_4.xlsx
377	main_unc	True	0.0	736	0	4.0	4.0	0.0	1	left	1.0	1.0	1.0	0	-0.046509268973000006	blockFiles/set_38/main_unc/rightBlue\GB_RB_4.xlsx
378	main_unc	True	0.0	736	0	4.0	4.0	1.0	1	right	2.0	0.0	1.0	1	0.047246229779000004	blockFiles/set_38/main_unc/rightBlue\GB_RB_4.xlsx
379	main_unc	True	0.0	736	0	4.0	4.0	1.0	0	right	2.0	0.0	0.0	0	-0.0156917647459	blockFiles/set_38/main_unc/rightBlue\GB_RB_4.xlsx
380	main_unc	True	0.0	736	0	4.0	4.0	1.0	1	right	2.0	1.0	1.0	1	0.046149879694	blockFiles/set_38/main_unc/rightBlue\GB_RB_4.xlsx
381	main_unc	True	0.0	736	0	5.0	5.0	1.0	1	right	2.0	1.0	0.0	1	0.0316401784495	blockFiles/set_38/main_unc/leftBlue\GB_LB_2.xlsx
382	main_unc	True	0.0	736	0	5.0	5.0	1.0	1	right	2.0	0.0	0.0	1	0.026576877869700002	blockFiles/set_38/main_unc/leftBlue\GB_LB_2.xlsx
383	main_unc	True	0.0	736	0	5.0	5.0	1.0	1	right	2.0	0.0	0.0	1	0.054148217570000004	blockFiles/set_38/main_unc/leftBlue\GB_LB_2.xlsx
384	main_unc	True	0.0	736	0	5.0	5.0	0.0	1	left	2.0	1.0	1.0	0	-0.045737818162900006	blockFiles/set_38/main_unc/leftBlue\GB_LB_2.xlsx
385	main_unc	True	0.0	736	0	5.0	5.0	1.0	1	right	1.0	0.0	1.0	1	0.0232727695443	blockFiles/set_38/main_unc/leftBlue\GB_LB_2.xlsx
386	main_unc	True	0.0	736	0	5.0	5.0	0.0	1	left	2.0	0.0	1.0	0	-0.0794627142698	blockFiles/set_38/main_unc/leftBlue\GB_LB_2.xlsx
387	main_unc	True	0.0	736	0	5.0	5.0	1.0	1	right	1.0	1.0	1.0	1	0.0539810973965	blockFiles/set_38/main_unc/leftBlue\GB_LB_2.xlsx
388	main_unc	True	0.0	736	0	5.0	5.0	1.0	0	right	1.0	0.0	0.0	0	-0.000694073382765	blockFiles/set_38/main_unc/leftBlue\GB_LB_2.xlsx
389	main_unc	True	0.0	736	0	5.0	5.0	1.0	1	right	1.0	1.0	1.0	1	0.044007107745900005	blockFiles/set_38/main_unc/leftBlue\GB_LB_2.xlsx
390	main_unc	True	0.0	736	0	5.0	5.0	0.0	1	left	2.0	1.0	1.0	0	-0.048996203895699995	blockFiles/set_38/main_unc/leftBlue\GB_LB_2.xlsx
391	main_unc	True	0.0	736	0	5.0	5.0	0.0	1	left	2.0	1.0	1.0	0	-0.0320698841475	blockFiles/set_38/main_unc/leftBlue\GB_LB_2.xlsx
392	main_unc	True	0.0	736	0	5.0	5.0	1.0	1	right	1.0	0.0	1.0	1	0.06936846248810001	blockFiles/set_38/main_unc/leftBlue\GB_LB_2.xlsx
393	main_unc	True	0.0	736	0	5.0	5.0	1.0	1	right	1.0	1.0	1.0	1	0.0664501220919	blockFiles/set_38/main_unc/leftBlue\GB_LB_2.xlsx
394	main_unc	True	0.0	736	0	5.0	5.0	0.0	1	left	2.0	0.0	1.0	0	-0.0420988755114	blockFiles/set_38/main_unc/leftBlue\GB_LB_2.xlsx
395	main_unc	True	1.0	736	0	5.0	5.0	n/a	0	None	n/a	0.0	n/a	0	-0.07541720546780001	blockFiles/set_38/main_unc/leftBlue\GB_LB_2.xlsx
396	main_unc	True	0.0	736	0	5.0	5.0	0.0	1	left	1.0	0.0	0.0	0	-0.005127928145229999	blockFiles/set_38/main_unc/leftBlue\GB_LB_2.xlsx
397	main_unc	True	0.0	736	0	5.0	5.0	1.0	1	right	2.0	0.0	0.0	1	0.0172577523626	blockFiles/set_38/main_unc/leftBlue\GB_LB_2.xlsx
398	main_unc	True	0.0	736	0	5.0	5.0	0.0	1	left	2.0	1.0	1.0	0	-0.05865746162830001	blockFiles/set_38/main_unc/leftBlue\GB_LB_2.xlsx
399	main_unc	True	0.0	736	0	5.0	5.0	1.0	0	right	2.0	0.0	1.0	0	-0.028503159657099996	blockFiles/set_38/main_unc/leftBlue\GB_LB_2.xlsx
400	main_unc	True	0.0	736	0	5.0	5.0	0.0	1	left	2.0	1.0	1.0	0	-0.07917733609680001	blockFiles/set_38/main_unc/leftBlue\GB_LB_2.xlsx
401	main_unc	True	0.0	736	0	5.0	5.0	1.0	1	right	1.0	1.0	1.0	1	0.0479096563533	blockFiles/set_38/main_unc/leftBlue\GB_LB_2.xlsx
402	main_unc	True	0.0	736	0	5.0	5.0	1.0	1	right	1.0	1.0	1.0	1	0.0312992830761	blockFiles/set_38/main_unc/leftBlue\GB_LB_2.xlsx
403	main_unc	True	0.0	736	0	5.0	5.0	1.0	1	right	1.0	1.0	1.0	1	0.0057294022478199995	blockFiles/set_38/main_unc/leftBlue\GB_LB_2.xlsx
404	main_unc	True	0.0	736	0	5.0	5.0	1.0	1	right	1.0	1.0	1.0	1	0.05411461135369999	blockFiles/set_38/main_unc/leftBlue\GB_LB_2.xlsx
405	main_unc	True	0.0	736	0	5.0	5.0	1.0	0	right	2.0	1.0	1.0	0	-0.000591437444091	blockFiles/set_38/main_unc/leftBlue\GB_LB_2.xlsx
406	main_unc	True	0.0	736	0	5.0	5.0	0.0	1	left	2.0	1.0	1.0	0	-0.07541720546780001	blockFiles/set_38/main_unc/leftBlue\GB_LB_2.xlsx
407	main_unc	True	0.0	736	0	6.0	6.0	0.0	0	left	1.0	1.0	1.0	1	0.00106061013415	blockFiles/set_38/main_unc/leftBlue\GB_LB_1.xlsx
408	main_unc	True	0.0	736	0	6.0	6.0	0.0	1	left	2.0	1.0	1.0	0	-0.047216656860000004	blockFiles/set_38/main_unc/leftBlue\GB_LB_1.xlsx
409	main_unc	True	0.0	736	0	6.0	6.0	1.0	1	right	1.0	1.0	1.0	1	0.0524696117081	blockFiles/set_38/main_unc/leftBlue\GB_LB_1.xlsx
410	main_unc	True	0.0	736	0	6.0	6.0	0.0	1	left	1.0	0.0	0.0	0	-0.029258491247900004	blockFiles/set_38/main_unc/leftBlue\GB_LB_1.xlsx
411	main_unc	True	0.0	736	0	6.0	6.0	0.0	1	left	2.0	1.0	1.0	0	-0.048175989054100005	blockFiles/set_38/main_unc/leftBlue\GB_LB_1.xlsx
412	main_unc	True	0.0	736	0	6.0	6.0	0.0	1	left	2.0	1.0	1.0	0	-0.040280359108	blockFiles/set_38/main_unc/leftBlue\GB_LB_1.xlsx
413	main_unc	True	0.0	736	0	6.0	6.0	0.0	1	left	2.0	1.0	1.0	0	-0.021259676050400002	blockFiles/set_38/main_unc/leftBlue\GB_LB_1.xlsx
414	main_unc	True	0.0	736	0	6.0	6.0	0.0	1	left	2.0	1.0	1.0	0	-0.033570664171099995	blockFiles/set_38/main_unc/leftBlue\GB_LB_1.xlsx
415	main_unc	True	0.0	736	0	6.0	6.0	0.0	1	left	2.0	1.0	1.0	0	-0.009489999320360001	blockFiles/set_38/main_unc/leftBlue\GB_LB_1.xlsx
416	main_unc	True	0.0	736	0	6.0	6.0	1.0	1	right	1.0	1.0	1.0	1	0.0781176136993	blockFiles/set_38/main_unc/leftBlue\GB_LB_1.xlsx
417	main_unc	True	0.0	736	0	6.0	6.0	1.0	1	right	1.0	0.0	1.0	1	0.0523089918494	blockFiles/set_38/main_unc/leftBlue\GB_LB_1.xlsx
418	main_unc	True	0.0	736	0	6.0	6.0	0.0	1	left	2.0	1.0	1.0	0	-0.020328244995299997	blockFiles/set_38/main_unc/leftBlue\GB_LB_1.xlsx
419	main_unc	True	0.0	736	0	6.0	6.0	0.0	1	left	2.0	1.0	1.0	0	-0.0712169526145	blockFiles/set_38/main_unc/leftBlue\GB_LB_1.xlsx
420	main_unc	True	0.0	736	0	6.0	6.0	0.0	0	left	1.0	0.0	1.0	1	0.0199632396922	blockFiles/set_38/main_unc/leftBlue\GB_LB_1.xlsx
421	main_unc	True	0.0	736	0	6.0	6.0	1.0	1	right	1.0	1.0	1.0	1	0.0431831561029	blockFiles/set_38/main_unc/leftBlue\GB_LB_1.xlsx
422	main_unc	True	0.0	736	0	6.0	6.0	0.0	1	left	2.0	0.0	1.0	0	-0.0449552717619	blockFiles/set_38/main_unc/leftBlue\GB_LB_1.xlsx
423	main_unc	True	0.0	736	0	6.0	6.0	0.0	1	left	2.0	1.0	1.0	0	-0.056523856576500005	blockFiles/set_38/main_unc/leftBlue\GB_LB_1.xlsx
424	main_unc	True	0.0	736	0	6.0	6.0	0.0	1	left	2.0	1.0	1.0	0	-0.059074657391800005	blockFiles/set_38/main_unc/leftBlue\GB_LB_1.xlsx
425	main_unc	True	0.0	736	0	6.0	6.0	1.0	1	right	1.0	1.0	1.0	1	0.00435113029554	blockFiles/set_38/main_unc/leftBlue\GB_LB_1.xlsx
426	main_unc	True	0.0	736	0	6.0	6.0	0.0	1	left	2.0	1.0	1.0	0	-0.0307372992113	blockFiles/set_38/main_unc/leftBlue\GB_LB_1.xlsx
427	main_unc	True	0.0	736	0	6.0	6.0	0.0	1	left	2.0	1.0	1.0	0	-0.0622367683798	blockFiles/set_38/main_unc/leftBlue\GB_LB_1.xlsx
428	main_unc	True	0.0	736	0	6.0	6.0	1.0	1	right	1.0	1.0	1.0	1	0.009768308214840002	blockFiles/set_38/main_unc/leftBlue\GB_LB_1.xlsx
429	main_unc	True	0.0	736	0	6.0	6.0	1.0	1	right	1.0	1.0	1.0	1	0.0363709079474	blockFiles/set_38/main_unc/leftBlue\GB_LB_1.xlsx
430	main_unc	True	0.0	736	0	6.0	6.0	1.0	1	right	1.0	1.0	1.0	1	0.0251009939052	blockFiles/set_38/main_unc/leftBlue\GB_LB_1.xlsx
431	main_unc	True	0.0	736	0	6.0	6.0	1.0	1	right	1.0	0.0	1.0	1	0.07438361551610001	blockFiles/set_38/main_unc/leftBlue\GB_LB_1.xlsx
432	main_unc	True	0.0	736	0	7.0	7.0	0.0	0	left	1.0	0.0	0.0	1	0.00144220333546	blockFiles/set_38/main_unc/rightBlue\GB_RB_5.xlsx
433	main_unc	True	0.0	736	0	7.0	7.0	0.0	1	left	2.0	1.0	0.0	0	-0.0754242765345	blockFiles/set_38/main_unc/rightBlue\GB_RB_5.xlsx
434	main_unc	True	0.0	736	0	7.0	7.0	0.0	1	left	2.0	1.0	0.0	0	-0.019215885456700003	blockFiles/set_38/main_unc/rightBlue\GB_RB_5.xlsx
435	main_unc	True	0.0	736	0	7.0	7.0	1.0	1	right	1.0	0.0	0.0	1	0.029681424833800003	blockFiles/set_38/main_unc/rightBlue\GB_RB_5.xlsx
436	main_unc	True	0.0	736	0	7.0	7.0	1.0	1	right	1.0	0.0	0.0	1	0.0681023532525	blockFiles/set_38/main_unc/rightBlue\GB_RB_5.xlsx
437	main_unc	True	0.0	736	0	7.0	7.0	1.0	1	right	2.0	1.0	1.0	1	0.0408028699271	blockFiles/set_38/main_unc/rightBlue\GB_RB_5.xlsx
438	main_unc	True	0.0	736	0	7.0	7.0	0.0	1	left	2.0	0.0	0.0	0	-0.06358083166180001	blockFiles/set_38/main_unc/rightBlue\GB_RB_5.xlsx
439	main_unc	True	0.0	736	0	7.0	7.0	0.0	1	left	1.0	1.0	1.0	0	-0.0019171992316800001	blockFiles/set_38/main_unc/rightBlue\GB_RB_5.xlsx
440	main_unc	True	0.0	736	0	7.0	7.0	1.0	0	right	2.0	0.0	0.0	0	-0.0312907861546	blockFiles/set_38/main_unc/rightBlue\GB_RB_5.xlsx
441	main_unc	True	0.0	736	0	7.0	7.0	0.0	1	left	1.0	1.0	1.0	0	-0.025460155103400002	blockFiles/set_38/main_unc/rightBlue\GB_RB_5.xlsx
442	main_unc	True	0.0	736	0	7.0	7.0	0.0	1	left	1.0	1.0	1.0	0	-0.016660667844100002	blockFiles/set_38/main_unc/rightBlue\GB_RB_5.xlsx
443	main_unc	True	0.0	736	0	7.0	7.0	0.0	1	left	1.0	1.0	1.0	0	-0.0401443169639	blockFiles/set_38/main_unc/rightBlue\GB_RB_5.xlsx
444	main_unc	True	0.0	736	0	7.0	7.0	1.0	1	right	2.0	1.0	1.0	1	0.0754325061291	blockFiles/set_38/main_unc/rightBlue\GB_RB_5.xlsx
445	main_unc	True	0.0	736	0	7.0	7.0	1.0	1	right	2.0	1.0	1.0	1	0.0437764753401	blockFiles/set_38/main_unc/rightBlue\GB_RB_5.xlsx
446	main_unc	True	0.0	736	0	7.0	7.0	1.0	1	right	2.0	1.0	1.0	1	0.059358662627600006	blockFiles/set_38/main_unc/rightBlue\GB_RB_5.xlsx
447	main_unc	True	0.0	736	0	7.0	7.0	1.0	1	right	2.0	1.0	1.0	1	0.0636571572348	blockFiles/set_38/main_unc/rightBlue\GB_RB_5.xlsx
448	main_unc	True	0.0	736	0	7.0	7.0	1.0	1	right	2.0	1.0	1.0	1	0.0382447651401	blockFiles/set_38/main_unc/rightBlue\GB_RB_5.xlsx
449	main_unc	True	0.0	736	0	7.0	7.0	1.0	1	right	2.0	1.0	1.0	1	0.032058037761599996	blockFiles/set_38/main_unc/rightBlue\GB_RB_5.xlsx
450	main_unc	True	0.0	736	0	7.0	7.0	1.0	1	right	2.0	1.0	1.0	1	0.0383479906991	blockFiles/set_38/main_unc/rightBlue\GB_RB_5.xlsx
451	main_unc	True	0.0	736	0	7.0	7.0	1.0	1	right	2.0	1.0	1.0	1	0.0158513463847	blockFiles/set_38/main_unc/rightBlue\GB_RB_5.xlsx
452	main_unc	True	0.0	736	0	7.0	7.0	0.0	1	left	1.0	1.0	1.0	0	-0.0671277393214	blockFiles/set_38/main_unc/rightBlue\GB_RB_5.xlsx
453	main_unc	True	0.0	736	0	7.0	7.0	1.0	1	right	2.0	0.0	1.0	1	0.027408315353099996	blockFiles/set_38/main_unc/rightBlue\GB_RB_5.xlsx
454	main_unc	True	0.0	736	0	7.0	7.0	1.0	1	right	2.0	1.0	1.0	1	0.034583798404800005	blockFiles/set_38/main_unc/rightBlue\GB_RB_5.xlsx
455	main_unc	True	0.0	736	0	7.0	7.0	0.0	1	left	1.0	1.0	1.0	0	-0.0288142444752	blockFiles/set_38/main_unc/rightBlue\GB_RB_5.xlsx
456	main_unc	True	0.0	736	0	7.0	7.0	0.0	1	left	1.0	0.0	1.0	0	-0.046342914793600004	blockFiles/set_38/main_unc/rightBlue\GB_RB_5.xlsx
457	main_unc	True	0.0	736	0	8.0	8.0	1.0	1	right	1.0	1.0	1.0	1	0.0302465023845	blockFiles/set_38/main_unc/leftBlue\GB_LB_3.xlsx
458	main_unc	True	0.0	736	0	8.0	8.0	0.0	1	left	1.0	0.0	0.0	0	-0.00144559590146	blockFiles/set_38/main_unc/leftBlue\GB_LB_3.xlsx
459	main_unc	True	0.0	736	0	8.0	8.0	1.0	1	right	1.0	0.0	1.0	1	0.0638477220945	blockFiles/set_38/main_unc/leftBlue\GB_LB_3.xlsx
460	main_unc	True	0.0	736	0	8.0	8.0	0.0	1	left	2.0	1.0	1.0	0	-0.0544352082536	blockFiles/set_38/main_unc/leftBlue\GB_LB_3.xlsx
461	main_unc	True	0.0	736	0	8.0	8.0	1.0	1	right	1.0	1.0	1.0	1	0.026531297024300002	blockFiles/set_38/main_unc/leftBlue\GB_LB_3.xlsx
462	main_unc	True	0.0	736	0	8.0	8.0	1.0	1	right	1.0	1.0	1.0	1	0.0159652631171	blockFiles/set_38/main_unc/leftBlue\GB_LB_3.xlsx
463	main_unc	True	0.0	736	0	8.0	8.0	0.0	1	left	2.0	1.0	1.0	0	-0.0607276825234	blockFiles/set_38/main_unc/leftBlue\GB_LB_3.xlsx
464	main_unc	True	0.0	736	0	8.0	8.0	0.0	1	left	2.0	1.0	1.0	0	-0.00936149153858	blockFiles/set_38/main_unc/leftBlue\GB_LB_3.xlsx
465	main_unc	True	0.0	736	0	8.0	8.0	1.0	1	right	1.0	0.0	1.0	1	0.030900555439299995	blockFiles/set_38/main_unc/leftBlue\GB_LB_3.xlsx
466	main_unc	True	0.0	736	0	8.0	8.0	1.0	1	right	1.0	0.0	1.0	1	0.0443369936571	blockFiles/set_38/main_unc/leftBlue\GB_LB_3.xlsx
467	main_unc	True	0.0	736	0	8.0	8.0	0.0	1	left	2.0	1.0	1.0	0	-0.0660551739484	blockFiles/set_38/main_unc/leftBlue\GB_LB_3.xlsx
468	main_unc	True	0.0	736	0	8.0	8.0	1.0	0	right	1.0	0.0	0.0	0	-0.0329820181429	blockFiles/set_38/main_unc/leftBlue\GB_LB_3.xlsx
469	main_unc	True	0.0	736	0	8.0	8.0	0.0	1	left	2.0	1.0	1.0	0	-0.0430047853477	blockFiles/set_38/main_unc/leftBlue\GB_LB_3.xlsx
470	main_unc	True	0.0	736	0	8.0	8.0	1.0	1	right	1.0	1.0	1.0	1	0.018146874941900003	blockFiles/set_38/main_unc/leftBlue\GB_LB_3.xlsx
471	main_unc	True	0.0	736	0	8.0	8.0	1.0	1	right	1.0	1.0	1.0	1	0.0256720607169	blockFiles/set_38/main_unc/leftBlue\GB_LB_3.xlsx
472	main_unc	True	0.0	736	0	8.0	8.0	0.0	1	left	2.0	1.0	1.0	0	-0.0412026327476	blockFiles/set_38/main_unc/leftBlue\GB_LB_3.xlsx
473	main_unc	True	0.0	736	0	8.0	8.0	1.0	1	right	1.0	1.0	1.0	1	0.0580813915469	blockFiles/set_38/main_unc/leftBlue\GB_LB_3.xlsx
474	main_unc	True	0.0	736	0	8.0	8.0	0.0	1	left	2.0	0.0	1.0	0	-0.044787269812099996	blockFiles/set_38/main_unc/leftBlue\GB_LB_3.xlsx
475	main_unc	True	0.0	736	0	8.0	8.0	1.0	1	right	1.0	1.0	1.0	1	0.00976688532159	blockFiles/set_38/main_unc/leftBlue\GB_LB_3.xlsx
476	main_unc	True	0.0	736	0	8.0	8.0	1.0	1	right	1.0	1.0	1.0	1	0.061019988190400005	blockFiles/set_38/main_unc/leftBlue\GB_LB_3.xlsx
477	main_unc	True	0.0	736	0	8.0	8.0	1.0	1	right	1.0	1.0	1.0	1	0.0203207419068	blockFiles/set_38/main_unc/leftBlue\GB_LB_3.xlsx
478	main_unc	True	0.0	736	0	8.0	8.0	0.0	1	left	2.0	1.0	1.0	0	-0.0659832286835	blockFiles/set_38/main_unc/leftBlue\GB_LB_3.xlsx
479	main_unc	True	0.0	736	0	8.0	8.0	0.0	1	left	2.0	0.0	1.0	0	-0.0165978890285	blockFiles/set_38/main_unc/leftBlue\GB_LB_3.xlsx
480	main_unc	True	1.0	736	0	8.0	8.0	n/a	0	None	n/a	0.0	n/a	0	-0.0336488640308	blockFiles/set_38/main_unc/leftBlue\GB_LB_3.xlsx
481	main_unc	True	0.0	736	0	8.0	8.0	1.0	1	right	1.0	0.0	1.0	1	0.0748503725789	blockFiles/set_38/main_unc/leftBlue\GB_LB_3.xlsx
482	main_unc	True	0.0	736	0	8.0	8.0	0.0	1	left	2.0	1.0	1.0	0	-0.0336488640308	blockFiles/set_38/main_unc/leftBlue\GB_LB_3.xlsx
483	main_unc	True	0.0	736	0	9.0	9.0	0.0	1	left	2.0	0.0	0.0	0	-0.0100763149932	blockFiles/set_38/main_unc/rightBlue\GB_RB_6.xlsx
484	main_unc	True	0.0	736	0	9.0	9.0	1.0	1	right	1.0	0.0	0.0	1	0.0410315831564	blockFiles/set_38/main_unc/rightBlue\GB_RB_6.xlsx
485	main_unc	True	0.0	736	0	9.0	9.0	0.0	1	left	1.0	1.0	1.0	0	-0.046535631716300006	blockFiles/set_38/main_unc/rightBlue\GB_RB_6.xlsx
486	main_unc	True	0.0	736	0	9.0	9.0	0.0	1	left	1.0	1.0	1.0	0	-0.053456752505199996	blockFiles/set_38/main_unc/rightBlue\GB_RB_6.xlsx
487	main_unc	True	0.0	736	0	9.0	9.0	1.0	1	right	2.0	0.0	1.0	1	0.0644671452977	blockFiles/set_38/main_unc/rightBlue\GB_RB_6.xlsx
488	main_unc	True	0.0	736	0	9.0	9.0	0.0	1	left	1.0	1.0	1.0	0	-0.0257948818617	blockFiles/set_38/main_unc/rightBlue\GB_RB_6.xlsx
489	main_unc	True	0.0	736	0	9.0	9.0	0.0	0	left	2.0	0.0	1.0	1	0.00856164338067	blockFiles/set_38/main_unc/rightBlue\GB_RB_6.xlsx
490	main_unc	True	0.0	736	0	9.0	9.0	1.0	1	right	2.0	1.0	1.0	1	0.0768494351767	blockFiles/set_38/main_unc/rightBlue\GB_RB_6.xlsx
491	main_unc	True	0.0	736	0	9.0	9.0	1.0	1	right	2.0	0.0	1.0	1	0.044631092399399996	blockFiles/set_38/main_unc/rightBlue\GB_RB_6.xlsx
492	main_unc	True	0.0	736	0	9.0	9.0	1.0	1	right	2.0	1.0	1.0	1	0.033394592478900004	blockFiles/set_38/main_unc/rightBlue\GB_RB_6.xlsx
493	main_unc	True	0.0	736	0	9.0	9.0	1.0	1	right	2.0	1.0	1.0	1	0.0143041148596	blockFiles/set_38/main_unc/rightBlue\GB_RB_6.xlsx
494	main_unc	True	0.0	736	0	9.0	9.0	1.0	0	right	2.0	1.0	0.0	0	-0.0122007120028	blockFiles/set_38/main_unc/rightBlue\GB_RB_6.xlsx
495	main_unc	True	0.0	736	0	9.0	9.0	1.0	1	right	2.0	1.0	1.0	1	0.0639152099378	blockFiles/set_38/main_unc/rightBlue\GB_RB_6.xlsx
496	main_unc	True	0.0	736	0	9.0	9.0	0.0	1	left	1.0	1.0	1.0	0	-0.053995617702599995	blockFiles/set_38/main_unc/rightBlue\GB_RB_6.xlsx
497	main_unc	True	0.0	736	0	9.0	9.0	0.0	1	left	1.0	1.0	1.0	0	-0.0794815906696	blockFiles/set_38/main_unc/rightBlue\GB_RB_6.xlsx
498	main_unc	True	0.0	736	0	9.0	9.0	0.0	1	left	1.0	1.0	1.0	0	-0.00269350236282	blockFiles/set_38/main_unc/rightBlue\GB_RB_6.xlsx
499	main_unc	True	0.0	736	0	9.0	9.0	1.0	1	right	2.0	1.0	1.0	1	0.0453741855174	blockFiles/set_38/main_unc/rightBlue\GB_RB_6.xlsx
500	main_unc	True	0.0	736	0	9.0	9.0	1.0	0	right	2.0	0.0	0.0	0	-0.0102422171086	blockFiles/set_38/main_unc/rightBlue\GB_RB_6.xlsx
501	main_unc	True	0.0	736	0	9.0	9.0	1.0	1	right	1.0	0.0	0.0	1	0.0319381458126	blockFiles/set_38/main_unc/rightBlue\GB_RB_6.xlsx
502	main_unc	True	0.0	736	0	9.0	9.0	1.0	1	right	2.0	1.0	1.0	1	0.0731074881926	blockFiles/set_38/main_unc/rightBlue\GB_RB_6.xlsx
503	main_unc	True	0.0	736	0	9.0	9.0	1.0	1	right	2.0	1.0	1.0	1	0.005335656832899999	blockFiles/set_38/main_unc/rightBlue\GB_RB_6.xlsx
504	main_unc	True	0.0	736	0	9.0	9.0	1.0	0	right	2.0	0.0	0.0	0	-0.0161194062419	blockFiles/set_38/main_unc/rightBlue\GB_RB_6.xlsx
505	main_unc	True	0.0	736	0	9.0	9.0	0.0	1	left	1.0	1.0	1.0	0	-0.0674021169357	blockFiles/set_38/main_unc/rightBlue\GB_RB_6.xlsx
506	main_unc	True	0.0	736	0	9.0	9.0	1.0	0	right	2.0	0.0	0.0	0	-0.0142294180393	blockFiles/set_38/main_unc/rightBlue\GB_RB_6.xlsx
507	main_unc	True	0.0	736	0	9.0	9.0	1.0	0	right	2.0	0.0	0.0	0	-0.044524296410400004	blockFiles/set_38/main_unc/rightBlue\GB_RB_6.xlsx
508	main_unc	True	0.0	736	0	10.0	10.0	1.0	1	right	2.0	1.0	1.0	1	0.07809973035010001	blockFiles/set_38/main_unc/rightBlue\GB_RB_1.xlsx
509	main_unc	True	0.0	736	0	10.0	10.0	1.0	1	right	2.0	0.0	1.0	1	0.011297647841299998	blockFiles/set_38/main_unc/rightBlue\GB_RB_1.xlsx
510	main_unc	True	0.0	736	0	10.0	10.0	1.0	1	right	2.0	1.0	1.0	1	0.0790172901377	blockFiles/set_38/main_unc/rightBlue\GB_RB_1.xlsx
511	main_unc	True	1.0	736	0	10.0	10.0	n/a	0	None	n/a	0.0	n/a	0	-0.0495506919362	blockFiles/set_38/main_unc/rightBlue\GB_RB_1.xlsx
512	main_unc	True	0.0	736	0	10.0	10.0	1.0	1	right	2.0	0.0	1.0	1	0.0423227310367	blockFiles/set_38/main_unc/rightBlue\GB_RB_1.xlsx
513	main_unc	True	0.0	736	0	10.0	10.0	1.0	0	right	1.0	1.0	1.0	0	-0.0500855815597	blockFiles/set_38/main_unc/rightBlue\GB_RB_1.xlsx
514	main_unc	True	0.0	736	0	10.0	10.0	1.0	1	right	2.0	0.0	1.0	1	0.0184619519673	blockFiles/set_38/main_unc/rightBlue\GB_RB_1.xlsx
515	main_unc	True	0.0	736	0	10.0	10.0	1.0	1	right	2.0	1.0	1.0	1	0.062206423282599996	blockFiles/set_38/main_unc/rightBlue\GB_RB_1.xlsx
516	main_unc	True	0.0	736	0	10.0	10.0	0.0	1	left	1.0	1.0	1.0	0	-0.025190416332299997	blockFiles/set_38/main_unc/rightBlue\GB_RB_1.xlsx
517	main_unc	True	0.0	736	0	10.0	10.0	1.0	0	right	1.0	1.0	1.0	0	-0.0171268982999	blockFiles/set_38/main_unc/rightBlue\GB_RB_1.xlsx
518	main_unc	True	0.0	736	0	10.0	10.0	0.0	1	left	1.0	1.0	1.0	0	-0.049301826059800005	blockFiles/set_38/main_unc/rightBlue\GB_RB_1.xlsx
519	main_unc	True	0.0	736	0	10.0	10.0	1.0	1	right	2.0	1.0	1.0	1	0.0626836697012	blockFiles/set_38/main_unc/rightBlue\GB_RB_1.xlsx
520	main_unc	True	0.0	736	0	10.0	10.0	1.0	1	right	1.0	0.0	0.0	1	0.00284508565441	blockFiles/set_38/main_unc/rightBlue\GB_RB_1.xlsx
521	main_unc	True	0.0	736	0	10.0	10.0	1.0	0	right	2.0	0.0	0.0	0	-0.0308365487121	blockFiles/set_38/main_unc/rightBlue\GB_RB_1.xlsx
522	main_unc	True	0.0	736	0	10.0	10.0	1.0	1	right	2.0	1.0	1.0	1	0.017010544762	blockFiles/set_38/main_unc/rightBlue\GB_RB_1.xlsx
523	main_unc	True	0.0	736	0	10.0	10.0	0.0	1	left	1.0	1.0	1.0	0	-0.0376412326843	blockFiles/set_38/main_unc/rightBlue\GB_RB_1.xlsx
524	main_unc	True	0.0	736	0	10.0	10.0	0.0	1	left	1.0	1.0	1.0	0	-0.0778325607814	blockFiles/set_38/main_unc/rightBlue\GB_RB_1.xlsx
525	main_unc	True	0.0	736	0	10.0	10.0	0.0	1	left	1.0	1.0	1.0	0	-0.0018623527512	blockFiles/set_38/main_unc/rightBlue\GB_RB_1.xlsx
526	main_unc	True	0.0	736	0	10.0	10.0	1.0	1	right	2.0	1.0	1.0	1	0.0389892070927	blockFiles/set_38/main_unc/rightBlue\GB_RB_1.xlsx
527	main_unc	True	0.0	736	0	10.0	10.0	1.0	1	right	2.0	1.0	1.0	1	0.0444651328027	blockFiles/set_38/main_unc/rightBlue\GB_RB_1.xlsx
528	main_unc	True	0.0	736	0	10.0	10.0	1.0	0	right	2.0	0.0	0.0	0	-0.021923960354200002	blockFiles/set_38/main_unc/rightBlue\GB_RB_1.xlsx
529	main_unc	True	0.0	736	0	10.0	10.0	1.0	1	right	2.0	0.0	1.0	1	0.04154824242	blockFiles/set_38/main_unc/rightBlue\GB_RB_1.xlsx
530	main_unc	True	0.0	736	0	10.0	10.0	0.0	1	left	1.0	1.0	1.0	0	-0.0366851276346	blockFiles/set_38/main_unc/rightBlue\GB_RB_1.xlsx
531	main_unc	True	0.0	736	0	10.0	10.0	0.0	1	left	1.0	1.0	1.0	0	-0.0287923180312	blockFiles/set_38/main_unc/rightBlue\GB_RB_1.xlsx
532	main_unc	True	0.0	736	0	10.0	10.0	1.0	1	right	2.0	1.0	1.0	1	0.0722534332983	blockFiles/set_38/main_unc/rightBlue\GB_RB_1.xlsx
533	main_unc	True	0.0	736	0	10.0	10.0	0.0	1	left	1.0	0.0	1.0	0	-0.0495506919362	blockFiles/set_38/main_unc/rightBlue\GB_RB_1.xlsx
534	main_unc	True	0.0	736	0	11.0	11.0	0.0	1	left	1.0	0.0	0.0	0	-0.0551773275435	blockFiles/set_38/main_unc/leftBlue\GB_LB_5.xlsx
535	main_unc	True	0.0	736	0	11.0	11.0	0.0	1	left	2.0	1.0	1.0	0	-0.00328787013888	blockFiles/set_38/main_unc/leftBlue\GB_LB_5.xlsx
536	main_unc	True	0.0	736	0	11.0	11.0	0.0	1	left	2.0	0.0	1.0	0	-0.047297710888099996	blockFiles/set_38/main_unc/leftBlue\GB_LB_5.xlsx
537	main_unc	True	0.0	736	0	11.0	11.0	1.0	1	right	1.0	1.0	1.0	1	0.00962958185002	blockFiles/set_38/main_unc/leftBlue\GB_LB_5.xlsx
538	main_unc	True	0.0	736	0	11.0	11.0	1.0	1	right	1.0	1.0	1.0	1	0.044305911008299996	blockFiles/set_38/main_unc/leftBlue\GB_LB_5.xlsx
539	main_unc	True	0.0	736	0	11.0	11.0	0.0	1	left	2.0	1.0	1.0	0	-0.071445808094	blockFiles/set_38/main_unc/leftBlue\GB_LB_5.xlsx
540	main_unc	True	0.0	736	0	11.0	11.0	1.0	1	right	1.0	1.0	1.0	1	0.037993766255699994	blockFiles/set_38/main_unc/leftBlue\GB_LB_5.xlsx
541	main_unc	True	0.0	736	0	11.0	11.0	0.0	1	left	2.0	0.0	1.0	0	-0.030879107434299998	blockFiles/set_38/main_unc/leftBlue\GB_LB_5.xlsx
542	main_unc	True	0.0	736	0	11.0	11.0	1.0	1	right	1.0	1.0	1.0	1	0.0486887818016	blockFiles/set_38/main_unc/leftBlue\GB_LB_5.xlsx
543	main_unc	True	0.0	736	0	11.0	11.0	1.0	1	right	1.0	1.0	1.0	1	0.04795504210519999	blockFiles/set_38/main_unc/leftBlue\GB_LB_5.xlsx
544	main_unc	True	0.0	736	0	11.0	11.0	0.0	1	left	2.0	1.0	1.0	0	-0.031118369605400004	blockFiles/set_38/main_unc/leftBlue\GB_LB_5.xlsx
545	main_unc	True	0.0	736	0	11.0	11.0	1.0	1	right	1.0	1.0	1.0	1	0.0644403864816	blockFiles/set_38/main_unc/leftBlue\GB_LB_5.xlsx
546	main_unc	True	0.0	736	0	11.0	11.0	1.0	1	right	1.0	1.0	1.0	1	0.00781128903851	blockFiles/set_38/main_unc/leftBlue\GB_LB_5.xlsx
547	main_unc	True	0.0	736	0	11.0	11.0	1.0	1	right	1.0	0.0	1.0	1	0.07817362148310002	blockFiles/set_38/main_unc/leftBlue\GB_LB_5.xlsx
548	main_unc	True	0.0	736	0	11.0	11.0	0.0	1	left	2.0	1.0	1.0	0	-0.0695197420381	blockFiles/set_38/main_unc/leftBlue\GB_LB_5.xlsx
549	main_unc	True	0.0	736	0	11.0	11.0	0.0	1	left	2.0	1.0	1.0	0	-0.022044245619299997	blockFiles/set_38/main_unc/leftBlue\GB_LB_5.xlsx
550	main_unc	True	0.0	736	0	11.0	11.0	0.0	1	left	2.0	0.0	1.0	0	-0.0235474762507	blockFiles/set_38/main_unc/leftBlue\GB_LB_5.xlsx
551	main_unc	True	0.0	736	0	11.0	11.0	0.0	1	left	2.0	1.0	1.0	0	-0.047032874878500004	blockFiles/set_38/main_unc/leftBlue\GB_LB_5.xlsx
552	main_unc	True	0.0	736	0	11.0	11.0	1.0	1	right	1.0	1.0	1.0	1	0.0643757000007	blockFiles/set_38/main_unc/leftBlue\GB_LB_5.xlsx
553	main_unc	True	0.0	736	0	11.0	11.0	1.0	1	right	1.0	1.0	1.0	1	0.0621012625471	blockFiles/set_38/main_unc/leftBlue\GB_LB_5.xlsx
554	main_unc	True	0.0	736	0	11.0	11.0	1.0	1	right	1.0	1.0	1.0	1	0.022145686224099997	blockFiles/set_38/main_unc/leftBlue\GB_LB_5.xlsx
555	main_unc	True	0.0	736	0	11.0	11.0	0.0	1	left	2.0	1.0	1.0	0	-0.0754582487047	blockFiles/set_38/main_unc/leftBlue\GB_LB_5.xlsx
556	main_unc	True	0.0	736	0	11.0	11.0	1.0	0	right	1.0	0.0	0.0	0	-0.0135257755779	blockFiles/set_38/main_unc/leftBlue\GB_LB_5.xlsx
557	main_unc	True	0.0	736	0	11.0	11.0	1.0	0	right	2.0	1.0	1.0	0	-0.027670302949799996	blockFiles/set_38/main_unc/leftBlue\GB_LB_5.xlsx
558	main_unc	True	0.0	736	0	11.0	11.0	1.0	1	right	1.0	1.0	1.0	1	0.0508746231534	blockFiles/set_38/main_unc/leftBlue\GB_LB_5.xlsx
