	trial_type	complete	missIndex	participant	id	blockNumber	b_t	d_t	decision1.corr	decision1.keys	a_t	r_t	decision2.corr	s_t	u_t	block_file
0	main_safe	True	0.0	913	0	0.0	0.0	0.0	1	left	1.0	0.0	0.0	0	-0.08	blockFiles/set_53/main_safe/leftBlue\GB_LB_1.xlsx
1	main_safe	True	0.0	913	0	0.0	0.0	0.0	1	left	1.0	1.0	0.0	0	-0.08	blockFiles/set_53/main_safe/leftBlue\GB_LB_1.xlsx
2	main_safe	True	0.0	913	0	0.0	0.0	1.0	1	right	2.0	0.0	0.0	1	0.08	blockFiles/set_53/main_safe/leftBlue\GB_LB_1.xlsx
3	main_safe	True	0.0	913	0	0.0	0.0	0.0	1	left	2.0	0.0	1.0	0	-0.08	blockFiles/set_53/main_safe/leftBlue\GB_LB_1.xlsx
4	main_safe	True	0.0	913	0	0.0	0.0	0.0	1	left	2.0	1.0	1.0	0	-0.08	blockFiles/set_53/main_safe/leftBlue\GB_LB_1.xlsx
5	main_safe	True	0.0	913	0	0.0	0.0	0.0	1	left	2.0	1.0	1.0	0	-0.08	blockFiles/set_53/main_safe/leftBlue\GB_LB_1.xlsx
6	main_safe	True	0.0	913	0	0.0	0.0	0.0	1	left	2.0	1.0	1.0	0	-0.08	blockFiles/set_53/main_safe/leftBlue\GB_LB_1.xlsx
7	main_safe	True	0.0	913	0	0.0	0.0	0.0	1	left	2.0	1.0	1.0	0	-0.08	blockFiles/set_53/main_safe/leftBlue\GB_LB_1.xlsx
8	main_safe	True	0.0	913	0	0.0	0.0	1.0	1	right	1.0	1.0	1.0	1	0.08	blockFiles/set_53/main_safe/leftBlue\GB_LB_1.xlsx
9	main_safe	True	0.0	913	0	0.0	0.0	0.0	1	left	2.0	1.0	1.0	0	-0.08	blockFiles/set_53/main_safe/leftBlue\GB_LB_1.xlsx
10	main_safe	True	0.0	913	0	0.0	0.0	0.0	1	left	2.0	1.0	1.0	0	-0.08	blockFiles/set_53/main_safe/leftBlue\GB_LB_1.xlsx
11	main_safe	True	0.0	913	0	0.0	0.0	1.0	1	right	1.0	1.0	1.0	1	0.08	blockFiles/set_53/main_safe/leftBlue\GB_LB_1.xlsx
12	main_safe	True	0.0	913	0	0.0	0.0	1.0	1	right	1.0	1.0	1.0	1	0.08	blockFiles/set_53/main_safe/leftBlue\GB_LB_1.xlsx
13	main_safe	True	0.0	913	0	0.0	0.0	1.0	1	right	1.0	1.0	1.0	1	0.08	blockFiles/set_53/main_safe/leftBlue\GB_LB_1.xlsx
14	main_safe	True	0.0	913	0	0.0	0.0	1.0	1	right	1.0	0.0	1.0	1	0.08	blockFiles/set_53/main_safe/leftBlue\GB_LB_1.xlsx
15	main_safe	True	0.0	913	0	0.0	0.0	1.0	1	right	1.0	1.0	1.0	1	0.08	blockFiles/set_53/main_safe/leftBlue\GB_LB_1.xlsx
16	main_safe	True	0.0	913	0	0.0	0.0	0.0	1	left	2.0	1.0	1.0	0	-0.08	blockFiles/set_53/main_safe/leftBlue\GB_LB_1.xlsx
17	main_safe	True	0.0	913	0	0.0	0.0	1.0	1	right	1.0	1.0	1.0	1	0.08	blockFiles/set_53/main_safe/leftBlue\GB_LB_1.xlsx
18	main_safe	True	0.0	913	0	0.0	0.0	1.0	1	right	1.0	1.0	1.0	1	0.08	blockFiles/set_53/main_safe/leftBlue\GB_LB_1.xlsx
19	main_safe	True	0.0	913	0	0.0	0.0	1.0	1	right	1.0	1.0	1.0	1	0.08	blockFiles/set_53/main_safe/leftBlue\GB_LB_1.xlsx
20	main_safe	True	0.0	913	0	0.0	0.0	1.0	1	right	1.0	1.0	1.0	1	0.08	blockFiles/set_53/main_safe/leftBlue\GB_LB_1.xlsx
21	main_safe	True	0.0	913	0	0.0	0.0	1.0	1	right	1.0	0.0	1.0	1	0.08	blockFiles/set_53/main_safe/leftBlue\GB_LB_1.xlsx
22	main_safe	True	0.0	913	0	0.0	0.0	0.0	1	left	2.0	1.0	1.0	0	-0.08	blockFiles/set_53/main_safe/leftBlue\GB_LB_1.xlsx
23	main_safe	True	0.0	913	0	0.0	0.0	0.0	1	left	2.0	1.0	1.0	0	-0.08	blockFiles/set_53/main_safe/leftBlue\GB_LB_1.xlsx
24	main_safe	True	0.0	913	0	0.0	0.0	1.0	1	right	1.0	1.0	1.0	1	0.08	blockFiles/set_53/main_safe/leftBlue\GB_LB_1.xlsx
25	main_safe	True	0.0	913	0	1.0	1.0	0.0	1	left	1.0	1.0	1.0	0	-0.08	blockFiles/set_53/main_safe/rightBlue\GB_RB_2.xlsx
26	main_safe	True	0.0	913	0	1.0	1.0	0.0	1	left	1.0	1.0	1.0	0	-0.08	blockFiles/set_53/main_safe/rightBlue\GB_RB_2.xlsx
27	main_safe	True	0.0	913	0	1.0	1.0	1.0	1	right	2.0	1.0	1.0	1	0.08	blockFiles/set_53/main_safe/rightBlue\GB_RB_2.xlsx
28	main_safe	True	0.0	913	0	1.0	1.0	1.0	1	right	2.0	1.0	1.0	1	0.08	blockFiles/set_53/main_safe/rightBlue\GB_RB_2.xlsx
29	main_safe	True	0.0	913	0	1.0	1.0	0.0	1	left	1.0	1.0	1.0	0	-0.08	blockFiles/set_53/main_safe/rightBlue\GB_RB_2.xlsx
30	main_safe	True	0.0	913	0	1.0	1.0	1.0	1	right	2.0	1.0	1.0	1	0.08	blockFiles/set_53/main_safe/rightBlue\GB_RB_2.xlsx
31	main_safe	True	0.0	913	0	1.0	1.0	1.0	1	right	2.0	1.0	1.0	1	0.08	blockFiles/set_53/main_safe/rightBlue\GB_RB_2.xlsx
32	main_safe	True	0.0	913	0	1.0	1.0	1.0	1	right	2.0	1.0	1.0	1	0.08	blockFiles/set_53/main_safe/rightBlue\GB_RB_2.xlsx
33	main_safe	True	0.0	913	0	1.0	1.0	0.0	1	left	1.0	1.0	1.0	0	-0.08	blockFiles/set_53/main_safe/rightBlue\GB_RB_2.xlsx
34	main_safe	True	0.0	913	0	1.0	1.0	0.0	1	left	1.0	1.0	1.0	0	-0.08	blockFiles/set_53/main_safe/rightBlue\GB_RB_2.xlsx
35	main_safe	True	0.0	913	0	1.0	1.0	1.0	1	right	2.0	1.0	1.0	1	0.08	blockFiles/set_53/main_safe/rightBlue\GB_RB_2.xlsx
36	main_safe	True	0.0	913	0	1.0	1.0	0.0	1	left	1.0	1.0	1.0	0	-0.08	blockFiles/set_53/main_safe/rightBlue\GB_RB_2.xlsx
37	main_safe	True	0.0	913	0	1.0	1.0	0.0	1	left	1.0	1.0	1.0	0	-0.08	blockFiles/set_53/main_safe/rightBlue\GB_RB_2.xlsx
38	main_safe	True	0.0	913	0	1.0	1.0	1.0	1	right	2.0	1.0	1.0	1	0.08	blockFiles/set_53/main_safe/rightBlue\GB_RB_2.xlsx
39	main_safe	True	0.0	913	0	1.0	1.0	1.0	1	right	2.0	1.0	1.0	1	0.08	blockFiles/set_53/main_safe/rightBlue\GB_RB_2.xlsx
40	main_safe	True	0.0	913	0	1.0	1.0	0.0	1	left	1.0	0.0	1.0	0	-0.08	blockFiles/set_53/main_safe/rightBlue\GB_RB_2.xlsx
41	main_safe	True	0.0	913	0	1.0	1.0	1.0	1	right	2.0	1.0	1.0	1	0.08	blockFiles/set_53/main_safe/rightBlue\GB_RB_2.xlsx
42	main_safe	True	0.0	913	0	1.0	1.0	1.0	1	right	2.0	1.0	1.0	1	0.08	blockFiles/set_53/main_safe/rightBlue\GB_RB_2.xlsx
43	main_safe	True	0.0	913	0	1.0	1.0	0.0	1	left	1.0	0.0	1.0	0	-0.08	blockFiles/set_53/main_safe/rightBlue\GB_RB_2.xlsx
44	main_safe	True	0.0	913	0	1.0	1.0	1.0	1	right	2.0	1.0	1.0	1	0.08	blockFiles/set_53/main_safe/rightBlue\GB_RB_2.xlsx
45	main_safe	True	0.0	913	0	1.0	1.0	1.0	1	right	2.0	1.0	1.0	1	0.08	blockFiles/set_53/main_safe/rightBlue\GB_RB_2.xlsx
46	main_safe	True	0.0	913	0	1.0	1.0	0.0	1	left	1.0	1.0	1.0	0	-0.08	blockFiles/set_53/main_safe/rightBlue\GB_RB_2.xlsx
47	main_safe	True	0.0	913	0	1.0	1.0	0.0	1	left	1.0	1.0	1.0	0	-0.08	blockFiles/set_53/main_safe/rightBlue\GB_RB_2.xlsx
48	main_safe	True	0.0	913	0	1.0	1.0	0.0	1	left	1.0	0.0	1.0	0	-0.08	blockFiles/set_53/main_safe/rightBlue\GB_RB_2.xlsx
49	main_safe	True	0.0	913	0	1.0	1.0	0.0	1	left	1.0	1.0	1.0	0	-0.08	blockFiles/set_53/main_safe/rightBlue\GB_RB_2.xlsx
50	main_safe	True	0.0	913	0	2.0	2.0	0.0	1	left	1.0	0.0	0.0	0	-0.08	blockFiles/set_53/main_safe/leftBlue\GB_LB_3.xlsx
51	main_safe	True	0.0	913	0	2.0	2.0	0.0	1	left	2.0	1.0	1.0	0	-0.08	blockFiles/set_53/main_safe/leftBlue\GB_LB_3.xlsx
52	main_safe	True	0.0	913	0	2.0	2.0	0.0	1	left	2.0	1.0	1.0	0	-0.08	blockFiles/set_53/main_safe/leftBlue\GB_LB_3.xlsx
53	main_safe	True	0.0	913	0	2.0	2.0	0.0	1	left	2.0	1.0	1.0	0	-0.08	blockFiles/set_53/main_safe/leftBlue\GB_LB_3.xlsx
54	main_safe	True	0.0	913	0	2.0	2.0	1.0	1	right	1.0	1.0	1.0	1	0.08	blockFiles/set_53/main_safe/leftBlue\GB_LB_3.xlsx
55	main_safe	True	0.0	913	0	2.0	2.0	1.0	1	right	1.0	1.0	1.0	1	0.08	blockFiles/set_53/main_safe/leftBlue\GB_LB_3.xlsx
56	main_safe	True	0.0	913	0	2.0	2.0	0.0	1	left	2.0	1.0	1.0	0	-0.08	blockFiles/set_53/main_safe/leftBlue\GB_LB_3.xlsx
57	main_safe	True	0.0	913	0	2.0	2.0	1.0	1	right	1.0	1.0	1.0	1	0.08	blockFiles/set_53/main_safe/leftBlue\GB_LB_3.xlsx
58	main_safe	True	0.0	913	0	2.0	2.0	1.0	1	right	1.0	0.0	1.0	1	0.08	blockFiles/set_53/main_safe/leftBlue\GB_LB_3.xlsx
59	main_safe	True	0.0	913	0	2.0	2.0	1.0	1	right	1.0	1.0	1.0	1	0.08	blockFiles/set_53/main_safe/leftBlue\GB_LB_3.xlsx
60	main_safe	True	0.0	913	0	2.0	2.0	0.0	1	left	2.0	1.0	1.0	0	-0.08	blockFiles/set_53/main_safe/leftBlue\GB_LB_3.xlsx
61	main_safe	True	0.0	913	0	2.0	2.0	0.0	1	left	2.0	1.0	1.0	0	-0.08	blockFiles/set_53/main_safe/leftBlue\GB_LB_3.xlsx
62	main_safe	True	0.0	913	0	2.0	2.0	1.0	1	right	1.0	1.0	1.0	1	0.08	blockFiles/set_53/main_safe/leftBlue\GB_LB_3.xlsx
63	main_safe	True	0.0	913	0	2.0	2.0	0.0	1	left	2.0	1.0	1.0	0	-0.08	blockFiles/set_53/main_safe/leftBlue\GB_LB_3.xlsx
64	main_safe	True	0.0	913	0	2.0	2.0	1.0	1	right	1.0	1.0	1.0	1	0.08	blockFiles/set_53/main_safe/leftBlue\GB_LB_3.xlsx
65	main_safe	True	0.0	913	0	2.0	2.0	1.0	1	right	1.0	1.0	1.0	1	0.08	blockFiles/set_53/main_safe/leftBlue\GB_LB_3.xlsx
66	main_safe	True	0.0	913	0	2.0	2.0	0.0	1	left	2.0	0.0	1.0	0	-0.08	blockFiles/set_53/main_safe/leftBlue\GB_LB_3.xlsx
67	main_safe	True	0.0	913	0	2.0	2.0	0.0	1	left	2.0	1.0	1.0	0	-0.08	blockFiles/set_53/main_safe/leftBlue\GB_LB_3.xlsx
68	main_safe	True	0.0	913	0	2.0	2.0	0.0	1	left	2.0	0.0	1.0	0	-0.08	blockFiles/set_53/main_safe/leftBlue\GB_LB_3.xlsx
69	main_safe	True	0.0	913	0	2.0	2.0	0.0	1	left	2.0	1.0	1.0	0	-0.08	blockFiles/set_53/main_safe/leftBlue\GB_LB_3.xlsx
70	main_safe	True	0.0	913	0	2.0	2.0	1.0	1	right	1.0	1.0	1.0	1	0.08	blockFiles/set_53/main_safe/leftBlue\GB_LB_3.xlsx
71	main_safe	True	0.0	913	0	2.0	2.0	1.0	1	right	1.0	0.0	1.0	1	0.08	blockFiles/set_53/main_safe/leftBlue\GB_LB_3.xlsx
72	main_safe	True	0.0	913	0	2.0	2.0	0.0	1	left	2.0	0.0	1.0	0	-0.08	blockFiles/set_53/main_safe/leftBlue\GB_LB_3.xlsx
73	main_safe	True	0.0	913	0	2.0	2.0	1.0	1	right	1.0	1.0	1.0	1	0.08	blockFiles/set_53/main_safe/leftBlue\GB_LB_3.xlsx
74	main_safe	True	0.0	913	0	2.0	2.0	0.0	1	left	2.0	1.0	1.0	0	-0.08	blockFiles/set_53/main_safe/leftBlue\GB_LB_3.xlsx
75	main_safe	True	0.0	913	0	3.0	3.0	1.0	1	right	2.0	0.0	1.0	1	0.08	blockFiles/set_53/main_safe/rightBlue\GB_RB_1.xlsx
76	main_safe	True	0.0	913	0	3.0	3.0	1.0	1	right	1.0	0.0	0.0	1	0.08	blockFiles/set_53/main_safe/rightBlue\GB_RB_1.xlsx
77	main_safe	True	0.0	913	0	3.0	3.0	1.0	1	right	1.0	0.0	0.0	1	0.08	blockFiles/set_53/main_safe/rightBlue\GB_RB_1.xlsx
78	main_safe	True	0.0	913	0	3.0	3.0	0.0	1	left	1.0	1.0	1.0	0	-0.08	blockFiles/set_53/main_safe/rightBlue\GB_RB_1.xlsx
79	main_safe	True	0.0	913	0	3.0	3.0	0.0	1	left	1.0	1.0	1.0	0	-0.08	blockFiles/set_53/main_safe/rightBlue\GB_RB_1.xlsx
80	main_safe	True	0.0	913	0	3.0	3.0	1.0	1	right	2.0	1.0	1.0	1	0.08	blockFiles/set_53/main_safe/rightBlue\GB_RB_1.xlsx
81	main_safe	True	0.0	913	0	3.0	3.0	0.0	1	left	1.0	1.0	1.0	0	-0.08	blockFiles/set_53/main_safe/rightBlue\GB_RB_1.xlsx
82	main_safe	True	0.0	913	0	3.0	3.0	0.0	1	left	1.0	1.0	1.0	0	-0.08	blockFiles/set_53/main_safe/rightBlue\GB_RB_1.xlsx
83	main_safe	True	0.0	913	0	3.0	3.0	0.0	1	left	1.0	1.0	1.0	0	-0.08	blockFiles/set_53/main_safe/rightBlue\GB_RB_1.xlsx
84	main_safe	True	0.0	913	0	3.0	3.0	1.0	1	right	2.0	1.0	1.0	1	0.08	blockFiles/set_53/main_safe/rightBlue\GB_RB_1.xlsx
85	main_safe	True	0.0	913	0	3.0	3.0	0.0	1	left	1.0	1.0	1.0	0	-0.08	blockFiles/set_53/main_safe/rightBlue\GB_RB_1.xlsx
86	main_safe	True	0.0	913	0	3.0	3.0	1.0	1	right	2.0	0.0	1.0	1	0.08	blockFiles/set_53/main_safe/rightBlue\GB_RB_1.xlsx
87	main_safe	True	0.0	913	0	3.0	3.0	1.0	1	right	2.0	1.0	1.0	1	0.08	blockFiles/set_53/main_safe/rightBlue\GB_RB_1.xlsx
88	main_safe	True	0.0	913	0	3.0	3.0	1.0	1	right	2.0	1.0	1.0	1	0.08	blockFiles/set_53/main_safe/rightBlue\GB_RB_1.xlsx
89	main_safe	True	0.0	913	0	3.0	3.0	1.0	1	right	2.0	0.0	1.0	1	0.08	blockFiles/set_53/main_safe/rightBlue\GB_RB_1.xlsx
90	main_safe	True	0.0	913	0	3.0	3.0	1.0	1	right	2.0	1.0	1.0	1	0.08	blockFiles/set_53/main_safe/rightBlue\GB_RB_1.xlsx
91	main_safe	True	0.0	913	0	3.0	3.0	0.0	1	left	1.0	1.0	1.0	0	-0.08	blockFiles/set_53/main_safe/rightBlue\GB_RB_1.xlsx
92	main_safe	True	0.0	913	0	3.0	3.0	1.0	1	right	2.0	1.0	1.0	1	0.08	blockFiles/set_53/main_safe/rightBlue\GB_RB_1.xlsx
93	main_safe	True	0.0	913	0	3.0	3.0	1.0	1	right	2.0	0.0	1.0	1	0.08	blockFiles/set_53/main_safe/rightBlue\GB_RB_1.xlsx
94	main_safe	True	0.0	913	0	3.0	3.0	1.0	1	right	2.0	0.0	1.0	1	0.08	blockFiles/set_53/main_safe/rightBlue\GB_RB_1.xlsx
95	main_safe	True	0.0	913	0	3.0	3.0	0.0	1	left	1.0	1.0	1.0	0	-0.08	blockFiles/set_53/main_safe/rightBlue\GB_RB_1.xlsx
96	main_safe	True	0.0	913	0	3.0	3.0	0.0	1	left	1.0	1.0	1.0	0	-0.08	blockFiles/set_53/main_safe/rightBlue\GB_RB_1.xlsx
97	main_safe	True	0.0	913	0	3.0	3.0	0.0	1	left	1.0	0.0	1.0	0	-0.08	blockFiles/set_53/main_safe/rightBlue\GB_RB_1.xlsx
98	main_safe	True	0.0	913	0	3.0	3.0	1.0	1	right	2.0	1.0	1.0	1	0.08	blockFiles/set_53/main_safe/rightBlue\GB_RB_1.xlsx
99	main_safe	True	0.0	913	0	3.0	3.0	0.0	1	left	1.0	1.0	1.0	0	-0.08	blockFiles/set_53/main_safe/rightBlue\GB_RB_1.xlsx
100	main_safe	True	0.0	913	0	4.0	4.0	0.0	1	left	2.0	0.0	0.0	0	-0.08	blockFiles/set_53/main_safe/rightBlue\GB_RB_3.xlsx
101	main_safe	True	0.0	913	0	4.0	4.0	0.0	1	left	1.0	1.0	1.0	0	-0.08	blockFiles/set_53/main_safe/rightBlue\GB_RB_3.xlsx
102	main_safe	True	0.0	913	0	4.0	4.0	0.0	1	left	1.0	1.0	1.0	0	-0.08	blockFiles/set_53/main_safe/rightBlue\GB_RB_3.xlsx
103	main_safe	True	0.0	913	0	4.0	4.0	0.0	1	left	1.0	0.0	1.0	0	-0.08	blockFiles/set_53/main_safe/rightBlue\GB_RB_3.xlsx
104	main_safe	True	0.0	913	0	4.0	4.0	1.0	1	right	2.0	1.0	1.0	1	0.08	blockFiles/set_53/main_safe/rightBlue\GB_RB_3.xlsx
105	main_safe	True	0.0	913	0	4.0	4.0	1.0	1	right	2.0	1.0	1.0	1	0.08	blockFiles/set_53/main_safe/rightBlue\GB_RB_3.xlsx
106	main_safe	True	0.0	913	0	4.0	4.0	1.0	1	right	2.0	1.0	1.0	1	0.08	blockFiles/set_53/main_safe/rightBlue\GB_RB_3.xlsx
107	main_safe	True	0.0	913	0	4.0	4.0	0.0	1	left	1.0	0.0	1.0	0	-0.08	blockFiles/set_53/main_safe/rightBlue\GB_RB_3.xlsx
108	main_safe	True	0.0	913	0	4.0	4.0	0.0	1	left	1.0	0.0	1.0	0	-0.08	blockFiles/set_53/main_safe/rightBlue\GB_RB_3.xlsx
109	main_safe	True	0.0	913	0	4.0	4.0	0.0	1	left	1.0	1.0	1.0	0	-0.08	blockFiles/set_53/main_safe/rightBlue\GB_RB_3.xlsx
110	main_safe	True	0.0	913	0	4.0	4.0	0.0	1	left	1.0	1.0	1.0	0	-0.08	blockFiles/set_53/main_safe/rightBlue\GB_RB_3.xlsx
111	main_safe	True	0.0	913	0	4.0	4.0	1.0	1	right	2.0	0.0	1.0	1	0.08	blockFiles/set_53/main_safe/rightBlue\GB_RB_3.xlsx
112	main_safe	True	0.0	913	0	4.0	4.0	1.0	1	right	2.0	1.0	1.0	1	0.08	blockFiles/set_53/main_safe/rightBlue\GB_RB_3.xlsx
113	main_safe	True	0.0	913	0	4.0	4.0	1.0	1	right	2.0	1.0	1.0	1	0.08	blockFiles/set_53/main_safe/rightBlue\GB_RB_3.xlsx
114	main_safe	True	0.0	913	0	4.0	4.0	1.0	1	right	2.0	1.0	1.0	1	0.08	blockFiles/set_53/main_safe/rightBlue\GB_RB_3.xlsx
115	main_safe	True	0.0	913	0	4.0	4.0	1.0	1	right	2.0	1.0	1.0	1	0.08	blockFiles/set_53/main_safe/rightBlue\GB_RB_3.xlsx
116	main_safe	True	0.0	913	0	4.0	4.0	0.0	1	left	1.0	0.0	1.0	0	-0.08	blockFiles/set_53/main_safe/rightBlue\GB_RB_3.xlsx
117	main_safe	True	0.0	913	0	4.0	4.0	0.0	1	left	1.0	1.0	1.0	0	-0.08	blockFiles/set_53/main_safe/rightBlue\GB_RB_3.xlsx
118	main_safe	True	0.0	913	0	4.0	4.0	0.0	1	left	1.0	1.0	1.0	0	-0.08	blockFiles/set_53/main_safe/rightBlue\GB_RB_3.xlsx
119	main_safe	True	0.0	913	0	4.0	4.0	1.0	1	right	2.0	1.0	1.0	1	0.08	blockFiles/set_53/main_safe/rightBlue\GB_RB_3.xlsx
120	main_safe	True	0.0	913	0	4.0	4.0	0.0	1	left	1.0	1.0	1.0	0	-0.08	blockFiles/set_53/main_safe/rightBlue\GB_RB_3.xlsx
121	main_safe	True	0.0	913	0	4.0	4.0	1.0	1	right	2.0	1.0	1.0	1	0.08	blockFiles/set_53/main_safe/rightBlue\GB_RB_3.xlsx
122	main_safe	True	0.0	913	0	4.0	4.0	1.0	1	right	2.0	1.0	1.0	1	0.08	blockFiles/set_53/main_safe/rightBlue\GB_RB_3.xlsx
123	main_safe	True	0.0	913	0	4.0	4.0	0.0	1	left	1.0	0.0	1.0	0	-0.08	blockFiles/set_53/main_safe/rightBlue\GB_RB_3.xlsx
124	main_safe	True	0.0	913	0	4.0	4.0	1.0	1	right	2.0	1.0	1.0	1	0.08	blockFiles/set_53/main_safe/rightBlue\GB_RB_3.xlsx
125	main_safe	True	0.0	913	0	5.0	5.0	1.0	1	right	1.0	1.0	1.0	1	0.08	blockFiles/set_53/main_safe/leftBlue\GB_LB_2.xlsx
126	main_safe	True	0.0	913	0	5.0	5.0	1.0	1	right	1.0	1.0	1.0	1	0.08	blockFiles/set_53/main_safe/leftBlue\GB_LB_2.xlsx
127	main_safe	True	0.0	913	0	5.0	5.0	0.0	1	left	2.0	1.0	1.0	0	-0.08	blockFiles/set_53/main_safe/leftBlue\GB_LB_2.xlsx
128	main_safe	True	0.0	913	0	5.0	5.0	0.0	1	left	2.0	1.0	1.0	0	-0.08	blockFiles/set_53/main_safe/leftBlue\GB_LB_2.xlsx
129	main_safe	True	0.0	913	0	5.0	5.0	0.0	1	left	2.0	0.0	1.0	0	-0.08	blockFiles/set_53/main_safe/leftBlue\GB_LB_2.xlsx
130	main_safe	True	0.0	913	0	5.0	5.0	1.0	1	right	1.0	1.0	1.0	1	0.08	blockFiles/set_53/main_safe/leftBlue\GB_LB_2.xlsx
131	main_safe	True	0.0	913	0	5.0	5.0	1.0	1	right	1.0	1.0	1.0	1	0.08	blockFiles/set_53/main_safe/leftBlue\GB_LB_2.xlsx
132	main_safe	True	0.0	913	0	5.0	5.0	1.0	1	right	1.0	1.0	1.0	1	0.08	blockFiles/set_53/main_safe/leftBlue\GB_LB_2.xlsx
133	main_safe	True	0.0	913	0	5.0	5.0	1.0	1	right	1.0	1.0	1.0	1	0.08	blockFiles/set_53/main_safe/leftBlue\GB_LB_2.xlsx
134	main_safe	True	0.0	913	0	5.0	5.0	1.0	1	right	1.0	1.0	1.0	1	0.08	blockFiles/set_53/main_safe/leftBlue\GB_LB_2.xlsx
135	main_safe	True	0.0	913	0	5.0	5.0	1.0	1	right	1.0	1.0	1.0	1	0.08	blockFiles/set_53/main_safe/leftBlue\GB_LB_2.xlsx
136	main_safe	True	0.0	913	0	5.0	5.0	1.0	1	right	1.0	1.0	1.0	1	0.08	blockFiles/set_53/main_safe/leftBlue\GB_LB_2.xlsx
137	main_safe	True	0.0	913	0	5.0	5.0	0.0	1	left	2.0	1.0	1.0	0	-0.08	blockFiles/set_53/main_safe/leftBlue\GB_LB_2.xlsx
138	main_safe	True	0.0	913	0	5.0	5.0	0.0	1	left	2.0	0.0	1.0	0	-0.08	blockFiles/set_53/main_safe/leftBlue\GB_LB_2.xlsx
139	main_safe	True	0.0	913	0	5.0	5.0	0.0	1	left	2.0	1.0	1.0	0	-0.08	blockFiles/set_53/main_safe/leftBlue\GB_LB_2.xlsx
140	main_safe	True	0.0	913	0	5.0	5.0	0.0	1	left	2.0	1.0	1.0	0	-0.08	blockFiles/set_53/main_safe/leftBlue\GB_LB_2.xlsx
141	main_safe	True	0.0	913	0	5.0	5.0	0.0	1	left	2.0	1.0	1.0	0	-0.08	blockFiles/set_53/main_safe/leftBlue\GB_LB_2.xlsx
142	main_safe	True	0.0	913	0	5.0	5.0	1.0	1	right	1.0	0.0	1.0	1	0.08	blockFiles/set_53/main_safe/leftBlue\GB_LB_2.xlsx
143	main_safe	True	0.0	913	0	5.0	5.0	1.0	1	right	1.0	1.0	1.0	1	0.08	blockFiles/set_53/main_safe/leftBlue\GB_LB_2.xlsx
144	main_safe	True	0.0	913	0	5.0	5.0	0.0	1	left	2.0	0.0	1.0	0	-0.08	blockFiles/set_53/main_safe/leftBlue\GB_LB_2.xlsx
145	main_safe	True	0.0	913	0	5.0	5.0	1.0	1	right	1.0	1.0	1.0	1	0.08	blockFiles/set_53/main_safe/leftBlue\GB_LB_2.xlsx
146	main_safe	True	0.0	913	0	5.0	5.0	0.0	1	left	2.0	1.0	1.0	0	-0.08	blockFiles/set_53/main_safe/leftBlue\GB_LB_2.xlsx
147	main_safe	True	0.0	913	0	5.0	5.0	1.0	1	right	1.0	1.0	1.0	1	0.08	blockFiles/set_53/main_safe/leftBlue\GB_LB_2.xlsx
148	main_safe	True	0.0	913	0	5.0	5.0	0.0	1	left	2.0	1.0	1.0	0	-0.08	blockFiles/set_53/main_safe/leftBlue\GB_LB_2.xlsx
149	main_safe	True	0.0	913	0	5.0	5.0	0.0	1	left	2.0	1.0	1.0	0	-0.08	blockFiles/set_53/main_safe/leftBlue\GB_LB_2.xlsx
150	patches	True	n/a	913	0	n/a	n/a	1.0	0	right	n/a	n/a	n/a	0	-0.0364737579785	blockFiles/set_53/main_PD/GB_runPatches1.xlsx
151	patches	True	n/a	913	0	n/a	n/a	0.0	1	left	n/a	n/a	n/a	0	-0.0579102217406	blockFiles/set_53/main_PD/GB_runPatches1.xlsx
152	patches	True	n/a	913	0	n/a	n/a	0.0	1	left	n/a	n/a	n/a	0	-0.0396516109444	blockFiles/set_53/main_PD/GB_runPatches1.xlsx
153	patches	True	n/a	913	0	n/a	n/a	0.0	1	left	n/a	n/a	n/a	0	-0.011463212612999998	blockFiles/set_53/main_PD/GB_runPatches1.xlsx
154	patches	True	n/a	913	0	n/a	n/a	0.0	0	left	n/a	n/a	n/a	1	0.0358721157536	blockFiles/set_53/main_PD/GB_runPatches1.xlsx
155	patches	True	n/a	913	0	n/a	n/a	1.0	1	right	n/a	n/a	n/a	1	0.0326303310692	blockFiles/set_53/main_PD/GB_runPatches1.xlsx
156	patches	True	n/a	913	0	n/a	n/a	0.0	1	left	n/a	n/a	n/a	0	-0.0032996739633399997	blockFiles/set_53/main_PD/GB_runPatches1.xlsx
157	patches	True	n/a	913	0	n/a	n/a	1.0	1	right	n/a	n/a	n/a	1	0.0690734473243	blockFiles/set_53/main_PD/GB_runPatches1.xlsx
158	patches	True	n/a	913	0	n/a	n/a	1.0	1	right	n/a	n/a	n/a	1	0.0325295540132	blockFiles/set_53/main_PD/GB_runPatches1.xlsx
159	patches	True	n/a	913	0	n/a	n/a	1.0	1	right	n/a	n/a	n/a	1	0.0407361762971	blockFiles/set_53/main_PD/GB_runPatches1.xlsx
160	patches	True	n/a	913	0	n/a	n/a	1.0	1	right	n/a	n/a	n/a	1	0.07963568316769999	blockFiles/set_53/main_PD/GB_runPatches1.xlsx
161	patches	True	n/a	913	0	n/a	n/a	0.0	1	left	n/a	n/a	n/a	0	-0.0366264448315	blockFiles/set_53/main_PD/GB_runPatches1.xlsx
162	patches	True	n/a	913	0	n/a	n/a	0.0	1	left	n/a	n/a	n/a	0	-0.043949549906	blockFiles/set_53/main_PD/GB_runPatches1.xlsx
163	patches	True	n/a	913	0	n/a	n/a	0.0	0	left	n/a	n/a	n/a	1	0.007155433502050001	blockFiles/set_53/main_PD/GB_runPatches1.xlsx
164	patches	True	n/a	913	0	n/a	n/a	0.0	1	left	n/a	n/a	n/a	0	-0.060444214884199994	blockFiles/set_53/main_PD/GB_runPatches1.xlsx
165	patches	True	n/a	913	0	n/a	n/a	0.0	0	left	n/a	n/a	n/a	1	0.0042508569546000005	blockFiles/set_53/main_PD/GB_runPatches1.xlsx
166	patches	True	n/a	913	0	n/a	n/a	0.0	1	left	n/a	n/a	n/a	0	-0.046797472350300004	blockFiles/set_53/main_PD/GB_runPatches1.xlsx
167	patches	True	n/a	913	0	n/a	n/a	1.0	1	right	n/a	n/a	n/a	1	0.0157151827775	blockFiles/set_53/main_PD/GB_runPatches1.xlsx
168	patches	True	n/a	913	0	n/a	n/a	0.0	1	left	n/a	n/a	n/a	0	-0.0353938630782	blockFiles/set_53/main_PD/GB_runPatches1.xlsx
169	patches	True	n/a	913	0	n/a	n/a	1.0	1	right	n/a	n/a	n/a	1	0.0436022516899	blockFiles/set_53/main_PD/GB_runPatches1.xlsx
170	patches	True	n/a	913	0	n/a	n/a	1.0	1	right	n/a	n/a	n/a	1	0.0739737523533	blockFiles/set_53/main_PD/GB_runPatches1.xlsx
171	patches	True	n/a	913	0	n/a	n/a	0.0	1	left	n/a	n/a	n/a	0	-0.0410572193749	blockFiles/set_53/main_PD/GB_runPatches1.xlsx
172	patches	True	n/a	913	0	n/a	n/a	1.0	1	right	n/a	n/a	n/a	1	0.061542502995600004	blockFiles/set_53/main_PD/GB_runPatches1.xlsx
173	patches	True	n/a	913	0	n/a	n/a	0.0	0	left	n/a	n/a	n/a	1	0.013073027394700001	blockFiles/set_53/main_PD/GB_runPatches1.xlsx
174	patches	True	n/a	913	0	n/a	n/a	0.0	1	left	n/a	n/a	n/a	0	-0.060051472988	blockFiles/set_53/main_PD/GB_runPatches1.xlsx
175	patches	True	n/a	913	0	n/a	n/a	0.0	1	left	n/a	n/a	n/a	0	-0.015699280835700002	blockFiles/set_53/main_PD/GB_runPatches1.xlsx
176	patches	True	n/a	913	0	n/a	n/a	1.0	1	right	n/a	n/a	n/a	1	0.0364109117724	blockFiles/set_53/main_PD/GB_runPatches1.xlsx
177	patches	True	n/a	913	0	n/a	n/a	0.0	0	left	n/a	n/a	n/a	1	0.0342811798304	blockFiles/set_53/main_PD/GB_runPatches1.xlsx
178	patches	True	n/a	913	0	n/a	n/a	0.0	1	left	n/a	n/a	n/a	0	-0.019628522116700003	blockFiles/set_53/main_PD/GB_runPatches1.xlsx
179	patches	True	n/a	913	0	n/a	n/a	0.0	1	left	n/a	n/a	n/a	0	-0.0340119646862	blockFiles/set_53/main_PD/GB_runPatches1.xlsx
180	patches	True	n/a	913	0	n/a	n/a	1.0	1	right	n/a	n/a	n/a	1	0.0737921944074	blockFiles/set_53/main_PD/GB_runPatches1.xlsx
181	patches	True	n/a	913	0	n/a	n/a	0.0	0	left	n/a	n/a	n/a	1	0.00860302012414	blockFiles/set_53/main_PD/GB_runPatches1.xlsx
182	patches	True	n/a	913	0	n/a	n/a	1.0	1	right	n/a	n/a	n/a	1	0.07689752187580001	blockFiles/set_53/main_PD/GB_runPatches1.xlsx
183	patches	True	n/a	913	0	n/a	n/a	1.0	1	right	n/a	n/a	n/a	1	0.027186331525400002	blockFiles/set_53/main_PD/GB_runPatches1.xlsx
184	patches	True	n/a	913	0	n/a	n/a	0.0	0	left	n/a	n/a	n/a	1	0.00553248772398	blockFiles/set_53/main_PD/GB_runPatches1.xlsx
185	patches	True	n/a	913	0	n/a	n/a	0.0	0	left	n/a	n/a	n/a	1	0.0179329092056	blockFiles/set_53/main_PD/GB_runPatches1.xlsx
186	patches	True	n/a	913	0	n/a	n/a	0.0	1	left	n/a	n/a	n/a	0	-0.07198332868520001	blockFiles/set_53/main_PD/GB_runPatches1.xlsx
187	patches	True	n/a	913	0	n/a	n/a	1.0	1	right	n/a	n/a	n/a	1	0.0498549349047	blockFiles/set_53/main_PD/GB_runPatches1.xlsx
188	patches	True	n/a	913	0	n/a	n/a	0.0	1	left	n/a	n/a	n/a	0	-0.07473075710239999	blockFiles/set_53/main_PD/GB_runPatches1.xlsx
189	patches	True	n/a	913	0	n/a	n/a	0.0	1	left	n/a	n/a	n/a	0	-0.029411983154700002	blockFiles/set_53/main_PD/GB_runPatches1.xlsx
190	patches	True	n/a	913	0	n/a	n/a	1.0	1	right	n/a	n/a	n/a	1	0.00732950631529	blockFiles/set_53/main_PD/GB_runPatches1.xlsx
191	patches	True	n/a	913	0	n/a	n/a	1.0	1	right	n/a	n/a	n/a	1	0.0449076819979	blockFiles/set_53/main_PD/GB_runPatches1.xlsx
192	patches	True	n/a	913	0	n/a	n/a	0.0	1	left	n/a	n/a	n/a	0	-0.0349016406015	blockFiles/set_53/main_PD/GB_runPatches1.xlsx
193	patches	True	n/a	913	0	n/a	n/a	0.0	1	left	n/a	n/a	n/a	0	-0.057411148026599995	blockFiles/set_53/main_PD/GB_runPatches1.xlsx
194	patches	True	n/a	913	0	n/a	n/a	1.0	1	right	n/a	n/a	n/a	1	0.058308149036	blockFiles/set_53/main_PD/GB_runPatches1.xlsx
195	patches	True	n/a	913	0	n/a	n/a	0.0	1	left	n/a	n/a	n/a	0	-0.0598710946739	blockFiles/set_53/main_PD/GB_runPatches1.xlsx
196	patches	True	n/a	913	0	n/a	n/a	0.0	1	left	n/a	n/a	n/a	0	-0.012675590422	blockFiles/set_53/main_PD/GB_runPatches1.xlsx
197	patches	True	n/a	913	0	n/a	n/a	1.0	1	right	n/a	n/a	n/a	1	0.039267905708400004	blockFiles/set_53/main_PD/GB_runPatches1.xlsx
198	patches	True	n/a	913	0	n/a	n/a	1.0	1	right	n/a	n/a	n/a	1	0.0643938540667	blockFiles/set_53/main_PD/GB_runPatches1.xlsx
199	patches	True	n/a	913	0	n/a	n/a	0.0	0	left	n/a	n/a	n/a	1	0.0424734091572	blockFiles/set_53/main_PD/GB_runPatches1.xlsx
200	patches	True	n/a	913	0	n/a	n/a	0.0	1	left	n/a	n/a	n/a	0	-0.0236445488594	blockFiles/set_53/main_PD/GB_runPatches1.xlsx
201	patches	True	n/a	913	0	n/a	n/a	1.0	1	right	n/a	n/a	n/a	1	0.0245597464964	blockFiles/set_53/main_PD/GB_runPatches1.xlsx
202	patches	True	n/a	913	0	n/a	n/a	0.0	1	left	n/a	n/a	n/a	0	-0.031562983878	blockFiles/set_53/main_PD/GB_runPatches1.xlsx
203	patches	True	n/a	913	0	n/a	n/a	1.0	1	right	n/a	n/a	n/a	1	0.04592938611280001	blockFiles/set_53/main_PD/GB_runPatches1.xlsx
204	patches	True	n/a	913	0	n/a	n/a	0.0	1	left	n/a	n/a	n/a	0	-0.0399247138761	blockFiles/set_53/main_PD/GB_runPatches1.xlsx
205	patches	True	n/a	913	0	n/a	n/a	0.0	1	left	n/a	n/a	n/a	0	-0.057164646592	blockFiles/set_53/main_PD/GB_runPatches1.xlsx
206	patches	True	n/a	913	0	n/a	n/a	0.0	0	left	n/a	n/a	n/a	1	0.006747717484829999	blockFiles/set_53/main_PD/GB_runPatches1.xlsx
207	patches	True	n/a	913	0	n/a	n/a	0.0	1	left	n/a	n/a	n/a	0	-0.0336756839417	blockFiles/set_53/main_PD/GB_runPatches1.xlsx
208	patches	True	n/a	913	0	n/a	n/a	1.0	1	right	n/a	n/a	n/a	1	0.0571026955731	blockFiles/set_53/main_PD/GB_runPatches1.xlsx
209	patches	True	n/a	913	0	n/a	n/a	1.0	1	right	n/a	n/a	n/a	1	0.0646570207737	blockFiles/set_53/main_PD/GB_runPatches1.xlsx
210	patches	True	n/a	913	0	n/a	n/a	0.0	1	left	n/a	n/a	n/a	0	-0.031165113560900005	blockFiles/set_53/main_PD/GB_runPatches1.xlsx
211	patches	True	n/a	913	0	n/a	n/a	1.0	1	right	n/a	n/a	n/a	1	0.0319939864613	blockFiles/set_53/main_PD/GB_runPatches1.xlsx
212	patches	True	n/a	913	0	n/a	n/a	0.0	1	left	n/a	n/a	n/a	0	-0.0442311018705	blockFiles/set_53/main_PD/GB_runPatches1.xlsx
213	patches	True	n/a	913	0	n/a	n/a	0.0	0	left	n/a	n/a	n/a	1	0.00411145843565	blockFiles/set_53/main_PD/GB_runPatches1.xlsx
214	patches	True	n/a	913	0	n/a	n/a	0.0	1	left	n/a	n/a	n/a	0	-0.0396976074204	blockFiles/set_53/main_PD/GB_runPatches1.xlsx
215	patches	True	n/a	913	0	n/a	n/a	0.0	0	left	n/a	n/a	n/a	1	0.05108237668869999	blockFiles/set_53/main_PD/GB_runPatches1.xlsx
216	patches	True	n/a	913	0	n/a	n/a	0.0	0	left	n/a	n/a	n/a	1	0.054146831035599995	blockFiles/set_53/main_PD/GB_runPatches1.xlsx
217	patches	True	n/a	913	0	n/a	n/a	0.0	1	left	n/a	n/a	n/a	0	-0.0455626028404	blockFiles/set_53/main_PD/GB_runPatches1.xlsx
218	patches	True	n/a	913	0	n/a	n/a	0.0	1	left	n/a	n/a	n/a	0	-0.0520196964964	blockFiles/set_53/main_PD/GB_runPatches1.xlsx
219	patches	True	n/a	913	0	n/a	n/a	1.0	1	right	n/a	n/a	n/a	1	0.072986293342	blockFiles/set_53/main_PD/GB_runPatches1.xlsx
220	patches	True	n/a	913	0	n/a	n/a	1.0	1	right	n/a	n/a	n/a	1	0.0163388987072	blockFiles/set_53/main_PD/GB_runPatches1.xlsx
221	patches	True	n/a	913	0	n/a	n/a	0.0	1	left	n/a	n/a	n/a	0	-0.05721999816599999	blockFiles/set_53/main_PD/GB_runPatches1.xlsx
222	patches	True	n/a	913	0	n/a	n/a	1.0	1	right	n/a	n/a	n/a	1	0.0197780564427	blockFiles/set_53/main_PD/GB_runPatches1.xlsx
223	patches	True	n/a	913	0	n/a	n/a	0.0	1	left	n/a	n/a	n/a	0	-0.014912782441799999	blockFiles/set_53/main_PD/GB_runPatches1.xlsx
224	patches	True	n/a	913	0	n/a	n/a	0.0	1	left	n/a	n/a	n/a	0	-0.0184922341071	blockFiles/set_53/main_PD/GB_runPatches1.xlsx
225	patches	True	n/a	913	0	n/a	n/a	0.0	1	left	n/a	n/a	n/a	0	-0.030593658946500003	blockFiles/set_53/main_PD/GB_runPatches1.xlsx
226	patches	True	n/a	913	0	n/a	n/a	1.0	1	right	n/a	n/a	n/a	1	0.0504958475195	blockFiles/set_53/main_PD/GB_runPatches1.xlsx
227	patches	True	n/a	913	0	n/a	n/a	0.0	1	left	n/a	n/a	n/a	0	-0.0710554709099	blockFiles/set_53/main_PD/GB_runPatches1.xlsx
228	patches	True	n/a	913	0	n/a	n/a	0.0	1	left	n/a	n/a	n/a	0	-0.0494100586511	blockFiles/set_53/main_PD/GB_runPatches1.xlsx
229	patches	True	n/a	913	0	n/a	n/a	0.0	1	left	n/a	n/a	n/a	0	-0.07016384068880001	blockFiles/set_53/main_PD/GB_runPatches1.xlsx
230	patches	True	n/a	913	0	n/a	n/a	1.0	0	right	n/a	n/a	n/a	0	-0.00278405776247	blockFiles/set_53/main_PD/GB_runPatches1.xlsx
231	patches	True	n/a	913	0	n/a	n/a	1.0	1	right	n/a	n/a	n/a	1	0.0764734730683	blockFiles/set_53/main_PD/GB_runPatches1.xlsx
232	patches	True	n/a	913	0	n/a	n/a	0.0	0	left	n/a	n/a	n/a	1	0.019590657409299998	blockFiles/set_53/main_PD/GB_runPatches1.xlsx
233	patches	True	n/a	913	0	n/a	n/a	0.0	1	left	n/a	n/a	n/a	0	-0.0110002186708	blockFiles/set_53/main_PD/GB_runPatches1.xlsx
234	patches	True	n/a	913	0	n/a	n/a	1.0	1	right	n/a	n/a	n/a	1	0.0291394270957	blockFiles/set_53/main_PD/GB_runPatches1.xlsx
235	patches	True	n/a	913	0	n/a	n/a	1.0	1	right	n/a	n/a	n/a	1	0.0612747592665	blockFiles/set_53/main_PD/GB_runPatches1.xlsx
236	patches	True	n/a	913	0	n/a	n/a	0.0	1	left	n/a	n/a	n/a	0	-0.069790623989	blockFiles/set_53/main_PD/GB_runPatches1.xlsx
237	patches	True	n/a	913	0	n/a	n/a	0.0	0	left	n/a	n/a	n/a	1	0.0104551219009	blockFiles/set_53/main_PD/GB_runPatches1.xlsx
238	patches	True	n/a	913	0	n/a	n/a	0.0	0	left	n/a	n/a	n/a	1	0.05846212090919999	blockFiles/set_53/main_PD/GB_runPatches1.xlsx
239	patches	True	n/a	913	0	n/a	n/a	1.0	1	right	n/a	n/a	n/a	1	0.0677802252956	blockFiles/set_53/main_PD/GB_runPatches1.xlsx
240	patches	True	n/a	913	0	n/a	n/a	1.0	0	right	n/a	n/a	n/a	0	-0.0154622786306	blockFiles/set_53/main_PD/GB_runPatches1.xlsx
241	patches	True	n/a	913	0	n/a	n/a	0.0	1	left	n/a	n/a	n/a	0	-0.040148464720699995	blockFiles/set_53/main_PD/GB_runPatches1.xlsx
242	patches	True	n/a	913	0	n/a	n/a	0.0	1	left	n/a	n/a	n/a	0	-0.0662739755958	blockFiles/set_53/main_PD/GB_runPatches1.xlsx
243	patches	True	n/a	913	0	n/a	n/a	1.0	0	right	n/a	n/a	n/a	0	-0.0019685715250699998	blockFiles/set_53/main_PD/GB_runPatches1.xlsx
244	patches	True	n/a	913	0	n/a	n/a	0.0	1	left	n/a	n/a	n/a	0	-0.0523192804679	blockFiles/set_53/main_PD/GB_runPatches1.xlsx
245	patches	True	n/a	913	0	n/a	n/a	1.0	1	right	n/a	n/a	n/a	1	0.0633154891245	blockFiles/set_53/main_PD/GB_runPatches1.xlsx
246	patches	True	n/a	913	0	n/a	n/a	0.0	1	left	n/a	n/a	n/a	0	-0.024641402978500003	blockFiles/set_53/main_PD/GB_runPatches1.xlsx
247	patches	True	n/a	913	0	n/a	n/a	0.0	1	left	n/a	n/a	n/a	0	-0.04895471448080001	blockFiles/set_53/main_PD/GB_runPatches1.xlsx
248	patches	True	n/a	913	0	n/a	n/a	0.0	1	left	n/a	n/a	n/a	0	-0.0161044134945	blockFiles/set_53/main_PD/GB_runPatches1.xlsx
249	patches	True	n/a	913	0	n/a	n/a	1.0	1	right	n/a	n/a	n/a	1	0.025480736233299998	blockFiles/set_53/main_PD/GB_runPatches1.xlsx
250	main_unc	True	0.0	913	0	0.0	0.0	0.0	1	left	1.0	0.0	0.0	0	-0.0652872944809	blockFiles/set_53/main_unc/leftBlue\GB_LB_1.xlsx
251	main_unc	True	0.0	913	0	0.0	0.0	0.0	0	left	2.0	0.0	0.0	1	0.0038403203152100004	blockFiles/set_53/main_unc/leftBlue\GB_LB_1.xlsx
252	main_unc	True	0.0	913	0	0.0	0.0	1.0	1	right	1.0	0.0	1.0	1	0.034767291210599995	blockFiles/set_53/main_unc/leftBlue\GB_LB_1.xlsx
253	main_unc	True	0.0	913	0	0.0	0.0	0.0	1	left	1.0	0.0	0.0	0	-0.07463336924089999	blockFiles/set_53/main_unc/leftBlue\GB_LB_1.xlsx
254	main_unc	True	0.0	913	0	0.0	0.0	0.0	1	left	2.0	1.0	1.0	0	-0.0321035004966	blockFiles/set_53/main_unc/leftBlue\GB_LB_1.xlsx
255	main_unc	True	0.0	913	0	0.0	0.0	0.0	0	left	1.0	1.0	1.0	1	0.0146019838192	blockFiles/set_53/main_unc/leftBlue\GB_LB_1.xlsx
256	main_unc	True	0.0	913	0	0.0	0.0	1.0	1	right	1.0	0.0	1.0	1	0.021749120466400002	blockFiles/set_53/main_unc/leftBlue\GB_LB_1.xlsx
257	main_unc	True	0.0	913	0	0.0	0.0	0.0	1	left	2.0	1.0	1.0	0	-0.06350905759259999	blockFiles/set_53/main_unc/leftBlue\GB_LB_1.xlsx
258	main_unc	True	0.0	913	0	0.0	0.0	1.0	1	right	1.0	1.0	1.0	1	0.0149322212115	blockFiles/set_53/main_unc/leftBlue\GB_LB_1.xlsx
259	main_unc	True	0.0	913	0	0.0	0.0	1.0	1	right	1.0	1.0	1.0	1	0.0610516356304	blockFiles/set_53/main_unc/leftBlue\GB_LB_1.xlsx
260	main_unc	True	0.0	913	0	0.0	0.0	1.0	1	right	1.0	1.0	1.0	1	0.0778503562696	blockFiles/set_53/main_unc/leftBlue\GB_LB_1.xlsx
261	main_unc	True	0.0	913	0	0.0	0.0	0.0	1	left	2.0	1.0	1.0	0	-0.03586084194480001	blockFiles/set_53/main_unc/leftBlue\GB_LB_1.xlsx
262	main_unc	True	0.0	913	0	0.0	0.0	0.0	1	left	2.0	1.0	1.0	0	-0.0165504405461	blockFiles/set_53/main_unc/leftBlue\GB_LB_1.xlsx
263	main_unc	True	0.0	913	0	0.0	0.0	0.0	0	left	2.0	0.0	0.0	1	0.0163319443911	blockFiles/set_53/main_unc/leftBlue\GB_LB_1.xlsx
264	main_unc	True	0.0	913	0	0.0	0.0	1.0	0	right	2.0	1.0	1.0	0	-0.0322599846125	blockFiles/set_53/main_unc/leftBlue\GB_LB_1.xlsx
265	main_unc	True	0.0	913	0	0.0	0.0	1.0	1	right	1.0	1.0	1.0	1	0.06876582693310002	blockFiles/set_53/main_unc/leftBlue\GB_LB_1.xlsx
266	main_unc	True	0.0	913	0	0.0	0.0	0.0	1	left	2.0	0.0	1.0	0	-0.0428073056415	blockFiles/set_53/main_unc/leftBlue\GB_LB_1.xlsx
267	main_unc	True	0.0	913	0	0.0	0.0	0.0	1	left	2.0	1.0	1.0	0	-0.05733823744580001	blockFiles/set_53/main_unc/leftBlue\GB_LB_1.xlsx
268	main_unc	True	0.0	913	0	0.0	0.0	1.0	1	right	1.0	1.0	1.0	1	0.0414054800943	blockFiles/set_53/main_unc/leftBlue\GB_LB_1.xlsx
269	main_unc	True	0.0	913	0	0.0	0.0	0.0	0	left	1.0	1.0	1.0	1	0.0021545283310100004	blockFiles/set_53/main_unc/leftBlue\GB_LB_1.xlsx
270	main_unc	True	0.0	913	0	0.0	0.0	0.0	1	left	2.0	1.0	1.0	0	-0.075997225251	blockFiles/set_53/main_unc/leftBlue\GB_LB_1.xlsx
271	main_unc	True	0.0	913	0	0.0	0.0	0.0	1	left	2.0	0.0	1.0	0	-0.0573780398257	blockFiles/set_53/main_unc/leftBlue\GB_LB_1.xlsx
272	main_unc	True	0.0	913	0	0.0	0.0	1.0	0	right	2.0	1.0	1.0	0	-0.00200185393915	blockFiles/set_53/main_unc/leftBlue\GB_LB_1.xlsx
273	main_unc	True	0.0	913	0	0.0	0.0	1.0	1	right	1.0	0.0	1.0	1	0.026252550128799998	blockFiles/set_53/main_unc/leftBlue\GB_LB_1.xlsx
274	main_unc	True	0.0	913	0	0.0	0.0	1.0	1	right	1.0	0.0	1.0	1	0.047070814166199994	blockFiles/set_53/main_unc/leftBlue\GB_LB_1.xlsx
275	main_unc	True	0.0	913	0	1.0	1.0	1.0	1	right	2.0	0.0	0.0	1	0.0520547713153	blockFiles/set_53/main_unc/leftBlue\GB_LB_6.xlsx
276	main_unc	True	0.0	913	0	1.0	1.0	1.0	1	right	2.0	0.0	0.0	1	0.029190021119999996	blockFiles/set_53/main_unc/leftBlue\GB_LB_6.xlsx
277	main_unc	True	0.0	913	0	1.0	1.0	1.0	1	right	1.0	1.0	1.0	1	0.050412024166400005	blockFiles/set_53/main_unc/leftBlue\GB_LB_6.xlsx
278	main_unc	True	0.0	913	0	1.0	1.0	0.0	1	left	2.0	1.0	1.0	0	-0.054861305281499996	blockFiles/set_53/main_unc/leftBlue\GB_LB_6.xlsx
279	main_unc	True	0.0	913	0	1.0	1.0	1.0	1	right	1.0	1.0	1.0	1	0.00755317509174	blockFiles/set_53/main_unc/leftBlue\GB_LB_6.xlsx
280	main_unc	True	0.0	913	0	1.0	1.0	0.0	1	left	2.0	1.0	1.0	0	-0.020143612083	blockFiles/set_53/main_unc/leftBlue\GB_LB_6.xlsx
281	main_unc	True	0.0	913	0	1.0	1.0	0.0	1	left	2.0	1.0	1.0	0	-0.029793154243400004	blockFiles/set_53/main_unc/leftBlue\GB_LB_6.xlsx
282	main_unc	True	0.0	913	0	1.0	1.0	1.0	1	right	1.0	1.0	1.0	1	0.0676737316884	blockFiles/set_53/main_unc/leftBlue\GB_LB_6.xlsx
283	main_unc	True	0.0	913	0	1.0	1.0	0.0	1	left	2.0	1.0	1.0	0	-0.0184726265632	blockFiles/set_53/main_unc/leftBlue\GB_LB_6.xlsx
284	main_unc	True	0.0	913	0	1.0	1.0	0.0	1	left	2.0	1.0	1.0	0	-0.041749279033400005	blockFiles/set_53/main_unc/leftBlue\GB_LB_6.xlsx
285	main_unc	True	0.0	913	0	1.0	1.0	0.0	1	left	2.0	1.0	1.0	0	-0.0684747305699	blockFiles/set_53/main_unc/leftBlue\GB_LB_6.xlsx
286	main_unc	True	0.0	913	0	1.0	1.0	1.0	1	right	1.0	1.0	1.0	1	0.072852267921	blockFiles/set_53/main_unc/leftBlue\GB_LB_6.xlsx
287	main_unc	True	0.0	913	0	1.0	1.0	1.0	1	right	1.0	0.0	1.0	1	0.025781347993799997	blockFiles/set_53/main_unc/leftBlue\GB_LB_6.xlsx
288	main_unc	True	0.0	913	0	1.0	1.0	1.0	1	right	1.0	1.0	1.0	1	0.0398766612075	blockFiles/set_53/main_unc/leftBlue\GB_LB_6.xlsx
289	main_unc	True	0.0	913	0	1.0	1.0	1.0	0	right	1.0	0.0	0.0	0	-0.0010364644415700001	blockFiles/set_53/main_unc/leftBlue\GB_LB_6.xlsx
290	main_unc	True	0.0	913	0	1.0	1.0	1.0	0	right	2.0	1.0	1.0	0	-0.0255443989672	blockFiles/set_53/main_unc/leftBlue\GB_LB_6.xlsx
291	main_unc	True	0.0	913	0	1.0	1.0	0.0	1	left	2.0	1.0	1.0	0	-0.0550850015692	blockFiles/set_53/main_unc/leftBlue\GB_LB_6.xlsx
292	main_unc	True	0.0	913	0	1.0	1.0	0.0	1	left	2.0	0.0	1.0	0	-0.041014844831099996	blockFiles/set_53/main_unc/leftBlue\GB_LB_6.xlsx
293	main_unc	True	0.0	913	0	1.0	1.0	1.0	1	right	1.0	1.0	1.0	1	0.0408172934502	blockFiles/set_53/main_unc/leftBlue\GB_LB_6.xlsx
294	main_unc	True	0.0	913	0	1.0	1.0	1.0	1	right	1.0	0.0	1.0	1	0.05893505673859999	blockFiles/set_53/main_unc/leftBlue\GB_LB_6.xlsx
295	main_unc	True	0.0	913	0	1.0	1.0	1.0	1	right	1.0	0.0	1.0	1	0.058283580746499995	blockFiles/set_53/main_unc/leftBlue\GB_LB_6.xlsx
296	main_unc	True	0.0	913	0	1.0	1.0	1.0	1	right	1.0	1.0	1.0	1	0.0740937691368	blockFiles/set_53/main_unc/leftBlue\GB_LB_6.xlsx
297	main_unc	True	0.0	913	0	1.0	1.0	0.0	1	left	2.0	1.0	1.0	0	-0.0111329527758	blockFiles/set_53/main_unc/leftBlue\GB_LB_6.xlsx
298	main_unc	True	0.0	913	0	1.0	1.0	0.0	1	left	2.0	0.0	1.0	0	-0.005561605710539999	blockFiles/set_53/main_unc/leftBlue\GB_LB_6.xlsx
299	main_unc	True	0.0	913	0	1.0	1.0	0.0	1	left	2.0	1.0	1.0	0	-0.0699173422903	blockFiles/set_53/main_unc/leftBlue\GB_LB_6.xlsx
300	main_unc	True	0.0	913	0	2.0	2.0	0.0	0	left	1.0	0.0	1.0	1	0.0261173562706	blockFiles/set_53/main_unc/leftBlue\GB_LB_3.xlsx
301	main_unc	True	0.0	913	0	2.0	2.0	1.0	1	right	1.0	1.0	1.0	1	0.049950953219099994	blockFiles/set_53/main_unc/leftBlue\GB_LB_3.xlsx
302	main_unc	True	0.0	913	0	2.0	2.0	1.0	1	right	1.0	0.0	1.0	1	0.0142074595951	blockFiles/set_53/main_unc/leftBlue\GB_LB_3.xlsx
303	main_unc	True	0.0	913	0	2.0	2.0	0.0	1	left	2.0	1.0	1.0	0	-0.019834332354400002	blockFiles/set_53/main_unc/leftBlue\GB_LB_3.xlsx
304	main_unc	True	0.0	913	0	2.0	2.0	1.0	1	right	1.0	1.0	1.0	1	0.0426125818305	blockFiles/set_53/main_unc/leftBlue\GB_LB_3.xlsx
305	main_unc	True	0.0	913	0	2.0	2.0	1.0	1	right	1.0	1.0	1.0	1	0.06145452138040001	blockFiles/set_53/main_unc/leftBlue\GB_LB_3.xlsx
306	main_unc	True	0.0	913	0	2.0	2.0	0.0	1	left	2.0	1.0	1.0	0	-0.0239797085337	blockFiles/set_53/main_unc/leftBlue\GB_LB_3.xlsx
307	main_unc	True	0.0	913	0	2.0	2.0	0.0	1	left	2.0	1.0	1.0	0	-0.06906072601680001	blockFiles/set_53/main_unc/leftBlue\GB_LB_3.xlsx
308	main_unc	True	0.0	913	0	2.0	2.0	0.0	1	left	2.0	1.0	1.0	0	-0.0591926798224	blockFiles/set_53/main_unc/leftBlue\GB_LB_3.xlsx
309	main_unc	True	0.0	913	0	2.0	2.0	0.0	1	left	2.0	1.0	1.0	0	-0.0627751803026	blockFiles/set_53/main_unc/leftBlue\GB_LB_3.xlsx
310	main_unc	True	0.0	913	0	2.0	2.0	0.0	1	left	2.0	1.0	1.0	0	-0.0425589830242	blockFiles/set_53/main_unc/leftBlue\GB_LB_3.xlsx
311	main_unc	True	0.0	913	0	2.0	2.0	0.0	1	left	2.0	0.0	1.0	0	-0.0036157482303699998	blockFiles/set_53/main_unc/leftBlue\GB_LB_3.xlsx
312	main_unc	True	1.0	913	0	2.0	2.0	n/a	0	None	n/a	0.0	n/a	1	0.0660101468302	blockFiles/set_53/main_unc/leftBlue\GB_LB_3.xlsx
313	main_unc	True	0.0	913	0	2.0	2.0	1.0	1	right	1.0	1.0	1.0	1	0.049144603125800004	blockFiles/set_53/main_unc/leftBlue\GB_LB_3.xlsx
314	main_unc	True	0.0	913	0	2.0	2.0	1.0	1	right	2.0	0.0	0.0	1	0.0008985068090259999	blockFiles/set_53/main_unc/leftBlue\GB_LB_3.xlsx
315	main_unc	True	0.0	913	0	2.0	2.0	1.0	1	right	1.0	1.0	1.0	1	0.0710407249629	blockFiles/set_53/main_unc/leftBlue\GB_LB_3.xlsx
316	main_unc	True	0.0	913	0	2.0	2.0	0.0	1	left	2.0	1.0	1.0	0	-0.07541019756350001	blockFiles/set_53/main_unc/leftBlue\GB_LB_3.xlsx
317	main_unc	True	0.0	913	0	2.0	2.0	0.0	1	left	2.0	1.0	1.0	0	-0.039354152586300005	blockFiles/set_53/main_unc/leftBlue\GB_LB_3.xlsx
318	main_unc	True	0.0	913	0	2.0	2.0	0.0	1	left	2.0	1.0	1.0	0	-0.0394132546708	blockFiles/set_53/main_unc/leftBlue\GB_LB_3.xlsx
319	main_unc	True	0.0	913	0	2.0	2.0	0.0	1	left	2.0	0.0	1.0	0	-0.0439772384241	blockFiles/set_53/main_unc/leftBlue\GB_LB_3.xlsx
320	main_unc	True	0.0	913	0	2.0	2.0	0.0	1	left	2.0	1.0	1.0	0	-0.07899826601149999	blockFiles/set_53/main_unc/leftBlue\GB_LB_3.xlsx
321	main_unc	True	0.0	913	0	2.0	2.0	1.0	1	right	1.0	1.0	1.0	1	0.0190800864622	blockFiles/set_53/main_unc/leftBlue\GB_LB_3.xlsx
322	main_unc	True	0.0	913	0	2.0	2.0	1.0	0	right	2.0	0.0	1.0	0	-0.017116120662499998	blockFiles/set_53/main_unc/leftBlue\GB_LB_3.xlsx
323	main_unc	True	0.0	913	0	2.0	2.0	1.0	1	right	2.0	0.0	0.0	1	0.0575128079206	blockFiles/set_53/main_unc/leftBlue\GB_LB_3.xlsx
324	main_unc	True	0.0	913	0	2.0	2.0	0.0	0	left	2.0	0.0	0.0	1	0.000747394841164	blockFiles/set_53/main_unc/leftBlue\GB_LB_3.xlsx
325	main_unc	True	0.0	913	0	2.0	2.0	1.0	1	right	1.0	1.0	1.0	1	0.0660101468302	blockFiles/set_53/main_unc/leftBlue\GB_LB_3.xlsx
326	main_unc	True	0.0	913	0	3.0	3.0	1.0	1	right	2.0	1.0	1.0	1	0.0468826014735	blockFiles/set_53/main_unc/rightBlue\GB_RB_1.xlsx
327	main_unc	True	0.0	913	0	3.0	3.0	0.0	1	left	1.0	1.0	1.0	0	-0.0706517229043	blockFiles/set_53/main_unc/rightBlue\GB_RB_1.xlsx
328	main_unc	True	0.0	913	0	3.0	3.0	0.0	1	left	1.0	0.0	1.0	0	-0.0538189376146	blockFiles/set_53/main_unc/rightBlue\GB_RB_1.xlsx
329	main_unc	True	0.0	913	0	3.0	3.0	0.0	1	left	1.0	1.0	1.0	0	-0.0383326958679	blockFiles/set_53/main_unc/rightBlue\GB_RB_1.xlsx
330	main_unc	True	0.0	913	0	3.0	3.0	0.0	1	left	1.0	1.0	1.0	0	-0.042561704516400005	blockFiles/set_53/main_unc/rightBlue\GB_RB_1.xlsx
331	main_unc	True	0.0	913	0	3.0	3.0	1.0	1	right	2.0	1.0	1.0	1	0.00914925411344	blockFiles/set_53/main_unc/rightBlue\GB_RB_1.xlsx
332	main_unc	True	0.0	913	0	3.0	3.0	1.0	0	right	1.0	1.0	1.0	0	-0.015200023464899999	blockFiles/set_53/main_unc/rightBlue\GB_RB_1.xlsx
333	main_unc	True	0.0	913	0	3.0	3.0	1.0	1	right	2.0	1.0	1.0	1	0.042640966773	blockFiles/set_53/main_unc/rightBlue\GB_RB_1.xlsx
334	main_unc	True	0.0	913	0	3.0	3.0	0.0	1	left	1.0	1.0	1.0	0	-0.034493405353300005	blockFiles/set_53/main_unc/rightBlue\GB_RB_1.xlsx
335	main_unc	True	0.0	913	0	3.0	3.0	0.0	1	left	2.0	0.0	0.0	0	-0.0120437830314	blockFiles/set_53/main_unc/rightBlue\GB_RB_1.xlsx
336	main_unc	True	0.0	913	0	3.0	3.0	0.0	1	left	1.0	1.0	1.0	0	-0.0649236860871	blockFiles/set_53/main_unc/rightBlue\GB_RB_1.xlsx
337	main_unc	True	0.0	913	0	3.0	3.0	1.0	1	right	2.0	1.0	1.0	1	0.0267999254912	blockFiles/set_53/main_unc/rightBlue\GB_RB_1.xlsx
338	main_unc	True	0.0	913	0	3.0	3.0	1.0	1	right	2.0	1.0	1.0	1	0.0410092844628	blockFiles/set_53/main_unc/rightBlue\GB_RB_1.xlsx
339	main_unc	True	0.0	913	0	3.0	3.0	1.0	0	right	1.0	1.0	1.0	0	-0.0120581103489	blockFiles/set_53/main_unc/rightBlue\GB_RB_1.xlsx
340	main_unc	True	0.0	913	0	3.0	3.0	1.0	1	right	2.0	1.0	1.0	1	0.0713251068629	blockFiles/set_53/main_unc/rightBlue\GB_RB_1.xlsx
341	main_unc	True	0.0	913	0	3.0	3.0	0.0	1	left	1.0	1.0	1.0	0	-0.024501606375000002	blockFiles/set_53/main_unc/rightBlue\GB_RB_1.xlsx
342	main_unc	True	0.0	913	0	3.0	3.0	0.0	1	left	1.0	1.0	1.0	0	-0.0350587700494	blockFiles/set_53/main_unc/rightBlue\GB_RB_1.xlsx
343	main_unc	True	0.0	913	0	3.0	3.0	1.0	1	right	2.0	0.0	1.0	1	0.021238125469499998	blockFiles/set_53/main_unc/rightBlue\GB_RB_1.xlsx
344	main_unc	True	0.0	913	0	3.0	3.0	1.0	1	right	2.0	1.0	1.0	1	0.0717200808972	blockFiles/set_53/main_unc/rightBlue\GB_RB_1.xlsx
345	main_unc	True	0.0	913	0	3.0	3.0	1.0	1	right	2.0	1.0	1.0	1	0.0573655904643	blockFiles/set_53/main_unc/rightBlue\GB_RB_1.xlsx
346	main_unc	True	0.0	913	0	3.0	3.0	0.0	0	left	1.0	0.0	0.0	1	0.009709205981339999	blockFiles/set_53/main_unc/rightBlue\GB_RB_1.xlsx
347	main_unc	True	0.0	913	0	3.0	3.0	1.0	1	right	2.0	0.0	1.0	1	0.05446657367049999	blockFiles/set_53/main_unc/rightBlue\GB_RB_1.xlsx
348	main_unc	True	0.0	913	0	3.0	3.0	0.0	0	left	2.0	0.0	1.0	1	0.0448238345236	blockFiles/set_53/main_unc/rightBlue\GB_RB_1.xlsx
349	main_unc	True	0.0	913	0	3.0	3.0	0.0	1	left	1.0	1.0	1.0	0	-0.0588110995851	blockFiles/set_53/main_unc/rightBlue\GB_RB_1.xlsx
350	main_unc	True	0.0	913	0	3.0	3.0	1.0	1	right	2.0	0.0	1.0	1	0.014270467367	blockFiles/set_53/main_unc/rightBlue\GB_RB_1.xlsx
351	main_unc	True	0.0	913	0	4.0	4.0	0.0	1	left	1.0	1.0	1.0	0	-0.0371814637817	blockFiles/set_53/main_unc/rightBlue\GB_RB_2.xlsx
352	main_unc	True	0.0	913	0	4.0	4.0	1.0	1	right	2.0	1.0	1.0	1	0.0261096840724	blockFiles/set_53/main_unc/rightBlue\GB_RB_2.xlsx
353	main_unc	True	0.0	913	0	4.0	4.0	1.0	1	right	2.0	1.0	1.0	1	0.0481200274266	blockFiles/set_53/main_unc/rightBlue\GB_RB_2.xlsx
354	main_unc	True	0.0	913	0	4.0	4.0	1.0	1	right	2.0	0.0	1.0	1	0.0741857006028	blockFiles/set_53/main_unc/rightBlue\GB_RB_2.xlsx
355	main_unc	True	0.0	913	0	4.0	4.0	0.0	1	left	1.0	1.0	1.0	0	-0.0701273104548	blockFiles/set_53/main_unc/rightBlue\GB_RB_2.xlsx
356	main_unc	True	0.0	913	0	4.0	4.0	1.0	1	right	2.0	1.0	1.0	1	0.0346493710391	blockFiles/set_53/main_unc/rightBlue\GB_RB_2.xlsx
357	main_unc	True	0.0	913	0	4.0	4.0	0.0	1	left	1.0	0.0	1.0	0	-0.0341667084955	blockFiles/set_53/main_unc/rightBlue\GB_RB_2.xlsx
358	main_unc	True	0.0	913	0	4.0	4.0	0.0	1	left	1.0	1.0	1.0	0	-0.038600055929300006	blockFiles/set_53/main_unc/rightBlue\GB_RB_2.xlsx
359	main_unc	True	0.0	913	0	4.0	4.0	0.0	0	left	2.0	1.0	1.0	1	0.0188891623355	blockFiles/set_53/main_unc/rightBlue\GB_RB_2.xlsx
360	main_unc	True	0.0	913	0	4.0	4.0	0.0	1	left	1.0	1.0	1.0	0	-0.0502535114065	blockFiles/set_53/main_unc/rightBlue\GB_RB_2.xlsx
361	main_unc	True	0.0	913	0	4.0	4.0	0.0	1	left	1.0	1.0	1.0	0	-0.0505692813732	blockFiles/set_53/main_unc/rightBlue\GB_RB_2.xlsx
362	main_unc	True	0.0	913	0	4.0	4.0	1.0	1	right	2.0	1.0	1.0	1	0.00866726191714	blockFiles/set_53/main_unc/rightBlue\GB_RB_2.xlsx
363	main_unc	True	0.0	913	0	4.0	4.0	0.0	1	left	1.0	1.0	1.0	0	-0.0417687628791	blockFiles/set_53/main_unc/rightBlue\GB_RB_2.xlsx
364	main_unc	True	0.0	913	0	4.0	4.0	1.0	1	right	2.0	1.0	1.0	1	0.0466673408635	blockFiles/set_53/main_unc/rightBlue\GB_RB_2.xlsx
365	main_unc	True	0.0	913	0	4.0	4.0	0.0	1	left	1.0	0.0	1.0	0	-0.0576971136034	blockFiles/set_53/main_unc/rightBlue\GB_RB_2.xlsx
366	main_unc	True	0.0	913	0	4.0	4.0	0.0	1	left	1.0	1.0	1.0	0	-0.0343754990213	blockFiles/set_53/main_unc/rightBlue\GB_RB_2.xlsx
367	main_unc	True	0.0	913	0	4.0	4.0	0.0	1	left	1.0	0.0	1.0	0	-0.07382445495579999	blockFiles/set_53/main_unc/rightBlue\GB_RB_2.xlsx
368	main_unc	True	0.0	913	0	4.0	4.0	0.0	1	left	1.0	1.0	1.0	0	-0.013756776955	blockFiles/set_53/main_unc/rightBlue\GB_RB_2.xlsx
369	main_unc	True	0.0	913	0	4.0	4.0	0.0	1	left	1.0	1.0	1.0	0	-0.032445911411200005	blockFiles/set_53/main_unc/rightBlue\GB_RB_2.xlsx
370	main_unc	True	0.0	913	0	4.0	4.0	1.0	1	right	2.0	1.0	1.0	1	0.00675189554691	blockFiles/set_53/main_unc/rightBlue\GB_RB_2.xlsx
371	main_unc	True	0.0	913	0	4.0	4.0	1.0	1	right	2.0	1.0	1.0	1	0.00775194926187	blockFiles/set_53/main_unc/rightBlue\GB_RB_2.xlsx
372	main_unc	True	0.0	913	0	4.0	4.0	0.0	1	left	1.0	1.0	1.0	0	-0.033261015713200004	blockFiles/set_53/main_unc/rightBlue\GB_RB_2.xlsx
373	main_unc	True	0.0	913	0	4.0	4.0	1.0	1	right	2.0	1.0	1.0	1	0.0761240517348	blockFiles/set_53/main_unc/rightBlue\GB_RB_2.xlsx
374	main_unc	True	0.0	913	0	4.0	4.0	0.0	1	left	1.0	1.0	1.0	0	-0.06641215682030001	blockFiles/set_53/main_unc/rightBlue\GB_RB_2.xlsx
375	main_unc	True	0.0	913	0	4.0	4.0	1.0	1	right	2.0	1.0	1.0	1	0.060077916514099994	blockFiles/set_53/main_unc/rightBlue\GB_RB_2.xlsx
376	main_unc	True	0.0	913	0	5.0	5.0	1.0	1	right	1.0	1.0	1.0	1	0.0522005590051	blockFiles/set_53/main_unc/leftBlue\GB_LB_2.xlsx
377	main_unc	True	0.0	913	0	5.0	5.0	0.0	1	left	2.0	1.0	1.0	0	-0.0549281614833	blockFiles/set_53/main_unc/leftBlue\GB_LB_2.xlsx
378	main_unc	True	0.0	913	0	5.0	5.0	0.0	1	left	2.0	0.0	1.0	0	-0.0554568322748	blockFiles/set_53/main_unc/leftBlue\GB_LB_2.xlsx
379	main_unc	True	0.0	913	0	5.0	5.0	1.0	1	right	1.0	1.0	1.0	1	0.0652725286409	blockFiles/set_53/main_unc/leftBlue\GB_LB_2.xlsx
380	main_unc	True	0.0	913	0	5.0	5.0	0.0	1	left	2.0	1.0	1.0	0	-0.0685979281552	blockFiles/set_53/main_unc/leftBlue\GB_LB_2.xlsx
381	main_unc	True	0.0	913	0	5.0	5.0	1.0	1	right	1.0	1.0	1.0	1	0.029990106523000003	blockFiles/set_53/main_unc/leftBlue\GB_LB_2.xlsx
382	main_unc	True	0.0	913	0	5.0	5.0	0.0	1	left	2.0	0.0	1.0	0	-0.00386789353564	blockFiles/set_53/main_unc/leftBlue\GB_LB_2.xlsx
383	main_unc	True	0.0	913	0	5.0	5.0	1.0	1	right	1.0	1.0	1.0	1	0.0219522394985	blockFiles/set_53/main_unc/leftBlue\GB_LB_2.xlsx
384	main_unc	True	0.0	913	0	5.0	5.0	1.0	1	right	1.0	1.0	1.0	1	0.0225108255818	blockFiles/set_53/main_unc/leftBlue\GB_LB_2.xlsx
385	main_unc	True	0.0	913	0	5.0	5.0	1.0	0	right	2.0	1.0	1.0	0	-0.0212209186889	blockFiles/set_53/main_unc/leftBlue\GB_LB_2.xlsx
386	main_unc	True	0.0	913	0	5.0	5.0	0.0	1	left	2.0	0.0	1.0	0	-0.0799396280758	blockFiles/set_53/main_unc/leftBlue\GB_LB_2.xlsx
387	main_unc	True	0.0	913	0	5.0	5.0	1.0	1	right	1.0	1.0	1.0	1	0.0755657365173	blockFiles/set_53/main_unc/leftBlue\GB_LB_2.xlsx
388	main_unc	True	0.0	913	0	5.0	5.0	0.0	1	left	2.0	1.0	1.0	0	-0.0163928379864	blockFiles/set_53/main_unc/leftBlue\GB_LB_2.xlsx
389	main_unc	True	0.0	913	0	5.0	5.0	0.0	1	left	2.0	1.0	1.0	0	-0.055024077799199995	blockFiles/set_53/main_unc/leftBlue\GB_LB_2.xlsx
390	main_unc	True	0.0	913	0	5.0	5.0	0.0	0	left	1.0	1.0	1.0	1	0.00869658593088	blockFiles/set_53/main_unc/leftBlue\GB_LB_2.xlsx
391	main_unc	True	0.0	913	0	5.0	5.0	0.0	1	left	2.0	1.0	1.0	0	-0.07273594008760001	blockFiles/set_53/main_unc/leftBlue\GB_LB_2.xlsx
392	main_unc	True	0.0	913	0	5.0	5.0	0.0	1	left	2.0	1.0	1.0	0	-0.06850058058280001	blockFiles/set_53/main_unc/leftBlue\GB_LB_2.xlsx
393	main_unc	True	0.0	913	0	5.0	5.0	0.0	0	left	1.0	1.0	1.0	1	0.011211514249400001	blockFiles/set_53/main_unc/leftBlue\GB_LB_2.xlsx
394	main_unc	True	0.0	913	0	5.0	5.0	1.0	1	right	1.0	1.0	1.0	1	0.043905485663599995	blockFiles/set_53/main_unc/leftBlue\GB_LB_2.xlsx
395	main_unc	True	0.0	913	0	5.0	5.0	0.0	1	left	2.0	0.0	1.0	0	-0.050290449522400006	blockFiles/set_53/main_unc/leftBlue\GB_LB_2.xlsx
396	main_unc	True	0.0	913	0	5.0	5.0	0.0	1	left	2.0	1.0	1.0	0	-0.0134441519156	blockFiles/set_53/main_unc/leftBlue\GB_LB_2.xlsx
397	main_unc	True	0.0	913	0	5.0	5.0	0.0	1	left	2.0	1.0	1.0	0	-0.07049429005010001	blockFiles/set_53/main_unc/leftBlue\GB_LB_2.xlsx
398	main_unc	True	0.0	913	0	5.0	5.0	1.0	1	right	1.0	1.0	1.0	1	0.027122784722599998	blockFiles/set_53/main_unc/leftBlue\GB_LB_2.xlsx
399	main_unc	True	0.0	913	0	5.0	5.0	1.0	1	right	1.0	1.0	1.0	1	0.0283756209724	blockFiles/set_53/main_unc/leftBlue\GB_LB_2.xlsx
400	main_unc	True	0.0	913	0	5.0	5.0	0.0	1	left	2.0	1.0	1.0	0	-0.06973628696050001	blockFiles/set_53/main_unc/leftBlue\GB_LB_2.xlsx
401	main_unc	True	0.0	913	0	6.0	6.0	1.0	1	right	2.0	1.0	1.0	1	0.0742688322812	blockFiles/set_53/main_unc/rightBlue\GB_RB_6.xlsx
402	main_unc	True	0.0	913	0	6.0	6.0	1.0	0	right	1.0	1.0	1.0	0	-0.0037260575965	blockFiles/set_53/main_unc/rightBlue\GB_RB_6.xlsx
403	main_unc	True	0.0	913	0	6.0	6.0	1.0	0	right	1.0	1.0	1.0	0	-0.0242951739766	blockFiles/set_53/main_unc/rightBlue\GB_RB_6.xlsx
404	main_unc	True	0.0	913	0	6.0	6.0	0.0	1	left	1.0	1.0	1.0	0	-0.0587898068875	blockFiles/set_53/main_unc/rightBlue\GB_RB_6.xlsx
405	main_unc	True	0.0	913	0	6.0	6.0	1.0	1	right	2.0	1.0	1.0	1	0.0654627315141	blockFiles/set_53/main_unc/rightBlue\GB_RB_6.xlsx
406	main_unc	True	0.0	913	0	6.0	6.0	1.0	0	right	1.0	1.0	1.0	0	-0.00044483890757000003	blockFiles/set_53/main_unc/rightBlue\GB_RB_6.xlsx
407	main_unc	True	0.0	913	0	6.0	6.0	1.0	1	right	2.0	1.0	1.0	1	0.07399125592780001	blockFiles/set_53/main_unc/rightBlue\GB_RB_6.xlsx
408	main_unc	True	0.0	913	0	6.0	6.0	0.0	0	left	1.0	1.0	0.0	1	0.0211911691725	blockFiles/set_53/main_unc/rightBlue\GB_RB_6.xlsx
409	main_unc	True	0.0	913	0	6.0	6.0	1.0	1	right	2.0	1.0	1.0	1	0.024963574037000003	blockFiles/set_53/main_unc/rightBlue\GB_RB_6.xlsx
410	main_unc	True	0.0	913	0	6.0	6.0	1.0	1	right	2.0	0.0	1.0	1	0.0212594741583	blockFiles/set_53/main_unc/rightBlue\GB_RB_6.xlsx
411	main_unc	True	0.0	913	0	6.0	6.0	1.0	1	right	2.0	1.0	1.0	1	0.060979111176	blockFiles/set_53/main_unc/rightBlue\GB_RB_6.xlsx
412	main_unc	True	0.0	913	0	6.0	6.0	1.0	1	right	2.0	1.0	1.0	1	0.0351260346919	blockFiles/set_53/main_unc/rightBlue\GB_RB_6.xlsx
413	main_unc	True	0.0	913	0	6.0	6.0	0.0	1	left	1.0	1.0	1.0	0	-0.027817339189400003	blockFiles/set_53/main_unc/rightBlue\GB_RB_6.xlsx
414	main_unc	True	0.0	913	0	6.0	6.0	1.0	1	right	2.0	1.0	1.0	1	0.025222840812099998	blockFiles/set_53/main_unc/rightBlue\GB_RB_6.xlsx
415	main_unc	True	0.0	913	0	6.0	6.0	0.0	1	left	1.0	1.0	1.0	0	-0.0703964236565	blockFiles/set_53/main_unc/rightBlue\GB_RB_6.xlsx
416	main_unc	True	0.0	913	0	6.0	6.0	1.0	1	right	2.0	1.0	1.0	1	0.0693204138801	blockFiles/set_53/main_unc/rightBlue\GB_RB_6.xlsx
417	main_unc	True	0.0	913	0	6.0	6.0	1.0	0	right	1.0	0.0	1.0	0	-0.00685224020854	blockFiles/set_53/main_unc/rightBlue\GB_RB_6.xlsx
418	main_unc	True	0.0	913	0	6.0	6.0	0.0	1	left	1.0	1.0	1.0	0	-0.0447728906013	blockFiles/set_53/main_unc/rightBlue\GB_RB_6.xlsx
419	main_unc	True	0.0	913	0	6.0	6.0	1.0	1	right	2.0	1.0	1.0	1	0.056034019962	blockFiles/set_53/main_unc/rightBlue\GB_RB_6.xlsx
420	main_unc	True	0.0	913	0	6.0	6.0	0.0	1	left	1.0	1.0	1.0	0	-0.0603863916919	blockFiles/set_53/main_unc/rightBlue\GB_RB_6.xlsx
421	main_unc	True	0.0	913	0	6.0	6.0	1.0	1	right	2.0	1.0	1.0	1	0.06381691407409999	blockFiles/set_53/main_unc/rightBlue\GB_RB_6.xlsx
422	main_unc	True	0.0	913	0	6.0	6.0	1.0	0	right	1.0	1.0	1.0	0	-0.005744368024170001	blockFiles/set_53/main_unc/rightBlue\GB_RB_6.xlsx
423	main_unc	True	0.0	913	0	6.0	6.0	0.0	1	left	1.0	1.0	1.0	0	-0.031645213030300004	blockFiles/set_53/main_unc/rightBlue\GB_RB_6.xlsx
424	main_unc	True	0.0	913	0	6.0	6.0	1.0	1	right	2.0	1.0	1.0	1	0.054364154823099996	blockFiles/set_53/main_unc/rightBlue\GB_RB_6.xlsx
425	main_unc	True	0.0	913	0	6.0	6.0	0.0	1	left	1.0	0.0	1.0	0	-0.015412160363000001	blockFiles/set_53/main_unc/rightBlue\GB_RB_6.xlsx
426	main_unc	True	0.0	913	0	7.0	7.0	1.0	0	right	1.0	1.0	1.0	0	-0.0350661555119	blockFiles/set_53/main_unc/rightBlue\GB_RB_5.xlsx
427	main_unc	True	0.0	913	0	7.0	7.0	0.0	1	left	1.0	1.0	1.0	0	-0.0385082226619	blockFiles/set_53/main_unc/rightBlue\GB_RB_5.xlsx
428	main_unc	True	0.0	913	0	7.0	7.0	0.0	1	left	1.0	1.0	1.0	0	-0.0660762941651	blockFiles/set_53/main_unc/rightBlue\GB_RB_5.xlsx
429	main_unc	True	0.0	913	0	7.0	7.0	1.0	1	right	2.0	0.0	1.0	1	0.0680991674215	blockFiles/set_53/main_unc/rightBlue\GB_RB_5.xlsx
430	main_unc	True	0.0	913	0	7.0	7.0	0.0	0	left	1.0	1.0	0.0	1	0.012233533337700001	blockFiles/set_53/main_unc/rightBlue\GB_RB_5.xlsx
431	main_unc	True	0.0	913	0	7.0	7.0	0.0	1	left	1.0	1.0	1.0	0	-0.0395137559809	blockFiles/set_53/main_unc/rightBlue\GB_RB_5.xlsx
432	main_unc	True	0.0	913	0	7.0	7.0	1.0	1	right	2.0	1.0	1.0	1	0.05243254236880001	blockFiles/set_53/main_unc/rightBlue\GB_RB_5.xlsx
433	main_unc	True	0.0	913	0	7.0	7.0	1.0	1	right	2.0	1.0	1.0	1	0.0555342296138	blockFiles/set_53/main_unc/rightBlue\GB_RB_5.xlsx
434	main_unc	True	0.0	913	0	7.0	7.0	1.0	0	right	1.0	1.0	1.0	0	-0.0448926480301	blockFiles/set_53/main_unc/rightBlue\GB_RB_5.xlsx
435	main_unc	True	0.0	913	0	7.0	7.0	1.0	0	right	1.0	1.0	1.0	0	-0.012608577814	blockFiles/set_53/main_unc/rightBlue\GB_RB_5.xlsx
436	main_unc	True	0.0	913	0	7.0	7.0	0.0	1	left	1.0	1.0	1.0	0	-0.030560131277900002	blockFiles/set_53/main_unc/rightBlue\GB_RB_5.xlsx
437	main_unc	True	0.0	913	0	7.0	7.0	1.0	0	right	1.0	1.0	1.0	0	-0.0183909852803	blockFiles/set_53/main_unc/rightBlue\GB_RB_5.xlsx
438	main_unc	True	0.0	913	0	7.0	7.0	0.0	1	left	1.0	1.0	1.0	0	-0.0650460737199	blockFiles/set_53/main_unc/rightBlue\GB_RB_5.xlsx
439	main_unc	True	0.0	913	0	7.0	7.0	1.0	1	right	2.0	0.0	1.0	1	0.0198680405319	blockFiles/set_53/main_unc/rightBlue\GB_RB_5.xlsx
440	main_unc	True	0.0	913	0	7.0	7.0	1.0	1	right	2.0	1.0	1.0	1	0.07730538593610001	blockFiles/set_53/main_unc/rightBlue\GB_RB_5.xlsx
441	main_unc	True	0.0	913	0	7.0	7.0	1.0	1	right	2.0	1.0	1.0	1	0.0328895089403	blockFiles/set_53/main_unc/rightBlue\GB_RB_5.xlsx
442	main_unc	True	0.0	913	0	7.0	7.0	1.0	1	right	2.0	1.0	1.0	1	0.010490974653499999	blockFiles/set_53/main_unc/rightBlue\GB_RB_5.xlsx
443	main_unc	True	0.0	913	0	7.0	7.0	1.0	1	right	1.0	0.0	0.0	1	0.0102608551644	blockFiles/set_53/main_unc/rightBlue\GB_RB_5.xlsx
444	main_unc	True	0.0	913	0	7.0	7.0	0.0	1	left	1.0	0.0	1.0	0	-0.0723499161005	blockFiles/set_53/main_unc/rightBlue\GB_RB_5.xlsx
445	main_unc	True	0.0	913	0	7.0	7.0	0.0	1	left	1.0	1.0	1.0	0	-0.0454724303819	blockFiles/set_53/main_unc/rightBlue\GB_RB_5.xlsx
446	main_unc	True	0.0	913	0	7.0	7.0	0.0	1	left	1.0	1.0	1.0	0	-0.05468356488269999	blockFiles/set_53/main_unc/rightBlue\GB_RB_5.xlsx
447	main_unc	True	0.0	913	0	7.0	7.0	1.0	1	right	2.0	1.0	1.0	1	0.00940622741356	blockFiles/set_53/main_unc/rightBlue\GB_RB_5.xlsx
448	main_unc	True	0.0	913	0	7.0	7.0	0.0	1	left	1.0	1.0	1.0	0	-0.030961643699599996	blockFiles/set_53/main_unc/rightBlue\GB_RB_5.xlsx
449	main_unc	True	0.0	913	0	7.0	7.0	0.0	1	left	1.0	1.0	1.0	0	-0.0647584457509	blockFiles/set_53/main_unc/rightBlue\GB_RB_5.xlsx
450	main_unc	True	0.0	913	0	7.0	7.0	0.0	0	left	2.0	1.0	1.0	1	0.0040059588477	blockFiles/set_53/main_unc/rightBlue\GB_RB_5.xlsx
451	main_unc	True	0.0	913	0	8.0	8.0	1.0	1	right	1.0	0.0	0.0	1	0.0552874824591	blockFiles/set_53/main_unc/rightBlue\GB_RB_4.xlsx
452	main_unc	True	0.0	913	0	8.0	8.0	0.0	1	left	1.0	1.0	1.0	0	-0.0420419568196	blockFiles/set_53/main_unc/rightBlue\GB_RB_4.xlsx
453	main_unc	True	0.0	913	0	8.0	8.0	1.0	1	right	2.0	1.0	1.0	1	0.0112243953906	blockFiles/set_53/main_unc/rightBlue\GB_RB_4.xlsx
454	main_unc	True	0.0	913	0	8.0	8.0	0.0	1	left	1.0	1.0	1.0	0	-0.055338639747400005	blockFiles/set_53/main_unc/rightBlue\GB_RB_4.xlsx
455	main_unc	True	0.0	913	0	8.0	8.0	0.0	1	left	1.0	0.0	1.0	0	-0.0398075935245	blockFiles/set_53/main_unc/rightBlue\GB_RB_4.xlsx
456	main_unc	True	0.0	913	0	8.0	8.0	1.0	1	right	2.0	1.0	1.0	1	0.060062558185300007	blockFiles/set_53/main_unc/rightBlue\GB_RB_4.xlsx
457	main_unc	True	0.0	913	0	8.0	8.0	0.0	0	left	2.0	1.0	1.0	1	0.0227252819948	blockFiles/set_53/main_unc/rightBlue\GB_RB_4.xlsx
458	main_unc	True	0.0	913	0	8.0	8.0	1.0	0	right	1.0	1.0	1.0	0	-0.00156520614401	blockFiles/set_53/main_unc/rightBlue\GB_RB_4.xlsx
459	main_unc	True	0.0	913	0	8.0	8.0	0.0	1	left	1.0	1.0	1.0	0	-0.034955081194599995	blockFiles/set_53/main_unc/rightBlue\GB_RB_4.xlsx
460	main_unc	True	0.0	913	0	8.0	8.0	0.0	1	left	1.0	1.0	1.0	0	-0.0345982625522	blockFiles/set_53/main_unc/rightBlue\GB_RB_4.xlsx
461	main_unc	True	0.0	913	0	8.0	8.0	1.0	1	right	2.0	1.0	1.0	1	0.0575963761099	blockFiles/set_53/main_unc/rightBlue\GB_RB_4.xlsx
462	main_unc	True	0.0	913	0	8.0	8.0	1.0	1	right	2.0	0.0	1.0	1	0.07242114460099999	blockFiles/set_53/main_unc/rightBlue\GB_RB_4.xlsx
463	main_unc	True	0.0	913	0	8.0	8.0	0.0	1	left	1.0	1.0	1.0	0	-0.0284923223592	blockFiles/set_53/main_unc/rightBlue\GB_RB_4.xlsx
464	main_unc	True	0.0	913	0	8.0	8.0	0.0	1	left	1.0	0.0	1.0	0	-0.04494605384769999	blockFiles/set_53/main_unc/rightBlue\GB_RB_4.xlsx
465	main_unc	True	0.0	913	0	8.0	8.0	0.0	1	left	2.0	1.0	0.0	0	-0.00401307569817	blockFiles/set_53/main_unc/rightBlue\GB_RB_4.xlsx
466	main_unc	True	0.0	913	0	8.0	8.0	1.0	1	right	2.0	1.0	1.0	1	0.0691244192794	blockFiles/set_53/main_unc/rightBlue\GB_RB_4.xlsx
467	main_unc	True	0.0	913	0	8.0	8.0	0.0	1	left	1.0	1.0	1.0	0	-0.0511871615611	blockFiles/set_53/main_unc/rightBlue\GB_RB_4.xlsx
468	main_unc	True	0.0	913	0	8.0	8.0	1.0	1	right	2.0	1.0	1.0	1	0.00496128490195	blockFiles/set_53/main_unc/rightBlue\GB_RB_4.xlsx
469	main_unc	True	0.0	913	0	8.0	8.0	1.0	1	right	2.0	1.0	1.0	1	0.0765609558485	blockFiles/set_53/main_unc/rightBlue\GB_RB_4.xlsx
470	main_unc	True	0.0	913	0	8.0	8.0	1.0	1	right	2.0	1.0	1.0	1	0.033868909832099996	blockFiles/set_53/main_unc/rightBlue\GB_RB_4.xlsx
471	main_unc	True	0.0	913	0	8.0	8.0	0.0	1	left	1.0	1.0	1.0	0	-0.065478025116	blockFiles/set_53/main_unc/rightBlue\GB_RB_4.xlsx
472	main_unc	True	0.0	913	0	8.0	8.0	0.0	1	left	1.0	0.0	1.0	0	-0.0349726736918	blockFiles/set_53/main_unc/rightBlue\GB_RB_4.xlsx
473	main_unc	True	0.0	913	0	8.0	8.0	1.0	1	right	2.0	1.0	1.0	1	0.017638576850299997	blockFiles/set_53/main_unc/rightBlue\GB_RB_4.xlsx
474	main_unc	True	0.0	913	0	8.0	8.0	0.0	1	left	1.0	1.0	1.0	0	-0.06619441773740001	blockFiles/set_53/main_unc/rightBlue\GB_RB_4.xlsx
475	main_unc	True	0.0	913	0	8.0	8.0	0.0	1	left	1.0	1.0	1.0	0	-0.0157889389433	blockFiles/set_53/main_unc/rightBlue\GB_RB_4.xlsx
476	main_unc	True	0.0	913	0	9.0	9.0	1.0	1	right	2.0	0.0	0.0	1	0.011264923308000002	blockFiles/set_53/main_unc/leftBlue\GB_LB_4.xlsx
477	main_unc	True	0.0	913	0	9.0	9.0	1.0	1	right	1.0	1.0	1.0	1	0.0249089293182	blockFiles/set_53/main_unc/leftBlue\GB_LB_4.xlsx
478	main_unc	True	0.0	913	0	9.0	9.0	0.0	1	left	2.0	1.0	1.0	0	-0.0692004482262	blockFiles/set_53/main_unc/leftBlue\GB_LB_4.xlsx
479	main_unc	True	0.0	913	0	9.0	9.0	0.0	0	left	2.0	1.0	0.0	1	0.0350769710541	blockFiles/set_53/main_unc/leftBlue\GB_LB_4.xlsx
480	main_unc	True	0.0	913	0	9.0	9.0	0.0	1	left	2.0	0.0	1.0	0	-0.0031481605395700003	blockFiles/set_53/main_unc/leftBlue\GB_LB_4.xlsx
481	main_unc	True	0.0	913	0	9.0	9.0	0.0	1	left	1.0	0.0	0.0	0	-0.054673985596699996	blockFiles/set_53/main_unc/leftBlue\GB_LB_4.xlsx
482	main_unc	True	0.0	913	0	9.0	9.0	0.0	1	left	1.0	0.0	0.0	0	-0.00811858754605	blockFiles/set_53/main_unc/leftBlue\GB_LB_4.xlsx
483	main_unc	True	0.0	913	0	9.0	9.0	0.0	1	left	2.0	1.0	1.0	0	-0.0752417553216	blockFiles/set_53/main_unc/leftBlue\GB_LB_4.xlsx
484	main_unc	True	0.0	913	0	9.0	9.0	0.0	1	left	1.0	0.0	0.0	0	-0.00597117003053	blockFiles/set_53/main_unc/leftBlue\GB_LB_4.xlsx
485	main_unc	True	0.0	913	0	9.0	9.0	0.0	1	left	2.0	1.0	1.0	0	-0.0193786200508	blockFiles/set_53/main_unc/leftBlue\GB_LB_4.xlsx
486	main_unc	True	0.0	913	0	9.0	9.0	1.0	1	right	1.0	1.0	1.0	1	0.07284131219610002	blockFiles/set_53/main_unc/leftBlue\GB_LB_4.xlsx
487	main_unc	True	0.0	913	0	9.0	9.0	0.0	1	left	2.0	1.0	1.0	0	-0.05764046654109999	blockFiles/set_53/main_unc/leftBlue\GB_LB_4.xlsx
488	main_unc	True	0.0	913	0	9.0	9.0	0.0	0	left	2.0	0.0	0.0	1	0.00114057809114	blockFiles/set_53/main_unc/leftBlue\GB_LB_4.xlsx
489	main_unc	True	0.0	913	0	9.0	9.0	0.0	1	left	2.0	1.0	1.0	0	-0.0455192848481	blockFiles/set_53/main_unc/leftBlue\GB_LB_4.xlsx
490	main_unc	True	0.0	913	0	9.0	9.0	1.0	1	right	2.0	0.0	0.0	1	0.006193235889080001	blockFiles/set_53/main_unc/leftBlue\GB_LB_4.xlsx
491	main_unc	True	0.0	913	0	9.0	9.0	1.0	1	right	1.0	0.0	1.0	1	0.0401062225737	blockFiles/set_53/main_unc/leftBlue\GB_LB_4.xlsx
492	main_unc	True	0.0	913	0	9.0	9.0	0.0	1	left	2.0	1.0	1.0	0	-0.0483322419226	blockFiles/set_53/main_unc/leftBlue\GB_LB_4.xlsx
493	main_unc	True	0.0	913	0	9.0	9.0	1.0	1	right	1.0	0.0	1.0	1	0.0623062891141	blockFiles/set_53/main_unc/leftBlue\GB_LB_4.xlsx
494	main_unc	True	0.0	913	0	9.0	9.0	0.0	1	left	2.0	1.0	1.0	0	-0.053673057611999996	blockFiles/set_53/main_unc/leftBlue\GB_LB_4.xlsx
495	main_unc	True	0.0	913	0	9.0	9.0	1.0	1	right	1.0	1.0	1.0	1	0.05567693702880001	blockFiles/set_53/main_unc/leftBlue\GB_LB_4.xlsx
496	main_unc	True	0.0	913	0	9.0	9.0	1.0	1	right	1.0	1.0	1.0	1	0.0271239613928	blockFiles/set_53/main_unc/leftBlue\GB_LB_4.xlsx
497	main_unc	True	0.0	913	0	9.0	9.0	1.0	1	right	1.0	1.0	1.0	1	0.0384187525883	blockFiles/set_53/main_unc/leftBlue\GB_LB_4.xlsx
498	main_unc	True	0.0	913	0	9.0	9.0	0.0	1	left	2.0	1.0	1.0	0	-0.056866793315900006	blockFiles/set_53/main_unc/leftBlue\GB_LB_4.xlsx
499	main_unc	True	0.0	913	0	9.0	9.0	0.0	1	left	2.0	1.0	1.0	0	-0.05682232474909999	blockFiles/set_53/main_unc/leftBlue\GB_LB_4.xlsx
500	main_unc	True	0.0	913	0	9.0	9.0	1.0	1	right	1.0	0.0	1.0	1	0.0469514810666	blockFiles/set_53/main_unc/leftBlue\GB_LB_4.xlsx
501	main_unc	True	0.0	913	0	10.0	10.0	1.0	1	right	2.0	0.0	1.0	1	0.0134869799949	blockFiles/set_53/main_unc/rightBlue\GB_RB_3.xlsx
502	main_unc	True	0.0	913	0	10.0	10.0	0.0	1	left	1.0	1.0	1.0	0	-0.0705793197639	blockFiles/set_53/main_unc/rightBlue\GB_RB_3.xlsx
503	main_unc	True	0.0	913	0	10.0	10.0	0.0	1	left	1.0	0.0	1.0	0	-0.0683826520294	blockFiles/set_53/main_unc/rightBlue\GB_RB_3.xlsx
504	main_unc	True	0.0	913	0	10.0	10.0	0.0	1	left	2.0	1.0	0.0	0	-0.028552465345700002	blockFiles/set_53/main_unc/rightBlue\GB_RB_3.xlsx
505	main_unc	True	0.0	913	0	10.0	10.0	0.0	1	left	2.0	0.0	0.0	0	-0.0417115771584	blockFiles/set_53/main_unc/rightBlue\GB_RB_3.xlsx
506	main_unc	True	0.0	913	0	10.0	10.0	1.0	1	right	1.0	0.0	0.0	1	0.0346169390902	blockFiles/set_53/main_unc/rightBlue\GB_RB_3.xlsx
507	main_unc	True	0.0	913	0	10.0	10.0	1.0	1	right	2.0	1.0	1.0	1	0.058473383318600004	blockFiles/set_53/main_unc/rightBlue\GB_RB_3.xlsx
508	main_unc	True	0.0	913	0	10.0	10.0	1.0	1	right	2.0	1.0	1.0	1	0.0465941154212	blockFiles/set_53/main_unc/rightBlue\GB_RB_3.xlsx
509	main_unc	True	0.0	913	0	10.0	10.0	0.0	1	left	1.0	1.0	1.0	0	-0.0403042351827	blockFiles/set_53/main_unc/rightBlue\GB_RB_3.xlsx
510	main_unc	True	0.0	913	0	10.0	10.0	1.0	1	right	2.0	1.0	1.0	1	0.033971309755000005	blockFiles/set_53/main_unc/rightBlue\GB_RB_3.xlsx
511	main_unc	True	0.0	913	0	10.0	10.0	0.0	1	left	1.0	1.0	1.0	0	-0.00585679898039	blockFiles/set_53/main_unc/rightBlue\GB_RB_3.xlsx
512	main_unc	True	0.0	913	0	10.0	10.0	1.0	1	right	2.0	1.0	1.0	1	0.0699454484135	blockFiles/set_53/main_unc/rightBlue\GB_RB_3.xlsx
513	main_unc	True	0.0	913	0	10.0	10.0	0.0	1	left	1.0	0.0	1.0	0	-0.0172633072361	blockFiles/set_53/main_unc/rightBlue\GB_RB_3.xlsx
514	main_unc	True	0.0	913	0	10.0	10.0	0.0	1	left	1.0	1.0	1.0	0	-0.0698892613128	blockFiles/set_53/main_unc/rightBlue\GB_RB_3.xlsx
515	main_unc	True	0.0	913	0	10.0	10.0	1.0	1	right	2.0	1.0	1.0	1	0.0429341899231	blockFiles/set_53/main_unc/rightBlue\GB_RB_3.xlsx
516	main_unc	True	0.0	913	0	10.0	10.0	1.0	0	right	1.0	1.0	1.0	0	-0.0041889604367300005	blockFiles/set_53/main_unc/rightBlue\GB_RB_3.xlsx
517	main_unc	True	0.0	913	0	10.0	10.0	0.0	1	left	1.0	1.0	1.0	0	-0.0703621236235	blockFiles/set_53/main_unc/rightBlue\GB_RB_3.xlsx
518	main_unc	True	0.0	913	0	10.0	10.0	1.0	1	right	2.0	0.0	1.0	1	0.025270371269400002	blockFiles/set_53/main_unc/rightBlue\GB_RB_3.xlsx
519	main_unc	True	0.0	913	0	10.0	10.0	0.0	1	left	1.0	1.0	1.0	0	-0.0561159109324	blockFiles/set_53/main_unc/rightBlue\GB_RB_3.xlsx
520	main_unc	True	0.0	913	0	10.0	10.0	0.0	0	left	2.0	1.0	1.0	1	0.0029962433315799996	blockFiles/set_53/main_unc/rightBlue\GB_RB_3.xlsx
521	main_unc	True	0.0	913	0	10.0	10.0	0.0	1	left	1.0	0.0	1.0	0	-0.055429194066699994	blockFiles/set_53/main_unc/rightBlue\GB_RB_3.xlsx
522	main_unc	True	0.0	913	0	10.0	10.0	1.0	1	right	2.0	1.0	1.0	1	0.00985271561891	blockFiles/set_53/main_unc/rightBlue\GB_RB_3.xlsx
523	main_unc	True	0.0	913	0	10.0	10.0	1.0	1	right	2.0	1.0	1.0	1	0.0544424838573	blockFiles/set_53/main_unc/rightBlue\GB_RB_3.xlsx
524	main_unc	True	0.0	913	0	10.0	10.0	1.0	1	right	2.0	1.0	1.0	1	0.029551184903799998	blockFiles/set_53/main_unc/rightBlue\GB_RB_3.xlsx
525	main_unc	True	0.0	913	0	10.0	10.0	1.0	1	right	2.0	1.0	1.0	1	0.0403680348769	blockFiles/set_53/main_unc/rightBlue\GB_RB_3.xlsx
526	main_unc	True	0.0	913	0	11.0	11.0	0.0	1	left	2.0	1.0	1.0	0	-0.077463137731	blockFiles/set_53/main_unc/leftBlue\GB_LB_5.xlsx
527	main_unc	True	0.0	913	0	11.0	11.0	0.0	0	left	2.0	0.0	0.0	1	0.0022589106299	blockFiles/set_53/main_unc/leftBlue\GB_LB_5.xlsx
528	main_unc	True	0.0	913	0	11.0	11.0	0.0	1	left	2.0	0.0	1.0	0	-0.041327275838699995	blockFiles/set_53/main_unc/leftBlue\GB_LB_5.xlsx
529	main_unc	True	0.0	913	0	11.0	11.0	1.0	1	right	2.0	0.0	0.0	1	0.038589558433699996	blockFiles/set_53/main_unc/leftBlue\GB_LB_5.xlsx
530	main_unc	True	0.0	913	0	11.0	11.0	1.0	1	right	2.0	0.0	0.0	1	0.0132251679339	blockFiles/set_53/main_unc/leftBlue\GB_LB_5.xlsx
531	main_unc	True	0.0	913	0	11.0	11.0	0.0	1	left	1.0	1.0	0.0	0	-0.0396446519159	blockFiles/set_53/main_unc/leftBlue\GB_LB_5.xlsx
532	main_unc	True	0.0	913	0	11.0	11.0	1.0	1	right	2.0	1.0	0.0	1	0.055609293934000006	blockFiles/set_53/main_unc/leftBlue\GB_LB_5.xlsx
533	main_unc	True	0.0	913	0	11.0	11.0	0.0	1	left	1.0	0.0	0.0	0	-0.0260336187482	blockFiles/set_53/main_unc/leftBlue\GB_LB_5.xlsx
534	main_unc	True	0.0	913	0	11.0	11.0	1.0	1	right	2.0	0.0	0.0	1	0.049954993203300005	blockFiles/set_53/main_unc/leftBlue\GB_LB_5.xlsx
535	main_unc	True	0.0	913	0	11.0	11.0	1.0	0	right	1.0	0.0	0.0	0	-0.00792904740199	blockFiles/set_53/main_unc/leftBlue\GB_LB_5.xlsx
536	main_unc	True	0.0	913	0	11.0	11.0	0.0	1	left	2.0	1.0	1.0	0	-0.0681107075326	blockFiles/set_53/main_unc/leftBlue\GB_LB_5.xlsx
537	main_unc	True	0.0	913	0	11.0	11.0	0.0	1	left	2.0	0.0	1.0	0	-0.00987420501187	blockFiles/set_53/main_unc/leftBlue\GB_LB_5.xlsx
538	main_unc	True	0.0	913	0	11.0	11.0	0.0	1	left	1.0	0.0	0.0	0	-0.0455502490513	blockFiles/set_53/main_unc/leftBlue\GB_LB_5.xlsx
539	main_unc	True	0.0	913	0	11.0	11.0	1.0	1	right	1.0	0.0	1.0	1	0.07599927382539999	blockFiles/set_53/main_unc/leftBlue\GB_LB_5.xlsx
540	main_unc	True	0.0	913	0	11.0	11.0	1.0	1	right	2.0	0.0	0.0	1	0.0431533138454	blockFiles/set_53/main_unc/leftBlue\GB_LB_5.xlsx
541	main_unc	True	0.0	913	0	11.0	11.0	0.0	1	left	2.0	0.0	1.0	0	-0.06614451278	blockFiles/set_53/main_unc/leftBlue\GB_LB_5.xlsx
542	main_unc	True	0.0	913	0	11.0	11.0	1.0	1	right	2.0	0.0	0.0	1	0.0265021033213	blockFiles/set_53/main_unc/leftBlue\GB_LB_5.xlsx
543	main_unc	True	0.0	913	0	11.0	11.0	0.0	1	left	1.0	0.0	0.0	0	-0.039584774486699996	blockFiles/set_53/main_unc/leftBlue\GB_LB_5.xlsx
544	main_unc	True	0.0	913	0	11.0	11.0	1.0	1	right	2.0	0.0	0.0	1	0.0273210269772	blockFiles/set_53/main_unc/leftBlue\GB_LB_5.xlsx
545	main_unc	True	0.0	913	0	11.0	11.0	1.0	1	right	2.0	0.0	0.0	1	0.012096895501000002	blockFiles/set_53/main_unc/leftBlue\GB_LB_5.xlsx
546	main_unc	True	0.0	913	0	11.0	11.0	0.0	1	left	2.0	1.0	1.0	0	-0.0369156656787	blockFiles/set_53/main_unc/leftBlue\GB_LB_5.xlsx
547	main_unc	True	0.0	913	0	11.0	11.0	0.0	1	left	2.0	1.0	1.0	0	-0.044426536187500004	blockFiles/set_53/main_unc/leftBlue\GB_LB_5.xlsx
548	main_unc	True	0.0	913	0	11.0	11.0	0.0	0	left	1.0	1.0	1.0	1	0.008797077406200001	blockFiles/set_53/main_unc/leftBlue\GB_LB_5.xlsx
549	main_unc	True	0.0	913	0	11.0	11.0	1.0	1	right	1.0	1.0	1.0	1	0.0465507675521	blockFiles/set_53/main_unc/leftBlue\GB_LB_5.xlsx
550	main_unc	True	0.0	913	0	11.0	11.0	1.0	1	right	1.0	1.0	1.0	1	0.0537854534574	blockFiles/set_53/main_unc/leftBlue\GB_LB_5.xlsx
