	trial_type	complete	missIndex	participant	id	blockNumber	b_t	d_t	decision1.corr	decision1.keys	a_t	r_t	decision2.corr	s_t	u_t	block_file
0	main_safe	True	0.0	758	0	0.0	0.0	0.0	1	left	2.0	0.0	0.0	0	-0.08	blockFiles/set_6/main_safe/rightBlue\GB_RB_2.xlsx
1	main_safe	True	0.0	758	0	0.0	0.0	0.0	1	left	1.0	1.0	1.0	0	-0.08	blockFiles/set_6/main_safe/rightBlue\GB_RB_2.xlsx
2	main_safe	True	0.0	758	0	0.0	0.0	0.0	1	left	1.0	1.0	1.0	0	-0.08	blockFiles/set_6/main_safe/rightBlue\GB_RB_2.xlsx
3	main_safe	True	0.0	758	0	0.0	0.0	0.0	1	left	2.0	0.0	0.0	0	-0.08	blockFiles/set_6/main_safe/rightBlue\GB_RB_2.xlsx
4	main_safe	True	0.0	758	0	0.0	0.0	1.0	1	right	2.0	1.0	1.0	1	0.08	blockFiles/set_6/main_safe/rightBlue\GB_RB_2.xlsx
5	main_safe	True	0.0	758	0	0.0	0.0	1.0	1	right	2.0	1.0	1.0	1	0.08	blockFiles/set_6/main_safe/rightBlue\GB_RB_2.xlsx
6	main_safe	True	0.0	758	0	0.0	0.0	1.0	1	right	2.0	0.0	1.0	1	0.08	blockFiles/set_6/main_safe/rightBlue\GB_RB_2.xlsx
7	main_safe	True	0.0	758	0	0.0	0.0	0.0	1	left	1.0	1.0	1.0	0	-0.08	blockFiles/set_6/main_safe/rightBlue\GB_RB_2.xlsx
8	main_safe	True	0.0	758	0	0.0	0.0	0.0	1	left	1.0	1.0	1.0	0	-0.08	blockFiles/set_6/main_safe/rightBlue\GB_RB_2.xlsx
9	main_safe	True	0.0	758	0	0.0	0.0	1.0	1	right	1.0	0.0	0.0	1	0.08	blockFiles/set_6/main_safe/rightBlue\GB_RB_2.xlsx
10	main_safe	True	0.0	758	0	0.0	0.0	1.0	1	right	2.0	1.0	1.0	1	0.08	blockFiles/set_6/main_safe/rightBlue\GB_RB_2.xlsx
11	main_safe	True	0.0	758	0	0.0	0.0	1.0	1	right	2.0	0.0	1.0	1	0.08	blockFiles/set_6/main_safe/rightBlue\GB_RB_2.xlsx
12	main_safe	True	0.0	758	0	0.0	0.0	1.0	1	right	2.0	1.0	1.0	1	0.08	blockFiles/set_6/main_safe/rightBlue\GB_RB_2.xlsx
13	main_safe	True	0.0	758	0	0.0	0.0	0.0	1	left	1.0	1.0	1.0	0	-0.08	blockFiles/set_6/main_safe/rightBlue\GB_RB_2.xlsx
14	main_safe	True	0.0	758	0	0.0	0.0	1.0	1	right	2.0	1.0	1.0	1	0.08	blockFiles/set_6/main_safe/rightBlue\GB_RB_2.xlsx
15	main_safe	True	0.0	758	0	0.0	0.0	1.0	1	right	2.0	1.0	1.0	1	0.08	blockFiles/set_6/main_safe/rightBlue\GB_RB_2.xlsx
16	main_safe	True	0.0	758	0	0.0	0.0	0.0	1	left	1.0	0.0	1.0	0	-0.08	blockFiles/set_6/main_safe/rightBlue\GB_RB_2.xlsx
17	main_safe	True	0.0	758	0	0.0	0.0	1.0	1	right	2.0	1.0	1.0	1	0.08	blockFiles/set_6/main_safe/rightBlue\GB_RB_2.xlsx
18	main_safe	True	0.0	758	0	0.0	0.0	1.0	1	right	2.0	1.0	1.0	1	0.08	blockFiles/set_6/main_safe/rightBlue\GB_RB_2.xlsx
19	main_safe	True	0.0	758	0	0.0	0.0	0.0	1	left	1.0	1.0	1.0	0	-0.08	blockFiles/set_6/main_safe/rightBlue\GB_RB_2.xlsx
20	main_safe	True	0.0	758	0	0.0	0.0	0.0	1	left	1.0	1.0	1.0	0	-0.08	blockFiles/set_6/main_safe/rightBlue\GB_RB_2.xlsx
21	main_safe	True	0.0	758	0	0.0	0.0	1.0	1	right	2.0	0.0	1.0	1	0.08	blockFiles/set_6/main_safe/rightBlue\GB_RB_2.xlsx
22	main_safe	True	0.0	758	0	0.0	0.0	1.0	1	right	2.0	1.0	1.0	1	0.08	blockFiles/set_6/main_safe/rightBlue\GB_RB_2.xlsx
23	main_safe	True	0.0	758	0	0.0	0.0	0.0	1	left	1.0	1.0	1.0	0	-0.08	blockFiles/set_6/main_safe/rightBlue\GB_RB_2.xlsx
24	main_safe	True	0.0	758	0	0.0	0.0	1.0	1	right	2.0	0.0	1.0	1	0.08	blockFiles/set_6/main_safe/rightBlue\GB_RB_2.xlsx
25	main_safe	True	0.0	758	0	1.0	1.0	0.0	1	left	2.0	1.0	1.0	0	-0.08	blockFiles/set_6/main_safe/leftBlue\GB_LB_2.xlsx
26	main_safe	True	0.0	758	0	1.0	1.0	1.0	1	right	1.0	0.0	1.0	1	0.08	blockFiles/set_6/main_safe/leftBlue\GB_LB_2.xlsx
27	main_safe	True	0.0	758	0	1.0	1.0	1.0	1	right	2.0	0.0	0.0	1	0.08	blockFiles/set_6/main_safe/leftBlue\GB_LB_2.xlsx
28	main_safe	True	0.0	758	0	1.0	1.0	1.0	1	right	2.0	1.0	0.0	1	0.08	blockFiles/set_6/main_safe/leftBlue\GB_LB_2.xlsx
29	main_safe	True	0.0	758	0	1.0	1.0	0.0	1	left	1.0	0.0	0.0	0	-0.08	blockFiles/set_6/main_safe/leftBlue\GB_LB_2.xlsx
30	main_safe	True	0.0	758	0	1.0	1.0	0.0	1	left	1.0	0.0	0.0	0	-0.08	blockFiles/set_6/main_safe/leftBlue\GB_LB_2.xlsx
31	main_safe	True	0.0	758	0	1.0	1.0	0.0	1	left	2.0	1.0	1.0	0	-0.08	blockFiles/set_6/main_safe/leftBlue\GB_LB_2.xlsx
32	main_safe	True	0.0	758	0	1.0	1.0	1.0	1	right	1.0	1.0	1.0	1	0.08	blockFiles/set_6/main_safe/leftBlue\GB_LB_2.xlsx
33	main_safe	True	0.0	758	0	1.0	1.0	0.0	1	left	2.0	0.0	1.0	0	-0.08	blockFiles/set_6/main_safe/leftBlue\GB_LB_2.xlsx
34	main_safe	True	0.0	758	0	1.0	1.0	1.0	1	right	1.0	1.0	1.0	1	0.08	blockFiles/set_6/main_safe/leftBlue\GB_LB_2.xlsx
35	main_safe	True	0.0	758	0	1.0	1.0	0.0	1	left	2.0	1.0	1.0	0	-0.08	blockFiles/set_6/main_safe/leftBlue\GB_LB_2.xlsx
36	main_safe	True	0.0	758	0	1.0	1.0	0.0	1	left	2.0	1.0	1.0	0	-0.08	blockFiles/set_6/main_safe/leftBlue\GB_LB_2.xlsx
37	main_safe	True	0.0	758	0	1.0	1.0	0.0	1	left	2.0	1.0	1.0	0	-0.08	blockFiles/set_6/main_safe/leftBlue\GB_LB_2.xlsx
38	main_safe	True	0.0	758	0	1.0	1.0	0.0	1	left	2.0	1.0	1.0	0	-0.08	blockFiles/set_6/main_safe/leftBlue\GB_LB_2.xlsx
39	main_safe	True	0.0	758	0	1.0	1.0	0.0	1	left	2.0	0.0	1.0	0	-0.08	blockFiles/set_6/main_safe/leftBlue\GB_LB_2.xlsx
40	main_safe	True	0.0	758	0	1.0	1.0	0.0	1	left	2.0	0.0	1.0	0	-0.08	blockFiles/set_6/main_safe/leftBlue\GB_LB_2.xlsx
41	main_safe	True	0.0	758	0	1.0	1.0	1.0	1	right	1.0	1.0	1.0	1	0.08	blockFiles/set_6/main_safe/leftBlue\GB_LB_2.xlsx
42	main_safe	True	0.0	758	0	1.0	1.0	0.0	1	left	2.0	1.0	1.0	0	-0.08	blockFiles/set_6/main_safe/leftBlue\GB_LB_2.xlsx
43	main_safe	True	0.0	758	0	1.0	1.0	1.0	1	right	1.0	1.0	1.0	1	0.08	blockFiles/set_6/main_safe/leftBlue\GB_LB_2.xlsx
44	main_safe	True	0.0	758	0	1.0	1.0	0.0	1	left	2.0	1.0	1.0	0	-0.08	blockFiles/set_6/main_safe/leftBlue\GB_LB_2.xlsx
45	main_safe	True	0.0	758	0	1.0	1.0	1.0	1	right	1.0	1.0	1.0	1	0.08	blockFiles/set_6/main_safe/leftBlue\GB_LB_2.xlsx
46	main_safe	True	0.0	758	0	1.0	1.0	1.0	1	right	1.0	1.0	1.0	1	0.08	blockFiles/set_6/main_safe/leftBlue\GB_LB_2.xlsx
47	main_safe	True	0.0	758	0	1.0	1.0	1.0	1	right	1.0	1.0	1.0	1	0.08	blockFiles/set_6/main_safe/leftBlue\GB_LB_2.xlsx
48	main_safe	True	0.0	758	0	1.0	1.0	1.0	1	right	1.0	0.0	1.0	1	0.08	blockFiles/set_6/main_safe/leftBlue\GB_LB_2.xlsx
49	main_safe	True	0.0	758	0	1.0	1.0	0.0	1	left	2.0	1.0	1.0	0	-0.08	blockFiles/set_6/main_safe/leftBlue\GB_LB_2.xlsx
50	main_safe	True	0.0	758	0	2.0	2.0	1.0	1	right	2.0	0.0	0.0	1	0.08	blockFiles/set_6/main_safe/leftBlue\GB_LB_1.xlsx
51	main_safe	True	0.0	758	0	2.0	2.0	0.0	1	left	1.0	0.0	0.0	0	-0.08	blockFiles/set_6/main_safe/leftBlue\GB_LB_1.xlsx
52	main_safe	True	0.0	758	0	2.0	2.0	1.0	1	right	1.0	1.0	1.0	1	0.08	blockFiles/set_6/main_safe/leftBlue\GB_LB_1.xlsx
53	main_safe	True	0.0	758	0	2.0	2.0	1.0	1	right	1.0	1.0	1.0	1	0.08	blockFiles/set_6/main_safe/leftBlue\GB_LB_1.xlsx
54	main_safe	True	0.0	758	0	2.0	2.0	1.0	1	right	1.0	0.0	1.0	1	0.08	blockFiles/set_6/main_safe/leftBlue\GB_LB_1.xlsx
55	main_safe	True	0.0	758	0	2.0	2.0	1.0	1	right	1.0	1.0	1.0	1	0.08	blockFiles/set_6/main_safe/leftBlue\GB_LB_1.xlsx
56	main_safe	True	0.0	758	0	2.0	2.0	0.0	1	left	2.0	1.0	1.0	0	-0.08	blockFiles/set_6/main_safe/leftBlue\GB_LB_1.xlsx
57	main_safe	True	0.0	758	0	2.0	2.0	1.0	1	right	1.0	1.0	1.0	1	0.08	blockFiles/set_6/main_safe/leftBlue\GB_LB_1.xlsx
58	main_safe	True	0.0	758	0	2.0	2.0	1.0	1	right	1.0	1.0	1.0	1	0.08	blockFiles/set_6/main_safe/leftBlue\GB_LB_1.xlsx
59	main_safe	True	0.0	758	0	2.0	2.0	0.0	1	left	2.0	0.0	1.0	0	-0.08	blockFiles/set_6/main_safe/leftBlue\GB_LB_1.xlsx
60	main_safe	True	0.0	758	0	2.0	2.0	1.0	1	right	1.0	0.0	1.0	1	0.08	blockFiles/set_6/main_safe/leftBlue\GB_LB_1.xlsx
61	main_safe	True	0.0	758	0	2.0	2.0	1.0	1	right	1.0	1.0	1.0	1	0.08	blockFiles/set_6/main_safe/leftBlue\GB_LB_1.xlsx
62	main_safe	True	0.0	758	0	2.0	2.0	0.0	1	left	2.0	0.0	1.0	0	-0.08	blockFiles/set_6/main_safe/leftBlue\GB_LB_1.xlsx
63	main_safe	True	0.0	758	0	2.0	2.0	1.0	1	right	1.0	1.0	1.0	1	0.08	blockFiles/set_6/main_safe/leftBlue\GB_LB_1.xlsx
64	main_safe	True	0.0	758	0	2.0	2.0	0.0	1	left	2.0	0.0	1.0	0	-0.08	blockFiles/set_6/main_safe/leftBlue\GB_LB_1.xlsx
65	main_safe	True	0.0	758	0	2.0	2.0	0.0	1	left	2.0	1.0	1.0	0	-0.08	blockFiles/set_6/main_safe/leftBlue\GB_LB_1.xlsx
66	main_safe	True	0.0	758	0	2.0	2.0	0.0	1	left	2.0	1.0	1.0	0	-0.08	blockFiles/set_6/main_safe/leftBlue\GB_LB_1.xlsx
67	main_safe	True	0.0	758	0	2.0	2.0	0.0	1	left	2.0	1.0	1.0	0	-0.08	blockFiles/set_6/main_safe/leftBlue\GB_LB_1.xlsx
68	main_safe	True	0.0	758	0	2.0	2.0	0.0	1	left	2.0	1.0	1.0	0	-0.08	blockFiles/set_6/main_safe/leftBlue\GB_LB_1.xlsx
69	main_safe	True	0.0	758	0	2.0	2.0	1.0	1	right	1.0	1.0	1.0	1	0.08	blockFiles/set_6/main_safe/leftBlue\GB_LB_1.xlsx
70	main_safe	True	0.0	758	0	2.0	2.0	0.0	1	left	2.0	0.0	1.0	0	-0.08	blockFiles/set_6/main_safe/leftBlue\GB_LB_1.xlsx
71	main_safe	True	0.0	758	0	2.0	2.0	1.0	1	right	1.0	1.0	1.0	1	0.08	blockFiles/set_6/main_safe/leftBlue\GB_LB_1.xlsx
72	main_safe	True	0.0	758	0	2.0	2.0	1.0	1	right	1.0	1.0	1.0	1	0.08	blockFiles/set_6/main_safe/leftBlue\GB_LB_1.xlsx
73	main_safe	True	0.0	758	0	2.0	2.0	0.0	1	left	2.0	1.0	1.0	0	-0.08	blockFiles/set_6/main_safe/leftBlue\GB_LB_1.xlsx
74	main_safe	True	0.0	758	0	2.0	2.0	0.0	1	left	2.0	1.0	1.0	0	-0.08	blockFiles/set_6/main_safe/leftBlue\GB_LB_1.xlsx
75	main_safe	True	0.0	758	0	3.0	3.0	1.0	1	right	2.0	1.0	1.0	1	0.08	blockFiles/set_6/main_safe/rightBlue\GB_RB_3.xlsx
76	main_safe	True	0.0	758	0	3.0	3.0	0.0	1	left	1.0	1.0	1.0	0	-0.08	blockFiles/set_6/main_safe/rightBlue\GB_RB_3.xlsx
77	main_safe	True	0.0	758	0	3.0	3.0	0.0	1	left	1.0	0.0	1.0	0	-0.08	blockFiles/set_6/main_safe/rightBlue\GB_RB_3.xlsx
78	main_safe	True	0.0	758	0	3.0	3.0	1.0	1	right	2.0	0.0	1.0	1	0.08	blockFiles/set_6/main_safe/rightBlue\GB_RB_3.xlsx
79	main_safe	True	0.0	758	0	3.0	3.0	1.0	1	right	2.0	1.0	1.0	1	0.08	blockFiles/set_6/main_safe/rightBlue\GB_RB_3.xlsx
80	main_safe	True	0.0	758	0	3.0	3.0	0.0	1	left	1.0	0.0	1.0	0	-0.08	blockFiles/set_6/main_safe/rightBlue\GB_RB_3.xlsx
81	main_safe	True	0.0	758	0	3.0	3.0	1.0	1	right	2.0	1.0	1.0	1	0.08	blockFiles/set_6/main_safe/rightBlue\GB_RB_3.xlsx
82	main_safe	True	0.0	758	0	3.0	3.0	1.0	1	right	2.0	1.0	1.0	1	0.08	blockFiles/set_6/main_safe/rightBlue\GB_RB_3.xlsx
83	main_safe	True	0.0	758	0	3.0	3.0	0.0	1	left	1.0	1.0	1.0	0	-0.08	blockFiles/set_6/main_safe/rightBlue\GB_RB_3.xlsx
84	main_safe	True	0.0	758	0	3.0	3.0	1.0	1	right	2.0	1.0	1.0	1	0.08	blockFiles/set_6/main_safe/rightBlue\GB_RB_3.xlsx
85	main_safe	True	0.0	758	0	3.0	3.0	0.0	1	left	1.0	1.0	1.0	0	-0.08	blockFiles/set_6/main_safe/rightBlue\GB_RB_3.xlsx
86	main_safe	True	1.0	758	0	3.0	3.0	1.0	1	right	n/a	0.0	n/a	1	0.08	blockFiles/set_6/main_safe/rightBlue\GB_RB_3.xlsx
87	main_safe	True	0.0	758	0	3.0	3.0	0.0	1	left	1.0	0.0	1.0	0	-0.08	blockFiles/set_6/main_safe/rightBlue\GB_RB_3.xlsx
88	main_safe	True	0.0	758	0	3.0	3.0	1.0	1	right	2.0	1.0	1.0	1	0.08	blockFiles/set_6/main_safe/rightBlue\GB_RB_3.xlsx
89	main_safe	True	0.0	758	0	3.0	3.0	1.0	1	right	2.0	1.0	1.0	1	0.08	blockFiles/set_6/main_safe/rightBlue\GB_RB_3.xlsx
90	main_safe	True	0.0	758	0	3.0	3.0	1.0	1	right	2.0	1.0	1.0	1	0.08	blockFiles/set_6/main_safe/rightBlue\GB_RB_3.xlsx
91	main_safe	True	0.0	758	0	3.0	3.0	0.0	1	left	1.0	1.0	1.0	0	-0.08	blockFiles/set_6/main_safe/rightBlue\GB_RB_3.xlsx
92	main_safe	True	0.0	758	0	3.0	3.0	1.0	1	right	2.0	0.0	1.0	1	0.08	blockFiles/set_6/main_safe/rightBlue\GB_RB_3.xlsx
93	main_safe	True	0.0	758	0	3.0	3.0	1.0	1	right	2.0	1.0	1.0	1	0.08	blockFiles/set_6/main_safe/rightBlue\GB_RB_3.xlsx
94	main_safe	True	0.0	758	0	3.0	3.0	1.0	1	right	2.0	1.0	1.0	1	0.08	blockFiles/set_6/main_safe/rightBlue\GB_RB_3.xlsx
95	main_safe	True	1.0	758	0	3.0	3.0	0.0	1	left	n/a	0.0	n/a	0	-0.08	blockFiles/set_6/main_safe/rightBlue\GB_RB_3.xlsx
96	main_safe	True	0.0	758	0	3.0	3.0	0.0	1	left	1.0	1.0	1.0	0	-0.08	blockFiles/set_6/main_safe/rightBlue\GB_RB_3.xlsx
97	main_safe	True	0.0	758	0	3.0	3.0	0.0	1	left	1.0	0.0	1.0	0	-0.08	blockFiles/set_6/main_safe/rightBlue\GB_RB_3.xlsx
98	main_safe	True	0.0	758	0	3.0	3.0	0.0	1	left	1.0	1.0	1.0	0	-0.08	blockFiles/set_6/main_safe/rightBlue\GB_RB_3.xlsx
99	main_safe	True	0.0	758	0	3.0	3.0	0.0	1	left	1.0	1.0	1.0	0	-0.08	blockFiles/set_6/main_safe/rightBlue\GB_RB_3.xlsx
100	main_safe	True	0.0	758	0	3.0	3.0	1.0	1	right	2.0	1.0	1.0	1	0.08	blockFiles/set_6/main_safe/rightBlue\GB_RB_3.xlsx
101	main_safe	True	0.0	758	0	3.0	3.0	0.0	1	left	2.0	0.0	0.0	0	-0.08	blockFiles/set_6/main_safe/rightBlue\GB_RB_3.xlsx
102	main_safe	True	0.0	758	0	4.0	4.0	0.0	1	left	2.0	1.0	0.0	0	-0.08	blockFiles/set_6/main_safe/rightBlue\GB_RB_1.xlsx
103	main_safe	True	0.0	758	0	4.0	4.0	0.0	1	left	2.0	0.0	0.0	0	-0.08	blockFiles/set_6/main_safe/rightBlue\GB_RB_1.xlsx
104	main_safe	True	0.0	758	0	4.0	4.0	1.0	1	right	1.0	0.0	0.0	1	0.08	blockFiles/set_6/main_safe/rightBlue\GB_RB_1.xlsx
105	main_safe	True	0.0	758	0	4.0	4.0	0.0	1	left	1.0	1.0	1.0	0	-0.08	blockFiles/set_6/main_safe/rightBlue\GB_RB_1.xlsx
106	main_safe	True	0.0	758	0	4.0	4.0	1.0	1	right	2.0	0.0	1.0	1	0.08	blockFiles/set_6/main_safe/rightBlue\GB_RB_1.xlsx
107	main_safe	True	0.0	758	0	4.0	4.0	0.0	1	left	1.0	1.0	1.0	0	-0.08	blockFiles/set_6/main_safe/rightBlue\GB_RB_1.xlsx
108	main_safe	True	0.0	758	0	4.0	4.0	0.0	1	left	1.0	1.0	1.0	0	-0.08	blockFiles/set_6/main_safe/rightBlue\GB_RB_1.xlsx
109	main_safe	True	0.0	758	0	4.0	4.0	1.0	1	right	1.0	1.0	0.0	1	0.08	blockFiles/set_6/main_safe/rightBlue\GB_RB_1.xlsx
110	main_safe	True	0.0	758	0	4.0	4.0	1.0	1	right	2.0	0.0	1.0	1	0.08	blockFiles/set_6/main_safe/rightBlue\GB_RB_1.xlsx
111	main_safe	True	0.0	758	0	4.0	4.0	1.0	1	right	2.0	1.0	1.0	1	0.08	blockFiles/set_6/main_safe/rightBlue\GB_RB_1.xlsx
112	main_safe	True	0.0	758	0	4.0	4.0	0.0	1	left	1.0	1.0	1.0	0	-0.08	blockFiles/set_6/main_safe/rightBlue\GB_RB_1.xlsx
113	main_safe	True	0.0	758	0	4.0	4.0	0.0	1	left	1.0	0.0	1.0	0	-0.08	blockFiles/set_6/main_safe/rightBlue\GB_RB_1.xlsx
114	main_safe	True	0.0	758	0	4.0	4.0	1.0	1	right	2.0	1.0	1.0	1	0.08	blockFiles/set_6/main_safe/rightBlue\GB_RB_1.xlsx
115	main_safe	True	0.0	758	0	4.0	4.0	1.0	1	right	2.0	1.0	1.0	1	0.08	blockFiles/set_6/main_safe/rightBlue\GB_RB_1.xlsx
116	main_safe	True	0.0	758	0	4.0	4.0	1.0	1	right	2.0	1.0	1.0	1	0.08	blockFiles/set_6/main_safe/rightBlue\GB_RB_1.xlsx
117	main_safe	True	0.0	758	0	4.0	4.0	1.0	1	right	2.0	1.0	1.0	1	0.08	blockFiles/set_6/main_safe/rightBlue\GB_RB_1.xlsx
118	main_safe	True	0.0	758	0	4.0	4.0	1.0	1	right	2.0	1.0	1.0	1	0.08	blockFiles/set_6/main_safe/rightBlue\GB_RB_1.xlsx
119	main_safe	True	0.0	758	0	4.0	4.0	0.0	1	left	1.0	1.0	1.0	0	-0.08	blockFiles/set_6/main_safe/rightBlue\GB_RB_1.xlsx
120	main_safe	True	0.0	758	0	4.0	4.0	0.0	1	left	1.0	1.0	1.0	0	-0.08	blockFiles/set_6/main_safe/rightBlue\GB_RB_1.xlsx
121	main_safe	True	0.0	758	0	4.0	4.0	0.0	1	left	1.0	1.0	1.0	0	-0.08	blockFiles/set_6/main_safe/rightBlue\GB_RB_1.xlsx
122	main_safe	True	0.0	758	0	4.0	4.0	1.0	1	right	2.0	1.0	1.0	1	0.08	blockFiles/set_6/main_safe/rightBlue\GB_RB_1.xlsx
123	main_safe	True	0.0	758	0	4.0	4.0	0.0	1	left	1.0	1.0	1.0	0	-0.08	blockFiles/set_6/main_safe/rightBlue\GB_RB_1.xlsx
124	main_safe	True	0.0	758	0	4.0	4.0	0.0	1	left	1.0	1.0	1.0	0	-0.08	blockFiles/set_6/main_safe/rightBlue\GB_RB_1.xlsx
125	main_safe	True	0.0	758	0	4.0	4.0	0.0	1	left	1.0	1.0	1.0	0	-0.08	blockFiles/set_6/main_safe/rightBlue\GB_RB_1.xlsx
126	main_safe	True	0.0	758	0	4.0	4.0	1.0	1	right	2.0	1.0	1.0	1	0.08	blockFiles/set_6/main_safe/rightBlue\GB_RB_1.xlsx
127	main_safe	True	0.0	758	0	5.0	5.0	0.0	1	left	2.0	1.0	1.0	0	-0.08	blockFiles/set_6/main_safe/leftBlue\GB_LB_3.xlsx
128	main_safe	True	0.0	758	0	5.0	5.0	0.0	1	left	2.0	1.0	1.0	0	-0.08	blockFiles/set_6/main_safe/leftBlue\GB_LB_3.xlsx
129	main_safe	True	0.0	758	0	5.0	5.0	0.0	1	left	2.0	1.0	1.0	0	-0.08	blockFiles/set_6/main_safe/leftBlue\GB_LB_3.xlsx
130	main_safe	True	0.0	758	0	5.0	5.0	1.0	1	right	1.0	1.0	1.0	1	0.08	blockFiles/set_6/main_safe/leftBlue\GB_LB_3.xlsx
131	main_safe	True	0.0	758	0	5.0	5.0	1.0	1	right	1.0	1.0	1.0	1	0.08	blockFiles/set_6/main_safe/leftBlue\GB_LB_3.xlsx
132	main_safe	True	0.0	758	0	5.0	5.0	1.0	1	right	1.0	1.0	1.0	1	0.08	blockFiles/set_6/main_safe/leftBlue\GB_LB_3.xlsx
133	main_safe	True	0.0	758	0	5.0	5.0	1.0	1	right	1.0	1.0	1.0	1	0.08	blockFiles/set_6/main_safe/leftBlue\GB_LB_3.xlsx
134	main_safe	True	0.0	758	0	5.0	5.0	1.0	1	right	1.0	0.0	1.0	1	0.08	blockFiles/set_6/main_safe/leftBlue\GB_LB_3.xlsx
135	main_safe	True	0.0	758	0	5.0	5.0	0.0	1	left	2.0	1.0	1.0	0	-0.08	blockFiles/set_6/main_safe/leftBlue\GB_LB_3.xlsx
136	main_safe	True	0.0	758	0	5.0	5.0	0.0	1	left	1.0	1.0	0.0	0	-0.08	blockFiles/set_6/main_safe/leftBlue\GB_LB_3.xlsx
137	main_safe	True	0.0	758	0	5.0	5.0	0.0	1	left	1.0	0.0	0.0	0	-0.08	blockFiles/set_6/main_safe/leftBlue\GB_LB_3.xlsx
138	main_safe	True	0.0	758	0	5.0	5.0	0.0	1	left	1.0	1.0	0.0	0	-0.08	blockFiles/set_6/main_safe/leftBlue\GB_LB_3.xlsx
139	main_safe	True	0.0	758	0	5.0	5.0	0.0	1	left	1.0	0.0	0.0	0	-0.08	blockFiles/set_6/main_safe/leftBlue\GB_LB_3.xlsx
140	main_safe	True	0.0	758	0	5.0	5.0	1.0	1	right	2.0	0.0	0.0	1	0.08	blockFiles/set_6/main_safe/leftBlue\GB_LB_3.xlsx
141	main_safe	True	0.0	758	0	5.0	5.0	0.0	1	left	2.0	1.0	1.0	0	-0.08	blockFiles/set_6/main_safe/leftBlue\GB_LB_3.xlsx
142	main_safe	True	0.0	758	0	5.0	5.0	0.0	1	left	2.0	1.0	1.0	0	-0.08	blockFiles/set_6/main_safe/leftBlue\GB_LB_3.xlsx
143	main_safe	True	0.0	758	0	5.0	5.0	0.0	1	left	2.0	1.0	1.0	0	-0.08	blockFiles/set_6/main_safe/leftBlue\GB_LB_3.xlsx
144	main_safe	True	0.0	758	0	5.0	5.0	1.0	1	right	1.0	0.0	1.0	1	0.08	blockFiles/set_6/main_safe/leftBlue\GB_LB_3.xlsx
145	main_safe	True	0.0	758	0	5.0	5.0	1.0	1	right	1.0	1.0	1.0	1	0.08	blockFiles/set_6/main_safe/leftBlue\GB_LB_3.xlsx
146	main_safe	True	0.0	758	0	5.0	5.0	1.0	1	right	1.0	1.0	1.0	1	0.08	blockFiles/set_6/main_safe/leftBlue\GB_LB_3.xlsx
147	main_safe	True	0.0	758	0	5.0	5.0	1.0	1	right	1.0	1.0	1.0	1	0.08	blockFiles/set_6/main_safe/leftBlue\GB_LB_3.xlsx
148	main_safe	True	0.0	758	0	5.0	5.0	0.0	1	left	2.0	1.0	1.0	0	-0.08	blockFiles/set_6/main_safe/leftBlue\GB_LB_3.xlsx
149	main_safe	True	0.0	758	0	5.0	5.0	1.0	1	right	1.0	1.0	1.0	1	0.08	blockFiles/set_6/main_safe/leftBlue\GB_LB_3.xlsx
150	main_safe	True	0.0	758	0	5.0	5.0	1.0	1	right	1.0	1.0	1.0	1	0.08	blockFiles/set_6/main_safe/leftBlue\GB_LB_3.xlsx
151	main_safe	True	0.0	758	0	5.0	5.0	1.0	1	right	1.0	0.0	1.0	1	0.08	blockFiles/set_6/main_safe/leftBlue\GB_LB_3.xlsx
152	patches	True	n/a	758	0	n/a	n/a	0.0	1	left	n/a	n/a	n/a	0	-0.07195112358780001	blockFiles/set_6/main_PD/GB_runPatches1.xlsx
153	patches	True	n/a	758	0	n/a	n/a	0.0	1	left	n/a	n/a	n/a	0	-0.023360660038900003	blockFiles/set_6/main_PD/GB_runPatches1.xlsx
154	patches	True	n/a	758	0	n/a	n/a	1.0	1	right	n/a	n/a	n/a	1	0.056464406177400006	blockFiles/set_6/main_PD/GB_runPatches1.xlsx
155	patches	True	n/a	758	0	n/a	n/a	0.0	1	left	n/a	n/a	n/a	0	-0.0056258317083100005	blockFiles/set_6/main_PD/GB_runPatches1.xlsx
156	patches	True	n/a	758	0	n/a	n/a	0.0	1	left	n/a	n/a	n/a	0	-0.046468425523499994	blockFiles/set_6/main_PD/GB_runPatches1.xlsx
157	patches	True	n/a	758	0	n/a	n/a	0.0	1	left	n/a	n/a	n/a	0	-0.0733819675259	blockFiles/set_6/main_PD/GB_runPatches1.xlsx
158	patches	True	n/a	758	0	n/a	n/a	1.0	1	right	n/a	n/a	n/a	1	0.0782837662473	blockFiles/set_6/main_PD/GB_runPatches1.xlsx
159	patches	True	n/a	758	0	n/a	n/a	n/a	0	None	n/a	n/a	n/a	1	0.0116244731471	blockFiles/set_6/main_PD/GB_runPatches1.xlsx
160	patches	True	n/a	758	0	n/a	n/a	0.0	1	left	n/a	n/a	n/a	0	-0.0055650197341999995	blockFiles/set_6/main_PD/GB_runPatches1.xlsx
161	patches	True	n/a	758	0	n/a	n/a	0.0	1	left	n/a	n/a	n/a	0	-0.00942229777575	blockFiles/set_6/main_PD/GB_runPatches1.xlsx
162	patches	True	n/a	758	0	n/a	n/a	0.0	1	left	n/a	n/a	n/a	0	-0.0758662252501	blockFiles/set_6/main_PD/GB_runPatches1.xlsx
163	patches	True	n/a	758	0	n/a	n/a	0.0	0	left	n/a	n/a	n/a	1	0.045635160617500004	blockFiles/set_6/main_PD/GB_runPatches1.xlsx
164	patches	True	n/a	758	0	n/a	n/a	0.0	0	left	n/a	n/a	n/a	1	0.04744367199019999	blockFiles/set_6/main_PD/GB_runPatches1.xlsx
165	patches	True	n/a	758	0	n/a	n/a	0.0	0	left	n/a	n/a	n/a	1	0.035787167400099996	blockFiles/set_6/main_PD/GB_runPatches1.xlsx
166	patches	True	n/a	758	0	n/a	n/a	1.0	1	right	n/a	n/a	n/a	1	0.0248206778057	blockFiles/set_6/main_PD/GB_runPatches1.xlsx
167	patches	True	n/a	758	0	n/a	n/a	0.0	0	left	n/a	n/a	n/a	1	0.025288851037599997	blockFiles/set_6/main_PD/GB_runPatches1.xlsx
168	patches	True	n/a	758	0	n/a	n/a	0.0	1	left	n/a	n/a	n/a	0	-0.059288932215400006	blockFiles/set_6/main_PD/GB_runPatches1.xlsx
169	patches	True	n/a	758	0	n/a	n/a	1.0	1	right	n/a	n/a	n/a	1	0.0334556856193	blockFiles/set_6/main_PD/GB_runPatches1.xlsx
170	patches	True	n/a	758	0	n/a	n/a	0.0	1	left	n/a	n/a	n/a	0	-0.0427550816908	blockFiles/set_6/main_PD/GB_runPatches1.xlsx
171	patches	True	n/a	758	0	n/a	n/a	0.0	1	left	n/a	n/a	n/a	0	-0.0360857889056	blockFiles/set_6/main_PD/GB_runPatches1.xlsx
172	patches	True	n/a	758	0	n/a	n/a	0.0	1	left	n/a	n/a	n/a	0	-0.025061168968700004	blockFiles/set_6/main_PD/GB_runPatches1.xlsx
173	patches	True	n/a	758	0	n/a	n/a	0.0	1	left	n/a	n/a	n/a	0	-0.032826627381099996	blockFiles/set_6/main_PD/GB_runPatches1.xlsx
174	patches	True	n/a	758	0	n/a	n/a	0.0	1	left	n/a	n/a	n/a	0	-0.0791821590811	blockFiles/set_6/main_PD/GB_runPatches1.xlsx
175	patches	True	n/a	758	0	n/a	n/a	1.0	1	right	n/a	n/a	n/a	1	0.0325831276923	blockFiles/set_6/main_PD/GB_runPatches1.xlsx
176	patches	True	n/a	758	0	n/a	n/a	0.0	1	left	n/a	n/a	n/a	0	-0.04613293198869999	blockFiles/set_6/main_PD/GB_runPatches1.xlsx
177	patches	True	n/a	758	0	n/a	n/a	1.0	1	right	n/a	n/a	n/a	1	0.00257927462459	blockFiles/set_6/main_PD/GB_runPatches1.xlsx
178	patches	True	n/a	758	0	n/a	n/a	1.0	1	right	n/a	n/a	n/a	1	0.0659956295043	blockFiles/set_6/main_PD/GB_runPatches1.xlsx
179	patches	True	n/a	758	0	n/a	n/a	0.0	1	left	n/a	n/a	n/a	0	-0.037269058171699995	blockFiles/set_6/main_PD/GB_runPatches1.xlsx
180	patches	True	n/a	758	0	n/a	n/a	0.0	1	left	n/a	n/a	n/a	0	-0.006213108729569999	blockFiles/set_6/main_PD/GB_runPatches1.xlsx
181	patches	True	n/a	758	0	n/a	n/a	0.0	1	left	n/a	n/a	n/a	0	-0.0687942386232	blockFiles/set_6/main_PD/GB_runPatches1.xlsx
182	patches	True	n/a	758	0	n/a	n/a	1.0	1	right	n/a	n/a	n/a	1	0.019734318573	blockFiles/set_6/main_PD/GB_runPatches1.xlsx
183	patches	True	n/a	758	0	n/a	n/a	0.0	1	left	n/a	n/a	n/a	0	-0.050292915497000004	blockFiles/set_6/main_PD/GB_runPatches1.xlsx
184	patches	True	n/a	758	0	n/a	n/a	0.0	1	left	n/a	n/a	n/a	0	-0.006972769331189999	blockFiles/set_6/main_PD/GB_runPatches1.xlsx
185	patches	True	n/a	758	0	n/a	n/a	1.0	1	right	n/a	n/a	n/a	1	0.030093394257099997	blockFiles/set_6/main_PD/GB_runPatches1.xlsx
186	patches	True	n/a	758	0	n/a	n/a	1.0	1	right	n/a	n/a	n/a	1	0.0400758814812	blockFiles/set_6/main_PD/GB_runPatches1.xlsx
187	patches	True	n/a	758	0	n/a	n/a	0.0	1	left	n/a	n/a	n/a	0	-0.030404198318699997	blockFiles/set_6/main_PD/GB_runPatches1.xlsx
188	patches	True	n/a	758	0	n/a	n/a	1.0	0	right	n/a	n/a	n/a	0	-0.0236640175804	blockFiles/set_6/main_PD/GB_runPatches1.xlsx
189	patches	True	n/a	758	0	n/a	n/a	1.0	1	right	n/a	n/a	n/a	1	0.058044572603	blockFiles/set_6/main_PD/GB_runPatches1.xlsx
190	patches	True	n/a	758	0	n/a	n/a	0.0	1	left	n/a	n/a	n/a	0	-0.0352575718425	blockFiles/set_6/main_PD/GB_runPatches1.xlsx
191	patches	True	n/a	758	0	n/a	n/a	1.0	1	right	n/a	n/a	n/a	1	0.0736303662136	blockFiles/set_6/main_PD/GB_runPatches1.xlsx
192	patches	True	n/a	758	0	n/a	n/a	1.0	1	right	n/a	n/a	n/a	1	0.00854432256892	blockFiles/set_6/main_PD/GB_runPatches1.xlsx
193	patches	True	n/a	758	0	n/a	n/a	1.0	1	right	n/a	n/a	n/a	1	0.0580668327026	blockFiles/set_6/main_PD/GB_runPatches1.xlsx
194	patches	True	n/a	758	0	n/a	n/a	1.0	1	right	n/a	n/a	n/a	1	0.024210637845099997	blockFiles/set_6/main_PD/GB_runPatches1.xlsx
195	patches	True	n/a	758	0	n/a	n/a	1.0	1	right	n/a	n/a	n/a	1	0.023450333457400004	blockFiles/set_6/main_PD/GB_runPatches1.xlsx
196	patches	True	n/a	758	0	n/a	n/a	0.0	1	left	n/a	n/a	n/a	0	-0.0371960400976	blockFiles/set_6/main_PD/GB_runPatches1.xlsx
197	patches	True	n/a	758	0	n/a	n/a	1.0	1	right	n/a	n/a	n/a	1	0.0558596134186	blockFiles/set_6/main_PD/GB_runPatches1.xlsx
198	patches	True	n/a	758	0	n/a	n/a	0.0	1	left	n/a	n/a	n/a	0	-0.0786462617293	blockFiles/set_6/main_PD/GB_runPatches1.xlsx
199	patches	True	n/a	758	0	n/a	n/a	1.0	0	right	n/a	n/a	n/a	0	-0.029206175822799996	blockFiles/set_6/main_PD/GB_runPatches1.xlsx
200	patches	True	n/a	758	0	n/a	n/a	1.0	1	right	n/a	n/a	n/a	1	0.04525992015380001	blockFiles/set_6/main_PD/GB_runPatches1.xlsx
201	patches	True	n/a	758	0	n/a	n/a	1.0	1	right	n/a	n/a	n/a	1	0.0644446143135	blockFiles/set_6/main_PD/GB_runPatches1.xlsx
202	patches	True	n/a	758	0	n/a	n/a	n/a	0	None	n/a	n/a	n/a	1	0.0139106581733	blockFiles/set_6/main_PD/GB_runPatches1.xlsx
203	patches	True	n/a	758	0	n/a	n/a	0.0	0	left	n/a	n/a	n/a	1	0.013767391163899998	blockFiles/set_6/main_PD/GB_runPatches1.xlsx
204	patches	True	n/a	758	0	n/a	n/a	0.0	1	left	n/a	n/a	n/a	0	-0.0758028853685	blockFiles/set_6/main_PD/GB_runPatches1.xlsx
205	patches	True	n/a	758	0	n/a	n/a	1.0	1	right	n/a	n/a	n/a	1	0.058112116754099996	blockFiles/set_6/main_PD/GB_runPatches1.xlsx
206	patches	True	n/a	758	0	n/a	n/a	1.0	1	right	n/a	n/a	n/a	1	0.014918923229	blockFiles/set_6/main_PD/GB_runPatches1.xlsx
207	patches	True	n/a	758	0	n/a	n/a	0.0	1	left	n/a	n/a	n/a	0	-0.0038459096103899996	blockFiles/set_6/main_PD/GB_runPatches1.xlsx
208	patches	True	n/a	758	0	n/a	n/a	0.0	1	left	n/a	n/a	n/a	0	-0.07942230243239999	blockFiles/set_6/main_PD/GB_runPatches1.xlsx
209	patches	True	n/a	758	0	n/a	n/a	1.0	1	right	n/a	n/a	n/a	1	0.0366827303544	blockFiles/set_6/main_PD/GB_runPatches1.xlsx
210	patches	True	n/a	758	0	n/a	n/a	1.0	1	right	n/a	n/a	n/a	1	0.0736825929768	blockFiles/set_6/main_PD/GB_runPatches1.xlsx
211	patches	True	n/a	758	0	n/a	n/a	0.0	1	left	n/a	n/a	n/a	0	-0.052095667365899996	blockFiles/set_6/main_PD/GB_runPatches1.xlsx
212	patches	True	n/a	758	0	n/a	n/a	1.0	1	right	n/a	n/a	n/a	1	0.00729647137225	blockFiles/set_6/main_PD/GB_runPatches1.xlsx
213	patches	True	n/a	758	0	n/a	n/a	1.0	1	right	n/a	n/a	n/a	1	0.0386865386926	blockFiles/set_6/main_PD/GB_runPatches1.xlsx
214	patches	True	n/a	758	0	n/a	n/a	0.0	1	left	n/a	n/a	n/a	0	-0.0246514536813	blockFiles/set_6/main_PD/GB_runPatches1.xlsx
215	patches	True	n/a	758	0	n/a	n/a	1.0	1	right	n/a	n/a	n/a	1	0.0599109822325	blockFiles/set_6/main_PD/GB_runPatches1.xlsx
216	patches	True	n/a	758	0	n/a	n/a	0.0	1	left	n/a	n/a	n/a	0	-0.07432241462169999	blockFiles/set_6/main_PD/GB_runPatches1.xlsx
217	patches	True	n/a	758	0	n/a	n/a	1.0	1	right	n/a	n/a	n/a	1	0.0583344400488	blockFiles/set_6/main_PD/GB_runPatches1.xlsx
218	patches	True	n/a	758	0	n/a	n/a	0.0	0	left	n/a	n/a	n/a	1	0.00450471481308	blockFiles/set_6/main_PD/GB_runPatches1.xlsx
219	patches	True	n/a	758	0	n/a	n/a	0.0	1	left	n/a	n/a	n/a	0	-0.046975738164	blockFiles/set_6/main_PD/GB_runPatches1.xlsx
220	patches	True	n/a	758	0	n/a	n/a	1.0	1	right	n/a	n/a	n/a	1	0.0285755179077	blockFiles/set_6/main_PD/GB_runPatches1.xlsx
221	patches	True	n/a	758	0	n/a	n/a	0.0	1	left	n/a	n/a	n/a	0	-0.0605294250138	blockFiles/set_6/main_PD/GB_runPatches1.xlsx
222	patches	True	n/a	758	0	n/a	n/a	0.0	1	left	n/a	n/a	n/a	0	-0.0434965926781	blockFiles/set_6/main_PD/GB_runPatches1.xlsx
223	patches	True	n/a	758	0	n/a	n/a	1.0	1	right	n/a	n/a	n/a	1	0.0636188512668	blockFiles/set_6/main_PD/GB_runPatches1.xlsx
224	patches	True	n/a	758	0	n/a	n/a	0.0	1	left	n/a	n/a	n/a	0	-0.021903612017599997	blockFiles/set_6/main_PD/GB_runPatches1.xlsx
225	patches	True	n/a	758	0	n/a	n/a	0.0	1	left	n/a	n/a	n/a	0	-0.0541897687688	blockFiles/set_6/main_PD/GB_runPatches1.xlsx
226	patches	True	n/a	758	0	n/a	n/a	n/a	0	None	n/a	n/a	n/a	1	0.022469113990700004	blockFiles/set_6/main_PD/GB_runPatches1.xlsx
227	patches	True	n/a	758	0	n/a	n/a	0.0	0	left	n/a	n/a	n/a	1	0.0256316354685	blockFiles/set_6/main_PD/GB_runPatches1.xlsx
228	patches	True	n/a	758	0	n/a	n/a	n/a	0	None	n/a	n/a	n/a	1	0.035209432859	blockFiles/set_6/main_PD/GB_runPatches1.xlsx
229	patches	True	n/a	758	0	n/a	n/a	0.0	1	left	n/a	n/a	n/a	0	-0.05684590922669999	blockFiles/set_6/main_PD/GB_runPatches1.xlsx
230	patches	True	n/a	758	0	n/a	n/a	1.0	1	right	n/a	n/a	n/a	1	0.0654826158285	blockFiles/set_6/main_PD/GB_runPatches1.xlsx
231	patches	True	n/a	758	0	n/a	n/a	0.0	0	left	n/a	n/a	n/a	1	0.0267081531323	blockFiles/set_6/main_PD/GB_runPatches1.xlsx
232	patches	True	n/a	758	0	n/a	n/a	1.0	0	right	n/a	n/a	n/a	0	-0.0296584906429	blockFiles/set_6/main_PD/GB_runPatches1.xlsx
233	patches	True	n/a	758	0	n/a	n/a	1.0	1	right	n/a	n/a	n/a	1	0.0540739010274	blockFiles/set_6/main_PD/GB_runPatches1.xlsx
234	patches	True	n/a	758	0	n/a	n/a	0.0	1	left	n/a	n/a	n/a	0	-0.0100988275558	blockFiles/set_6/main_PD/GB_runPatches1.xlsx
235	patches	True	n/a	758	0	n/a	n/a	0.0	0	left	n/a	n/a	n/a	1	0.0141941873543	blockFiles/set_6/main_PD/GB_runPatches1.xlsx
236	patches	True	n/a	758	0	n/a	n/a	1.0	1	right	n/a	n/a	n/a	1	0.0643931844644	blockFiles/set_6/main_PD/GB_runPatches1.xlsx
237	patches	True	n/a	758	0	n/a	n/a	0.0	1	left	n/a	n/a	n/a	0	-0.07466124186289999	blockFiles/set_6/main_PD/GB_runPatches1.xlsx
238	patches	True	n/a	758	0	n/a	n/a	0.0	1	left	n/a	n/a	n/a	0	-0.029044926930200003	blockFiles/set_6/main_PD/GB_runPatches1.xlsx
239	patches	True	n/a	758	0	n/a	n/a	0.0	1	left	n/a	n/a	n/a	0	-0.047732513323400005	blockFiles/set_6/main_PD/GB_runPatches1.xlsx
240	patches	True	n/a	758	0	n/a	n/a	0.0	1	left	n/a	n/a	n/a	0	-0.027635522000500002	blockFiles/set_6/main_PD/GB_runPatches1.xlsx
241	patches	True	n/a	758	0	n/a	n/a	1.0	1	right	n/a	n/a	n/a	1	0.0167259717546	blockFiles/set_6/main_PD/GB_runPatches1.xlsx
242	patches	True	n/a	758	0	n/a	n/a	0.0	1	left	n/a	n/a	n/a	0	-0.0256926758215	blockFiles/set_6/main_PD/GB_runPatches1.xlsx
243	patches	True	n/a	758	0	n/a	n/a	0.0	0	left	n/a	n/a	n/a	1	0.006416178122159999	blockFiles/set_6/main_PD/GB_runPatches1.xlsx
244	patches	True	n/a	758	0	n/a	n/a	0.0	1	left	n/a	n/a	n/a	0	-0.0627745812386	blockFiles/set_6/main_PD/GB_runPatches1.xlsx
245	patches	True	n/a	758	0	n/a	n/a	n/a	0	None	n/a	n/a	n/a	0	-0.052578200493	blockFiles/set_6/main_PD/GB_runPatches1.xlsx
246	patches	True	n/a	758	0	n/a	n/a	1.0	1	right	n/a	n/a	n/a	1	0.012257196456200001	blockFiles/set_6/main_PD/GB_runPatches1.xlsx
247	patches	True	n/a	758	0	n/a	n/a	0.0	1	left	n/a	n/a	n/a	0	-0.053287444282300006	blockFiles/set_6/main_PD/GB_runPatches1.xlsx
248	patches	True	n/a	758	0	n/a	n/a	0.0	1	left	n/a	n/a	n/a	0	-0.0325319475494	blockFiles/set_6/main_PD/GB_runPatches1.xlsx
249	patches	True	n/a	758	0	n/a	n/a	1.0	1	right	n/a	n/a	n/a	1	0.0541995583475	blockFiles/set_6/main_PD/GB_runPatches1.xlsx
250	patches	True	n/a	758	0	n/a	n/a	1.0	0	right	n/a	n/a	n/a	0	-0.0169056418166	blockFiles/set_6/main_PD/GB_runPatches1.xlsx
251	patches	True	n/a	758	0	n/a	n/a	1.0	1	right	n/a	n/a	n/a	1	0.0279949333146	blockFiles/set_6/main_PD/GB_runPatches1.xlsx
252	main_unc	True	0.0	758	0	0.0	0.0	1.0	1	right	1.0	1.0	1.0	1	0.0447987080179	blockFiles/set_6/main_unc/leftBlue\GB_LB_5.xlsx
253	main_unc	True	0.0	758	0	0.0	0.0	0.0	1	left	2.0	1.0	1.0	0	-0.073399437014	blockFiles/set_6/main_unc/leftBlue\GB_LB_5.xlsx
254	main_unc	True	0.0	758	0	0.0	0.0	0.0	1	left	2.0	1.0	1.0	0	-0.0137577246316	blockFiles/set_6/main_unc/leftBlue\GB_LB_5.xlsx
255	main_unc	True	0.0	758	0	0.0	0.0	0.0	0	left	2.0	0.0	0.0	1	0.004755472037939999	blockFiles/set_6/main_unc/leftBlue\GB_LB_5.xlsx
256	main_unc	True	0.0	758	0	0.0	0.0	0.0	1	left	2.0	1.0	1.0	0	-0.00455788737163	blockFiles/set_6/main_unc/leftBlue\GB_LB_5.xlsx
257	main_unc	True	0.0	758	0	0.0	0.0	1.0	1	right	1.0	1.0	1.0	1	0.07416350994260001	blockFiles/set_6/main_unc/leftBlue\GB_LB_5.xlsx
258	main_unc	True	0.0	758	0	0.0	0.0	1.0	1	right	1.0	1.0	1.0	1	0.07114569319410001	blockFiles/set_6/main_unc/leftBlue\GB_LB_5.xlsx
259	main_unc	True	0.0	758	0	0.0	0.0	1.0	1	right	1.0	1.0	1.0	1	0.0550261115469	blockFiles/set_6/main_unc/leftBlue\GB_LB_5.xlsx
260	main_unc	True	0.0	758	0	0.0	0.0	1.0	1	right	1.0	0.0	1.0	1	0.0448661763407	blockFiles/set_6/main_unc/leftBlue\GB_LB_5.xlsx
261	main_unc	True	0.0	758	0	0.0	0.0	1.0	1	right	1.0	1.0	1.0	1	0.0233914951235	blockFiles/set_6/main_unc/leftBlue\GB_LB_5.xlsx
262	main_unc	True	0.0	758	0	0.0	0.0	1.0	1	right	1.0	1.0	1.0	1	0.0312311593443	blockFiles/set_6/main_unc/leftBlue\GB_LB_5.xlsx
263	main_unc	True	1.0	758	0	0.0	0.0	n/a	0	None	n/a	0.0	n/a	1	0.013554518725700002	blockFiles/set_6/main_unc/leftBlue\GB_LB_5.xlsx
264	main_unc	True	0.0	758	0	0.0	0.0	0.0	1	left	2.0	1.0	1.0	0	-0.018571265153599997	blockFiles/set_6/main_unc/leftBlue\GB_LB_5.xlsx
265	main_unc	True	0.0	758	0	0.0	0.0	1.0	1	right	1.0	1.0	1.0	1	0.068092087917	blockFiles/set_6/main_unc/leftBlue\GB_LB_5.xlsx
266	main_unc	True	0.0	758	0	0.0	0.0	0.0	1	left	2.0	0.0	1.0	0	-0.0372406330705	blockFiles/set_6/main_unc/leftBlue\GB_LB_5.xlsx
267	main_unc	True	0.0	758	0	0.0	0.0	0.0	1	left	2.0	1.0	1.0	0	-0.06847112583	blockFiles/set_6/main_unc/leftBlue\GB_LB_5.xlsx
268	main_unc	True	0.0	758	0	0.0	0.0	0.0	1	left	2.0	1.0	1.0	0	-0.013290902972200001	blockFiles/set_6/main_unc/leftBlue\GB_LB_5.xlsx
269	main_unc	True	0.0	758	0	0.0	0.0	1.0	1	right	1.0	0.0	1.0	1	0.06648556072259999	blockFiles/set_6/main_unc/leftBlue\GB_LB_5.xlsx
270	main_unc	True	0.0	758	0	0.0	0.0	0.0	1	left	2.0	0.0	1.0	0	-0.07252026524389998	blockFiles/set_6/main_unc/leftBlue\GB_LB_5.xlsx
271	main_unc	True	0.0	758	0	0.0	0.0	0.0	1	left	2.0	1.0	1.0	0	-0.0200129761733	blockFiles/set_6/main_unc/leftBlue\GB_LB_5.xlsx
272	main_unc	True	0.0	758	0	0.0	0.0	0.0	1	left	2.0	1.0	1.0	0	-0.0356761852652	blockFiles/set_6/main_unc/leftBlue\GB_LB_5.xlsx
273	main_unc	True	0.0	758	0	0.0	0.0	0.0	1	left	2.0	1.0	1.0	0	-0.024600395076000002	blockFiles/set_6/main_unc/leftBlue\GB_LB_5.xlsx
274	main_unc	True	0.0	758	0	0.0	0.0	1.0	1	right	1.0	1.0	1.0	1	0.0345848808996	blockFiles/set_6/main_unc/leftBlue\GB_LB_5.xlsx
275	main_unc	True	0.0	758	0	0.0	0.0	0.0	1	left	2.0	1.0	1.0	0	-0.057768354099199996	blockFiles/set_6/main_unc/leftBlue\GB_LB_5.xlsx
276	main_unc	True	0.0	758	0	0.0	0.0	1.0	1	right	1.0	1.0	1.0	1	0.0747276318446	blockFiles/set_6/main_unc/leftBlue\GB_LB_5.xlsx
277	main_unc	True	0.0	758	0	0.0	0.0	1.0	1	right	1.0	1.0	1.0	1	0.013554518725700002	blockFiles/set_6/main_unc/leftBlue\GB_LB_5.xlsx
278	main_unc	True	0.0	758	0	1.0	1.0	1.0	1	right	2.0	0.0	0.0	1	0.054657549113	blockFiles/set_6/main_unc/leftBlue\GB_LB_1.xlsx
279	main_unc	True	1.0	758	0	1.0	1.0	n/a	0	None	n/a	0.0	n/a	0	-0.00569069802761	blockFiles/set_6/main_unc/leftBlue\GB_LB_1.xlsx
280	main_unc	True	0.0	758	0	1.0	1.0	0.0	1	left	1.0	1.0	0.0	0	-0.039262678138900005	blockFiles/set_6/main_unc/leftBlue\GB_LB_1.xlsx
281	main_unc	True	0.0	758	0	1.0	1.0	1.0	1	right	2.0	0.0	0.0	1	0.0778242436424	blockFiles/set_6/main_unc/leftBlue\GB_LB_1.xlsx
282	main_unc	True	0.0	758	0	1.0	1.0	1.0	1	right	1.0	1.0	1.0	1	0.0640288638137	blockFiles/set_6/main_unc/leftBlue\GB_LB_1.xlsx
283	main_unc	True	0.0	758	0	1.0	1.0	1.0	1	right	1.0	1.0	1.0	1	0.0768163362145	blockFiles/set_6/main_unc/leftBlue\GB_LB_1.xlsx
284	main_unc	True	0.0	758	0	1.0	1.0	1.0	0	right	2.0	0.0	1.0	0	-0.0089267263934	blockFiles/set_6/main_unc/leftBlue\GB_LB_1.xlsx
285	main_unc	True	0.0	758	0	1.0	1.0	1.0	1	right	1.0	1.0	1.0	1	0.029372759219299997	blockFiles/set_6/main_unc/leftBlue\GB_LB_1.xlsx
286	main_unc	True	1.0	758	0	1.0	1.0	n/a	0	None	n/a	0.0	n/a	0	-0.0307342033274	blockFiles/set_6/main_unc/leftBlue\GB_LB_1.xlsx
287	main_unc	True	0.0	758	0	1.0	1.0	0.0	1	left	2.0	1.0	1.0	0	-0.0440471938811	blockFiles/set_6/main_unc/leftBlue\GB_LB_1.xlsx
288	main_unc	True	0.0	758	0	1.0	1.0	1.0	1	right	1.0	1.0	1.0	1	0.055076789110900005	blockFiles/set_6/main_unc/leftBlue\GB_LB_1.xlsx
289	main_unc	True	0.0	758	0	1.0	1.0	0.0	1	left	2.0	1.0	1.0	0	-0.034706979841	blockFiles/set_6/main_unc/leftBlue\GB_LB_1.xlsx
290	main_unc	True	0.0	758	0	1.0	1.0	0.0	1	left	2.0	1.0	1.0	0	-0.030980561263900003	blockFiles/set_6/main_unc/leftBlue\GB_LB_1.xlsx
291	main_unc	True	0.0	758	0	1.0	1.0	0.0	1	left	2.0	1.0	1.0	0	-0.028388762883799996	blockFiles/set_6/main_unc/leftBlue\GB_LB_1.xlsx
292	main_unc	True	0.0	758	0	1.0	1.0	0.0	0	left	2.0	0.0	0.0	1	0.005968488212670001	blockFiles/set_6/main_unc/leftBlue\GB_LB_1.xlsx
293	main_unc	True	0.0	758	0	1.0	1.0	0.0	1	left	2.0	1.0	1.0	0	-0.063779325597	blockFiles/set_6/main_unc/leftBlue\GB_LB_1.xlsx
294	main_unc	True	0.0	758	0	1.0	1.0	1.0	1	right	1.0	1.0	1.0	1	0.0681348815747	blockFiles/set_6/main_unc/leftBlue\GB_LB_1.xlsx
295	main_unc	True	0.0	758	0	1.0	1.0	1.0	1	right	2.0	1.0	0.0	1	0.0238025185652	blockFiles/set_6/main_unc/leftBlue\GB_LB_1.xlsx
296	main_unc	True	0.0	758	0	1.0	1.0	1.0	1	right	1.0	1.0	1.0	1	0.0214227502421	blockFiles/set_6/main_unc/leftBlue\GB_LB_1.xlsx
297	main_unc	True	0.0	758	0	1.0	1.0	0.0	1	left	2.0	1.0	1.0	0	-0.0447983456217	blockFiles/set_6/main_unc/leftBlue\GB_LB_1.xlsx
298	main_unc	True	0.0	758	0	1.0	1.0	0.0	0	left	2.0	0.0	0.0	1	0.023213290479	blockFiles/set_6/main_unc/leftBlue\GB_LB_1.xlsx
299	main_unc	True	0.0	758	0	1.0	1.0	0.0	1	left	2.0	0.0	1.0	0	-0.0601507895626	blockFiles/set_6/main_unc/leftBlue\GB_LB_1.xlsx
300	main_unc	True	0.0	758	0	1.0	1.0	0.0	1	left	2.0	1.0	1.0	0	-0.0761200853065	blockFiles/set_6/main_unc/leftBlue\GB_LB_1.xlsx
301	main_unc	True	0.0	758	0	1.0	1.0	0.0	1	left	2.0	0.0	1.0	0	-0.0360366968438	blockFiles/set_6/main_unc/leftBlue\GB_LB_1.xlsx
302	main_unc	True	0.0	758	0	1.0	1.0	1.0	1	right	1.0	0.0	1.0	1	0.043670866489399995	blockFiles/set_6/main_unc/leftBlue\GB_LB_1.xlsx
303	main_unc	True	0.0	758	0	1.0	1.0	0.0	1	left	2.0	1.0	1.0	0	-0.00569069802761	blockFiles/set_6/main_unc/leftBlue\GB_LB_1.xlsx
304	main_unc	True	0.0	758	0	1.0	1.0	0.0	1	left	2.0	1.0	1.0	0	-0.0307342033274	blockFiles/set_6/main_unc/leftBlue\GB_LB_1.xlsx
305	main_unc	True	0.0	758	0	2.0	2.0	1.0	1	right	1.0	0.0	1.0	1	0.0190413040854	blockFiles/set_6/main_unc/leftBlue\GB_LB_4.xlsx
306	main_unc	True	0.0	758	0	2.0	2.0	0.0	0	left	1.0	1.0	1.0	1	0.045828112606	blockFiles/set_6/main_unc/leftBlue\GB_LB_4.xlsx
307	main_unc	True	0.0	758	0	2.0	2.0	0.0	0	left	1.0	1.0	1.0	1	0.00717808157206	blockFiles/set_6/main_unc/leftBlue\GB_LB_4.xlsx
308	main_unc	True	0.0	758	0	2.0	2.0	1.0	1	right	2.0	0.0	0.0	1	0.0586614659801	blockFiles/set_6/main_unc/leftBlue\GB_LB_4.xlsx
309	main_unc	True	0.0	758	0	2.0	2.0	0.0	0	left	1.0	1.0	1.0	1	0.0267313536815	blockFiles/set_6/main_unc/leftBlue\GB_LB_4.xlsx
310	main_unc	True	0.0	758	0	2.0	2.0	0.0	1	left	1.0	1.0	0.0	0	-0.0377923212945	blockFiles/set_6/main_unc/leftBlue\GB_LB_4.xlsx
311	main_unc	True	0.0	758	0	2.0	2.0	0.0	1	left	1.0	0.0	0.0	0	-0.053271912429499996	blockFiles/set_6/main_unc/leftBlue\GB_LB_4.xlsx
312	main_unc	True	0.0	758	0	2.0	2.0	1.0	1	right	2.0	0.0	0.0	1	0.0724652350694	blockFiles/set_6/main_unc/leftBlue\GB_LB_4.xlsx
313	main_unc	True	0.0	758	0	2.0	2.0	0.0	1	left	1.0	0.0	0.0	0	-0.016024626418899998	blockFiles/set_6/main_unc/leftBlue\GB_LB_4.xlsx
314	main_unc	True	0.0	758	0	2.0	2.0	0.0	1	left	1.0	1.0	0.0	0	-0.0380592812039	blockFiles/set_6/main_unc/leftBlue\GB_LB_4.xlsx
315	main_unc	True	0.0	758	0	2.0	2.0	0.0	0	left	1.0	1.0	1.0	1	0.00638499796391	blockFiles/set_6/main_unc/leftBlue\GB_LB_4.xlsx
316	main_unc	True	0.0	758	0	2.0	2.0	0.0	1	left	1.0	0.0	0.0	0	-0.04539690434930001	blockFiles/set_6/main_unc/leftBlue\GB_LB_4.xlsx
317	main_unc	True	0.0	758	0	2.0	2.0	0.0	1	left	1.0	0.0	0.0	0	-0.040403737966	blockFiles/set_6/main_unc/leftBlue\GB_LB_4.xlsx
318	main_unc	True	0.0	758	0	2.0	2.0	0.0	1	left	2.0	0.0	1.0	0	-0.0167688880675	blockFiles/set_6/main_unc/leftBlue\GB_LB_4.xlsx
319	main_unc	True	0.0	758	0	2.0	2.0	1.0	1	right	2.0	1.0	0.0	1	0.058282441366499994	blockFiles/set_6/main_unc/leftBlue\GB_LB_4.xlsx
320	main_unc	True	0.0	758	0	2.0	2.0	0.0	1	left	1.0	0.0	0.0	0	-0.049829648491	blockFiles/set_6/main_unc/leftBlue\GB_LB_4.xlsx
321	main_unc	True	0.0	758	0	2.0	2.0	1.0	1	right	2.0	0.0	0.0	1	0.0404153671488	blockFiles/set_6/main_unc/leftBlue\GB_LB_4.xlsx
322	main_unc	True	0.0	758	0	2.0	2.0	0.0	1	left	1.0	0.0	0.0	0	-0.075208218731	blockFiles/set_6/main_unc/leftBlue\GB_LB_4.xlsx
323	main_unc	True	0.0	758	0	2.0	2.0	1.0	1	right	1.0	1.0	1.0	1	0.00468720702454	blockFiles/set_6/main_unc/leftBlue\GB_LB_4.xlsx
324	main_unc	True	0.0	758	0	2.0	2.0	1.0	1	right	1.0	1.0	1.0	1	0.055077308658499996	blockFiles/set_6/main_unc/leftBlue\GB_LB_4.xlsx
325	main_unc	True	0.0	758	0	2.0	2.0	1.0	1	right	1.0	1.0	1.0	1	0.070120174773	blockFiles/set_6/main_unc/leftBlue\GB_LB_4.xlsx
326	main_unc	True	0.0	758	0	2.0	2.0	0.0	0	left	2.0	0.0	0.0	1	0.00969806279987	blockFiles/set_6/main_unc/leftBlue\GB_LB_4.xlsx
327	main_unc	True	0.0	758	0	2.0	2.0	1.0	1	right	1.0	1.0	1.0	1	0.0693897137418	blockFiles/set_6/main_unc/leftBlue\GB_LB_4.xlsx
328	main_unc	True	0.0	758	0	2.0	2.0	0.0	1	left	2.0	1.0	1.0	0	-0.05875084137540001	blockFiles/set_6/main_unc/leftBlue\GB_LB_4.xlsx
329	main_unc	True	0.0	758	0	2.0	2.0	0.0	1	left	2.0	1.0	1.0	0	-0.0364869016781	blockFiles/set_6/main_unc/leftBlue\GB_LB_4.xlsx
330	main_unc	True	0.0	758	0	3.0	3.0	0.0	1	left	1.0	0.0	0.0	0	-0.0712646884471	blockFiles/set_6/main_unc/leftBlue\GB_LB_6.xlsx
331	main_unc	True	0.0	758	0	3.0	3.0	0.0	1	left	1.0	0.0	0.0	0	-0.06799128199	blockFiles/set_6/main_unc/leftBlue\GB_LB_6.xlsx
332	main_unc	True	0.0	758	0	3.0	3.0	0.0	0	left	2.0	1.0	0.0	1	0.013043593373100001	blockFiles/set_6/main_unc/leftBlue\GB_LB_6.xlsx
333	main_unc	True	0.0	758	0	3.0	3.0	0.0	1	left	2.0	1.0	1.0	0	-0.046197061222	blockFiles/set_6/main_unc/leftBlue\GB_LB_6.xlsx
334	main_unc	True	0.0	758	0	3.0	3.0	1.0	1	right	1.0	1.0	1.0	1	0.0777330356278	blockFiles/set_6/main_unc/leftBlue\GB_LB_6.xlsx
335	main_unc	True	0.0	758	0	3.0	3.0	1.0	0	right	1.0	1.0	0.0	0	-0.00689044076949	blockFiles/set_6/main_unc/leftBlue\GB_LB_6.xlsx
336	main_unc	True	0.0	758	0	3.0	3.0	1.0	1	right	1.0	0.0	1.0	1	0.054089023135599996	blockFiles/set_6/main_unc/leftBlue\GB_LB_6.xlsx
337	main_unc	True	0.0	758	0	3.0	3.0	1.0	0	right	1.0	0.0	0.0	0	-0.000893068406731	blockFiles/set_6/main_unc/leftBlue\GB_LB_6.xlsx
338	main_unc	True	0.0	758	0	3.0	3.0	0.0	1	left	2.0	1.0	1.0	0	-0.0283448637836	blockFiles/set_6/main_unc/leftBlue\GB_LB_6.xlsx
339	main_unc	True	0.0	758	0	3.0	3.0	1.0	1	right	1.0	0.0	1.0	1	0.04892243094740001	blockFiles/set_6/main_unc/leftBlue\GB_LB_6.xlsx
340	main_unc	True	0.0	758	0	3.0	3.0	0.0	0	left	1.0	1.0	1.0	1	0.022054608426999998	blockFiles/set_6/main_unc/leftBlue\GB_LB_6.xlsx
341	main_unc	True	0.0	758	0	3.0	3.0	1.0	1	right	1.0	1.0	1.0	1	0.07294321937489999	blockFiles/set_6/main_unc/leftBlue\GB_LB_6.xlsx
342	main_unc	True	0.0	758	0	3.0	3.0	1.0	1	right	1.0	0.0	1.0	1	0.0474641243182	blockFiles/set_6/main_unc/leftBlue\GB_LB_6.xlsx
343	main_unc	True	0.0	758	0	3.0	3.0	0.0	1	left	2.0	1.0	1.0	0	-0.0598963459022	blockFiles/set_6/main_unc/leftBlue\GB_LB_6.xlsx
344	main_unc	True	0.0	758	0	3.0	3.0	0.0	0	left	2.0	0.0	0.0	1	0.0141333417781	blockFiles/set_6/main_unc/leftBlue\GB_LB_6.xlsx
345	main_unc	True	0.0	758	0	3.0	3.0	1.0	0	right	2.0	0.0	1.0	0	-0.050266018379499997	blockFiles/set_6/main_unc/leftBlue\GB_LB_6.xlsx
346	main_unc	True	1.0	758	0	3.0	3.0	n/a	0	None	n/a	0.0	n/a	1	0.00670591305941	blockFiles/set_6/main_unc/leftBlue\GB_LB_6.xlsx
347	main_unc	True	0.0	758	0	3.0	3.0	1.0	1	right	1.0	1.0	1.0	1	0.0340543189831	blockFiles/set_6/main_unc/leftBlue\GB_LB_6.xlsx
348	main_unc	True	0.0	758	0	3.0	3.0	1.0	1	right	1.0	1.0	1.0	1	0.05686414701859999	blockFiles/set_6/main_unc/leftBlue\GB_LB_6.xlsx
349	main_unc	True	0.0	758	0	3.0	3.0	0.0	1	left	2.0	1.0	1.0	0	-0.0723924037814	blockFiles/set_6/main_unc/leftBlue\GB_LB_6.xlsx
350	main_unc	True	0.0	758	0	3.0	3.0	1.0	1	right	1.0	1.0	1.0	1	0.0675253355503	blockFiles/set_6/main_unc/leftBlue\GB_LB_6.xlsx
351	main_unc	True	0.0	758	0	3.0	3.0	0.0	1	left	2.0	1.0	1.0	0	-0.0431572794542	blockFiles/set_6/main_unc/leftBlue\GB_LB_6.xlsx
352	main_unc	True	0.0	758	0	3.0	3.0	1.0	1	right	1.0	1.0	1.0	1	0.0334438681602	blockFiles/set_6/main_unc/leftBlue\GB_LB_6.xlsx
353	main_unc	True	0.0	758	0	3.0	3.0	0.0	1	left	2.0	1.0	1.0	0	-0.015284754764300001	blockFiles/set_6/main_unc/leftBlue\GB_LB_6.xlsx
354	main_unc	True	1.0	758	0	3.0	3.0	n/a	0	None	n/a	0.0	n/a	1	0.024332558456799998	blockFiles/set_6/main_unc/leftBlue\GB_LB_6.xlsx
355	main_unc	True	0.0	758	0	3.0	3.0	0.0	0	left	2.0	0.0	0.0	1	0.00670591305941	blockFiles/set_6/main_unc/leftBlue\GB_LB_6.xlsx
356	main_unc	True	0.0	758	0	3.0	3.0	0.0	0	left	2.0	0.0	0.0	1	0.024332558456799998	blockFiles/set_6/main_unc/leftBlue\GB_LB_6.xlsx
357	main_unc	True	0.0	758	0	4.0	4.0	1.0	0	right	1.0	1.0	1.0	0	-0.00844866417348	blockFiles/set_6/main_unc/rightBlue\GB_RB_4.xlsx
358	main_unc	True	0.0	758	0	4.0	4.0	1.0	1	right	2.0	1.0	1.0	1	0.034066560696799995	blockFiles/set_6/main_unc/rightBlue\GB_RB_4.xlsx
359	main_unc	True	0.0	758	0	4.0	4.0	0.0	0	left	2.0	1.0	1.0	1	4.09448891878e-05	blockFiles/set_6/main_unc/rightBlue\GB_RB_4.xlsx
360	main_unc	True	0.0	758	0	4.0	4.0	0.0	1	left	2.0	1.0	0.0	0	-0.06480777442459999	blockFiles/set_6/main_unc/rightBlue\GB_RB_4.xlsx
361	main_unc	True	0.0	758	0	4.0	4.0	1.0	1	right	1.0	1.0	0.0	1	0.0163641537167	blockFiles/set_6/main_unc/rightBlue\GB_RB_4.xlsx
362	main_unc	True	0.0	758	0	4.0	4.0	0.0	1	left	2.0	0.0	0.0	0	-0.054783021044	blockFiles/set_6/main_unc/rightBlue\GB_RB_4.xlsx
363	main_unc	True	0.0	758	0	4.0	4.0	1.0	1	right	1.0	1.0	0.0	1	0.0507391463593	blockFiles/set_6/main_unc/rightBlue\GB_RB_4.xlsx
364	main_unc	True	0.0	758	0	4.0	4.0	0.0	1	left	2.0	0.0	0.0	0	-0.0421375922114	blockFiles/set_6/main_unc/rightBlue\GB_RB_4.xlsx
365	main_unc	True	0.0	758	0	4.0	4.0	1.0	1	right	1.0	0.0	0.0	1	0.070240278244	blockFiles/set_6/main_unc/rightBlue\GB_RB_4.xlsx
366	main_unc	True	1.0	758	0	4.0	4.0	n/a	0	None	n/a	0.0	n/a	1	0.000436980407685	blockFiles/set_6/main_unc/rightBlue\GB_RB_4.xlsx
367	main_unc	True	0.0	758	0	4.0	4.0	1.0	0	right	2.0	0.0	0.0	0	-0.021623572763099997	blockFiles/set_6/main_unc/rightBlue\GB_RB_4.xlsx
368	main_unc	True	0.0	758	0	4.0	4.0	0.0	1	left	1.0	1.0	1.0	0	-0.052703372649800004	blockFiles/set_6/main_unc/rightBlue\GB_RB_4.xlsx
369	main_unc	True	0.0	758	0	4.0	4.0	0.0	1	left	1.0	1.0	1.0	0	-0.033451250269999996	blockFiles/set_6/main_unc/rightBlue\GB_RB_4.xlsx
370	main_unc	True	0.0	758	0	4.0	4.0	1.0	1	right	2.0	1.0	1.0	1	0.05893858253959999	blockFiles/set_6/main_unc/rightBlue\GB_RB_4.xlsx
371	main_unc	True	0.0	758	0	4.0	4.0	1.0	0	right	2.0	0.0	0.0	0	-0.00580996347591	blockFiles/set_6/main_unc/rightBlue\GB_RB_4.xlsx
372	main_unc	True	0.0	758	0	4.0	4.0	1.0	1	right	2.0	1.0	1.0	1	0.0771841502003	blockFiles/set_6/main_unc/rightBlue\GB_RB_4.xlsx
373	main_unc	True	0.0	758	0	4.0	4.0	1.0	1	right	2.0	0.0	1.0	1	0.018505949359400004	blockFiles/set_6/main_unc/rightBlue\GB_RB_4.xlsx
374	main_unc	True	0.0	758	0	4.0	4.0	0.0	1	left	1.0	1.0	1.0	0	-0.066740564201	blockFiles/set_6/main_unc/rightBlue\GB_RB_4.xlsx
375	main_unc	True	0.0	758	0	4.0	4.0	0.0	1	left	1.0	0.0	1.0	0	-0.043347429335099996	blockFiles/set_6/main_unc/rightBlue\GB_RB_4.xlsx
376	main_unc	True	0.0	758	0	4.0	4.0	1.0	1	right	1.0	0.0	0.0	1	0.0283766957931	blockFiles/set_6/main_unc/rightBlue\GB_RB_4.xlsx
377	main_unc	True	0.0	758	0	4.0	4.0	1.0	1	right	1.0	0.0	0.0	1	0.00553660688922	blockFiles/set_6/main_unc/rightBlue\GB_RB_4.xlsx
378	main_unc	True	0.0	758	0	4.0	4.0	0.0	1	left	2.0	0.0	0.0	0	-0.0785600828193	blockFiles/set_6/main_unc/rightBlue\GB_RB_4.xlsx
379	main_unc	True	0.0	758	0	4.0	4.0	1.0	1	right	2.0	1.0	1.0	1	0.079216900114	blockFiles/set_6/main_unc/rightBlue\GB_RB_4.xlsx
380	main_unc	True	0.0	758	0	4.0	4.0	1.0	1	right	2.0	1.0	1.0	1	0.042700972240399995	blockFiles/set_6/main_unc/rightBlue\GB_RB_4.xlsx
381	main_unc	True	0.0	758	0	4.0	4.0	0.0	1	left	1.0	1.0	1.0	0	-0.027616155520099998	blockFiles/set_6/main_unc/rightBlue\GB_RB_4.xlsx
382	main_unc	True	0.0	758	0	4.0	4.0	0.0	0	left	1.0	1.0	0.0	1	0.000436980407685	blockFiles/set_6/main_unc/rightBlue\GB_RB_4.xlsx
383	main_unc	True	0.0	758	0	5.0	5.0	0.0	0	left	2.0	0.0	1.0	1	0.0045812299102499995	blockFiles/set_6/main_unc/rightBlue\GB_RB_5.xlsx
384	main_unc	True	0.0	758	0	5.0	5.0	0.0	0	left	1.0	0.0	0.0	1	0.030506689772000002	blockFiles/set_6/main_unc/rightBlue\GB_RB_5.xlsx
385	main_unc	True	0.0	758	0	5.0	5.0	0.0	1	left	2.0	0.0	0.0	0	-0.0337475230359	blockFiles/set_6/main_unc/rightBlue\GB_RB_5.xlsx
386	main_unc	True	0.0	758	0	5.0	5.0	0.0	0	left	1.0	1.0	0.0	1	0.014836101736899998	blockFiles/set_6/main_unc/rightBlue\GB_RB_5.xlsx
387	main_unc	True	0.0	758	0	5.0	5.0	1.0	1	right	2.0	1.0	1.0	1	0.021161837484699998	blockFiles/set_6/main_unc/rightBlue\GB_RB_5.xlsx
388	main_unc	True	0.0	758	0	5.0	5.0	1.0	1	right	2.0	1.0	1.0	1	0.0752695502527	blockFiles/set_6/main_unc/rightBlue\GB_RB_5.xlsx
389	main_unc	True	0.0	758	0	5.0	5.0	0.0	1	left	1.0	1.0	1.0	0	-0.0662509659491	blockFiles/set_6/main_unc/rightBlue\GB_RB_5.xlsx
390	main_unc	True	0.0	758	0	5.0	5.0	0.0	1	left	1.0	1.0	1.0	0	-0.0205926700495	blockFiles/set_6/main_unc/rightBlue\GB_RB_5.xlsx
391	main_unc	True	0.0	758	0	5.0	5.0	0.0	1	left	1.0	1.0	1.0	0	-0.009884179532530001	blockFiles/set_6/main_unc/rightBlue\GB_RB_5.xlsx
392	main_unc	True	0.0	758	0	5.0	5.0	0.0	1	left	1.0	1.0	1.0	0	-0.018309618122900002	blockFiles/set_6/main_unc/rightBlue\GB_RB_5.xlsx
393	main_unc	True	0.0	758	0	5.0	5.0	0.0	1	left	1.0	1.0	1.0	0	-0.0669960803352	blockFiles/set_6/main_unc/rightBlue\GB_RB_5.xlsx
394	main_unc	True	0.0	758	0	5.0	5.0	0.0	0	left	2.0	1.0	1.0	1	0.031586352121099996	blockFiles/set_6/main_unc/rightBlue\GB_RB_5.xlsx
395	main_unc	True	0.0	758	0	5.0	5.0	0.0	1	left	1.0	1.0	1.0	0	-0.00692817244679	blockFiles/set_6/main_unc/rightBlue\GB_RB_5.xlsx
396	main_unc	True	0.0	758	0	5.0	5.0	0.0	1	left	1.0	1.0	1.0	0	-0.05424936879430001	blockFiles/set_6/main_unc/rightBlue\GB_RB_5.xlsx
397	main_unc	True	0.0	758	0	5.0	5.0	1.0	1	right	2.0	1.0	1.0	1	0.043806842639999996	blockFiles/set_6/main_unc/rightBlue\GB_RB_5.xlsx
398	main_unc	True	0.0	758	0	5.0	5.0	0.0	1	left	1.0	1.0	1.0	0	-0.058734913487	blockFiles/set_6/main_unc/rightBlue\GB_RB_5.xlsx
399	main_unc	True	0.0	758	0	5.0	5.0	0.0	1	left	1.0	1.0	1.0	0	-0.0672946535051	blockFiles/set_6/main_unc/rightBlue\GB_RB_5.xlsx
400	main_unc	True	0.0	758	0	5.0	5.0	0.0	1	left	1.0	1.0	1.0	0	-0.0698632793501	blockFiles/set_6/main_unc/rightBlue\GB_RB_5.xlsx
401	main_unc	True	0.0	758	0	5.0	5.0	0.0	0	left	2.0	1.0	1.0	1	0.024143394753299997	blockFiles/set_6/main_unc/rightBlue\GB_RB_5.xlsx
402	main_unc	True	0.0	758	0	5.0	5.0	1.0	1	right	2.0	1.0	1.0	1	0.0520738455467	blockFiles/set_6/main_unc/rightBlue\GB_RB_5.xlsx
403	main_unc	True	0.0	758	0	5.0	5.0	1.0	1	right	2.0	1.0	1.0	1	0.0153308510408	blockFiles/set_6/main_unc/rightBlue\GB_RB_5.xlsx
404	main_unc	True	0.0	758	0	5.0	5.0	0.0	1	left	1.0	0.0	1.0	0	-0.0477018029429	blockFiles/set_6/main_unc/rightBlue\GB_RB_5.xlsx
405	main_unc	True	0.0	758	0	5.0	5.0	0.0	0	left	1.0	0.0	0.0	1	0.0121955431625	blockFiles/set_6/main_unc/rightBlue\GB_RB_5.xlsx
406	main_unc	True	0.0	758	0	5.0	5.0	0.0	1	left	1.0	0.0	1.0	0	-0.0442232534662	blockFiles/set_6/main_unc/rightBlue\GB_RB_5.xlsx
407	main_unc	True	0.0	758	0	5.0	5.0	0.0	1	left	1.0	1.0	1.0	0	-0.022446592412900004	blockFiles/set_6/main_unc/rightBlue\GB_RB_5.xlsx
408	main_unc	True	0.0	758	0	6.0	6.0	0.0	1	left	1.0	0.0	0.0	0	-0.0403990680538	blockFiles/set_6/main_unc/leftBlue\GB_LB_3.xlsx
409	main_unc	True	0.0	758	0	6.0	6.0	0.0	1	left	1.0	0.0	0.0	0	-0.021266765370999998	blockFiles/set_6/main_unc/leftBlue\GB_LB_3.xlsx
410	main_unc	True	0.0	758	0	6.0	6.0	1.0	1	right	1.0	1.0	1.0	1	0.0498308374546	blockFiles/set_6/main_unc/leftBlue\GB_LB_3.xlsx
411	main_unc	True	0.0	758	0	6.0	6.0	1.0	1	right	1.0	1.0	1.0	1	0.048211492542199995	blockFiles/set_6/main_unc/leftBlue\GB_LB_3.xlsx
412	main_unc	True	0.0	758	0	6.0	6.0	1.0	1	right	1.0	1.0	1.0	1	0.0702760193683	blockFiles/set_6/main_unc/leftBlue\GB_LB_3.xlsx
413	main_unc	True	0.0	758	0	6.0	6.0	1.0	0	right	2.0	1.0	1.0	0	-0.0212741178647	blockFiles/set_6/main_unc/leftBlue\GB_LB_3.xlsx
414	main_unc	True	0.0	758	0	6.0	6.0	0.0	1	left	2.0	1.0	1.0	0	-0.072433227282	blockFiles/set_6/main_unc/leftBlue\GB_LB_3.xlsx
415	main_unc	True	0.0	758	0	6.0	6.0	1.0	1	right	1.0	0.0	1.0	1	0.0528537173383	blockFiles/set_6/main_unc/leftBlue\GB_LB_3.xlsx
416	main_unc	True	0.0	758	0	6.0	6.0	1.0	1	right	1.0	1.0	1.0	1	0.038440104574	blockFiles/set_6/main_unc/leftBlue\GB_LB_3.xlsx
417	main_unc	True	0.0	758	0	6.0	6.0	0.0	1	left	2.0	1.0	1.0	0	-0.0213551370241	blockFiles/set_6/main_unc/leftBlue\GB_LB_3.xlsx
418	main_unc	True	0.0	758	0	6.0	6.0	1.0	1	right	1.0	1.0	1.0	1	0.0024612120911500003	blockFiles/set_6/main_unc/leftBlue\GB_LB_3.xlsx
419	main_unc	True	0.0	758	0	6.0	6.0	0.0	1	left	2.0	1.0	1.0	0	-0.027162215392999997	blockFiles/set_6/main_unc/leftBlue\GB_LB_3.xlsx
420	main_unc	True	0.0	758	0	6.0	6.0	0.0	1	left	2.0	0.0	1.0	0	-0.052437471021	blockFiles/set_6/main_unc/leftBlue\GB_LB_3.xlsx
421	main_unc	True	0.0	758	0	6.0	6.0	0.0	0	left	1.0	1.0	1.0	1	0.0308260026388	blockFiles/set_6/main_unc/leftBlue\GB_LB_3.xlsx
422	main_unc	True	0.0	758	0	6.0	6.0	0.0	1	left	2.0	0.0	1.0	0	-0.0589338642545	blockFiles/set_6/main_unc/leftBlue\GB_LB_3.xlsx
423	main_unc	True	0.0	758	0	6.0	6.0	0.0	1	left	2.0	0.0	1.0	0	-0.0468525670655	blockFiles/set_6/main_unc/leftBlue\GB_LB_3.xlsx
424	main_unc	True	0.0	758	0	6.0	6.0	1.0	1	right	1.0	1.0	1.0	1	0.0678564438038	blockFiles/set_6/main_unc/leftBlue\GB_LB_3.xlsx
425	main_unc	True	0.0	758	0	6.0	6.0	1.0	1	right	2.0	0.0	0.0	1	0.005711079426109999	blockFiles/set_6/main_unc/leftBlue\GB_LB_3.xlsx
426	main_unc	True	0.0	758	0	6.0	6.0	1.0	1	right	1.0	0.0	1.0	1	0.0394735473208	blockFiles/set_6/main_unc/leftBlue\GB_LB_3.xlsx
427	main_unc	True	0.0	758	0	6.0	6.0	1.0	1	right	1.0	1.0	1.0	1	0.0434718269855	blockFiles/set_6/main_unc/leftBlue\GB_LB_3.xlsx
428	main_unc	True	0.0	758	0	6.0	6.0	0.0	1	left	2.0	1.0	1.0	0	-0.0744543658011	blockFiles/set_6/main_unc/leftBlue\GB_LB_3.xlsx
429	main_unc	True	0.0	758	0	6.0	6.0	0.0	1	left	2.0	1.0	1.0	0	-0.0162228005379	blockFiles/set_6/main_unc/leftBlue\GB_LB_3.xlsx
430	main_unc	True	0.0	758	0	6.0	6.0	0.0	1	left	2.0	1.0	1.0	0	-0.00820262985304	blockFiles/set_6/main_unc/leftBlue\GB_LB_3.xlsx
431	main_unc	True	0.0	758	0	6.0	6.0	0.0	1	left	2.0	1.0	1.0	0	-0.052485275175400005	blockFiles/set_6/main_unc/leftBlue\GB_LB_3.xlsx
432	main_unc	True	0.0	758	0	6.0	6.0	0.0	0	left	2.0	0.0	0.0	1	0.0167791549303	blockFiles/set_6/main_unc/leftBlue\GB_LB_3.xlsx
433	main_unc	True	0.0	758	0	7.0	7.0	1.0	1	right	1.0	0.0	0.0	1	0.0141448231786	blockFiles/set_6/main_unc/rightBlue\GB_RB_2.xlsx
434	main_unc	True	0.0	758	0	7.0	7.0	1.0	1	right	1.0	1.0	0.0	1	0.047687534652699995	blockFiles/set_6/main_unc/rightBlue\GB_RB_2.xlsx
435	main_unc	True	0.0	758	0	7.0	7.0	0.0	1	left	2.0	0.0	0.0	0	-0.030734384004	blockFiles/set_6/main_unc/rightBlue\GB_RB_2.xlsx
436	main_unc	True	1.0	758	0	7.0	7.0	n/a	0	None	n/a	0.0	n/a	1	0.00755162248388	blockFiles/set_6/main_unc/rightBlue\GB_RB_2.xlsx
437	main_unc	True	0.0	758	0	7.0	7.0	1.0	1	right	1.0	0.0	0.0	1	0.030293253716099998	blockFiles/set_6/main_unc/rightBlue\GB_RB_2.xlsx
438	main_unc	True	0.0	758	0	7.0	7.0	1.0	1	right	2.0	1.0	1.0	1	0.07161138022319999	blockFiles/set_6/main_unc/rightBlue\GB_RB_2.xlsx
439	main_unc	True	0.0	758	0	7.0	7.0	0.0	1	left	2.0	1.0	0.0	0	-0.023217621259400002	blockFiles/set_6/main_unc/rightBlue\GB_RB_2.xlsx
440	main_unc	True	0.0	758	0	7.0	7.0	0.0	1	left	2.0	0.0	0.0	0	-0.04580758802590001	blockFiles/set_6/main_unc/rightBlue\GB_RB_2.xlsx
441	main_unc	True	0.0	758	0	7.0	7.0	1.0	1	right	2.0	1.0	1.0	1	0.00840260868892	blockFiles/set_6/main_unc/rightBlue\GB_RB_2.xlsx
442	main_unc	True	0.0	758	0	7.0	7.0	1.0	1	right	1.0	0.0	0.0	1	0.0736947862245	blockFiles/set_6/main_unc/rightBlue\GB_RB_2.xlsx
443	main_unc	True	0.0	758	0	7.0	7.0	0.0	1	left	1.0	0.0	1.0	0	-0.053347043618599994	blockFiles/set_6/main_unc/rightBlue\GB_RB_2.xlsx
444	main_unc	True	0.0	758	0	7.0	7.0	1.0	1	right	2.0	1.0	1.0	1	0.0532092036679	blockFiles/set_6/main_unc/rightBlue\GB_RB_2.xlsx
445	main_unc	True	0.0	758	0	7.0	7.0	1.0	1	right	2.0	1.0	1.0	1	0.0432722126693	blockFiles/set_6/main_unc/rightBlue\GB_RB_2.xlsx
446	main_unc	True	0.0	758	0	7.0	7.0	1.0	0	right	2.0	0.0	0.0	0	-0.00178993428126	blockFiles/set_6/main_unc/rightBlue\GB_RB_2.xlsx
447	main_unc	True	0.0	758	0	7.0	7.0	0.0	1	left	1.0	1.0	1.0	0	-0.0358735741302	blockFiles/set_6/main_unc/rightBlue\GB_RB_2.xlsx
448	main_unc	True	0.0	758	0	7.0	7.0	1.0	0	right	1.0	1.0	1.0	0	-0.022546197176	blockFiles/set_6/main_unc/rightBlue\GB_RB_2.xlsx
449	main_unc	True	0.0	758	0	7.0	7.0	0.0	1	left	1.0	0.0	1.0	0	-0.0646667376347	blockFiles/set_6/main_unc/rightBlue\GB_RB_2.xlsx
450	main_unc	True	0.0	758	0	7.0	7.0	1.0	1	right	2.0	1.0	1.0	1	0.065862414185	blockFiles/set_6/main_unc/rightBlue\GB_RB_2.xlsx
451	main_unc	True	0.0	758	0	7.0	7.0	1.0	1	right	2.0	1.0	1.0	1	0.0632162949257	blockFiles/set_6/main_unc/rightBlue\GB_RB_2.xlsx
452	main_unc	True	0.0	758	0	7.0	7.0	0.0	1	left	1.0	1.0	1.0	0	-0.038433169592199994	blockFiles/set_6/main_unc/rightBlue\GB_RB_2.xlsx
453	main_unc	True	0.0	758	0	7.0	7.0	1.0	1	right	2.0	1.0	1.0	1	0.07756018655369999	blockFiles/set_6/main_unc/rightBlue\GB_RB_2.xlsx
454	main_unc	True	0.0	758	0	7.0	7.0	0.0	1	left	1.0	1.0	1.0	0	-0.00758393093944	blockFiles/set_6/main_unc/rightBlue\GB_RB_2.xlsx
455	main_unc	True	0.0	758	0	7.0	7.0	1.0	1	right	2.0	1.0	1.0	1	0.049949543997599995	blockFiles/set_6/main_unc/rightBlue\GB_RB_2.xlsx
456	main_unc	True	0.0	758	0	7.0	7.0	0.0	1	left	1.0	0.0	1.0	0	-0.0103586407006	blockFiles/set_6/main_unc/rightBlue\GB_RB_2.xlsx
457	main_unc	True	0.0	758	0	7.0	7.0	0.0	1	left	1.0	0.0	1.0	0	-0.05674563698469999	blockFiles/set_6/main_unc/rightBlue\GB_RB_2.xlsx
458	main_unc	True	0.0	758	0	7.0	7.0	0.0	0	left	1.0	0.0	0.0	1	0.00755162248388	blockFiles/set_6/main_unc/rightBlue\GB_RB_2.xlsx
459	main_unc	True	0.0	758	0	8.0	8.0	1.0	1	right	1.0	0.0	0.0	1	0.025252104364299997	blockFiles/set_6/main_unc/rightBlue\GB_RB_1.xlsx
460	main_unc	True	0.0	758	0	8.0	8.0	0.0	1	left	1.0	0.0	1.0	0	-0.0327149727382	blockFiles/set_6/main_unc/rightBlue\GB_RB_1.xlsx
461	main_unc	True	0.0	758	0	8.0	8.0	1.0	1	right	1.0	0.0	0.0	1	0.0176365616359	blockFiles/set_6/main_unc/rightBlue\GB_RB_1.xlsx
462	main_unc	True	0.0	758	0	8.0	8.0	0.0	1	left	1.0	1.0	1.0	0	-0.0792885140702	blockFiles/set_6/main_unc/rightBlue\GB_RB_1.xlsx
463	main_unc	True	0.0	758	0	8.0	8.0	1.0	1	right	2.0	1.0	1.0	1	0.055433177072599996	blockFiles/set_6/main_unc/rightBlue\GB_RB_1.xlsx
464	main_unc	True	0.0	758	0	8.0	8.0	1.0	0	right	2.0	0.0	0.0	0	-0.0013780301623000002	blockFiles/set_6/main_unc/rightBlue\GB_RB_1.xlsx
465	main_unc	True	0.0	758	0	8.0	8.0	1.0	1	right	2.0	1.0	1.0	1	0.07060512743889999	blockFiles/set_6/main_unc/rightBlue\GB_RB_1.xlsx
466	main_unc	True	0.0	758	0	8.0	8.0	0.0	1	left	1.0	1.0	1.0	0	-0.0328716830909	blockFiles/set_6/main_unc/rightBlue\GB_RB_1.xlsx
467	main_unc	True	0.0	758	0	8.0	8.0	0.0	1	left	1.0	0.0	1.0	0	-0.0543058911338	blockFiles/set_6/main_unc/rightBlue\GB_RB_1.xlsx
468	main_unc	True	0.0	758	0	8.0	8.0	1.0	0	right	1.0	0.0	1.0	0	-0.013128254786100002	blockFiles/set_6/main_unc/rightBlue\GB_RB_1.xlsx
469	main_unc	True	0.0	758	0	8.0	8.0	0.0	1	left	1.0	1.0	1.0	0	-0.059564908631100005	blockFiles/set_6/main_unc/rightBlue\GB_RB_1.xlsx
470	main_unc	True	0.0	758	0	8.0	8.0	1.0	1	right	2.0	1.0	1.0	1	0.00974639477208	blockFiles/set_6/main_unc/rightBlue\GB_RB_1.xlsx
471	main_unc	True	0.0	758	0	8.0	8.0	0.0	1	left	1.0	1.0	1.0	0	-0.040497068129500005	blockFiles/set_6/main_unc/rightBlue\GB_RB_1.xlsx
472	main_unc	True	0.0	758	0	8.0	8.0	1.0	1	right	2.0	1.0	1.0	1	0.0721105444245	blockFiles/set_6/main_unc/rightBlue\GB_RB_1.xlsx
473	main_unc	True	0.0	758	0	8.0	8.0	1.0	1	right	2.0	1.0	1.0	1	0.0290127484314	blockFiles/set_6/main_unc/rightBlue\GB_RB_1.xlsx
474	main_unc	True	0.0	758	0	8.0	8.0	1.0	0	right	2.0	0.0	0.0	0	-0.0033608631975900003	blockFiles/set_6/main_unc/rightBlue\GB_RB_1.xlsx
475	main_unc	True	0.0	758	0	8.0	8.0	1.0	1	right	2.0	1.0	1.0	1	0.0335751891322	blockFiles/set_6/main_unc/rightBlue\GB_RB_1.xlsx
476	main_unc	True	0.0	758	0	8.0	8.0	1.0	1	right	2.0	1.0	1.0	1	0.0694968331791	blockFiles/set_6/main_unc/rightBlue\GB_RB_1.xlsx
477	main_unc	True	0.0	758	0	8.0	8.0	1.0	0	right	1.0	1.0	1.0	0	-0.043752639479900005	blockFiles/set_6/main_unc/rightBlue\GB_RB_1.xlsx
478	main_unc	True	0.0	758	0	8.0	8.0	1.0	1	right	1.0	0.0	0.0	1	0.0451592255011	blockFiles/set_6/main_unc/rightBlue\GB_RB_1.xlsx
479	main_unc	True	0.0	758	0	8.0	8.0	1.0	1	right	2.0	0.0	1.0	1	0.0552159144357	blockFiles/set_6/main_unc/rightBlue\GB_RB_1.xlsx
480	main_unc	True	0.0	758	0	8.0	8.0	1.0	1	right	1.0	0.0	0.0	1	0.0119778133184	blockFiles/set_6/main_unc/rightBlue\GB_RB_1.xlsx
481	main_unc	True	0.0	758	0	8.0	8.0	0.0	1	left	1.0	1.0	1.0	0	-0.0755332623795	blockFiles/set_6/main_unc/rightBlue\GB_RB_1.xlsx
482	main_unc	True	0.0	758	0	8.0	8.0	1.0	0	right	1.0	0.0	1.0	0	-0.062080299072	blockFiles/set_6/main_unc/rightBlue\GB_RB_1.xlsx
483	main_unc	True	0.0	758	0	8.0	8.0	0.0	1	left	1.0	1.0	1.0	0	-0.0100782941096	blockFiles/set_6/main_unc/rightBlue\GB_RB_1.xlsx
484	main_unc	True	0.0	758	0	9.0	9.0	1.0	1	right	2.0	1.0	0.0	1	0.0621926273406	blockFiles/set_6/main_unc/leftBlue\GB_LB_2.xlsx
485	main_unc	True	0.0	758	0	9.0	9.0	1.0	1	right	2.0	0.0	0.0	1	0.037949573341800005	blockFiles/set_6/main_unc/leftBlue\GB_LB_2.xlsx
486	main_unc	True	0.0	758	0	9.0	9.0	1.0	1	right	2.0	0.0	0.0	1	0.0520764117688	blockFiles/set_6/main_unc/leftBlue\GB_LB_2.xlsx
487	main_unc	True	0.0	758	0	9.0	9.0	0.0	1	left	2.0	1.0	1.0	0	-0.0789231033996	blockFiles/set_6/main_unc/leftBlue\GB_LB_2.xlsx
488	main_unc	True	0.0	758	0	9.0	9.0	1.0	1	right	1.0	1.0	1.0	1	0.0134438031539	blockFiles/set_6/main_unc/leftBlue\GB_LB_2.xlsx
489	main_unc	True	0.0	758	0	9.0	9.0	1.0	1	right	1.0	1.0	1.0	1	0.0035531060211400002	blockFiles/set_6/main_unc/leftBlue\GB_LB_2.xlsx
490	main_unc	True	0.0	758	0	9.0	9.0	0.0	1	left	2.0	1.0	1.0	0	-0.0786307815835	blockFiles/set_6/main_unc/leftBlue\GB_LB_2.xlsx
491	main_unc	True	0.0	758	0	9.0	9.0	0.0	1	left	1.0	1.0	0.0	0	-0.0263250158355	blockFiles/set_6/main_unc/leftBlue\GB_LB_2.xlsx
492	main_unc	True	0.0	758	0	9.0	9.0	0.0	1	left	1.0	0.0	0.0	0	-0.06678728656840001	blockFiles/set_6/main_unc/leftBlue\GB_LB_2.xlsx
493	main_unc	True	0.0	758	0	9.0	9.0	0.0	0	left	1.0	1.0	1.0	1	0.0332400082238	blockFiles/set_6/main_unc/leftBlue\GB_LB_2.xlsx
494	main_unc	True	0.0	758	0	9.0	9.0	0.0	0	left	1.0	0.0	1.0	1	0.0174244631268	blockFiles/set_6/main_unc/leftBlue\GB_LB_2.xlsx
495	main_unc	True	0.0	758	0	9.0	9.0	1.0	1	right	1.0	1.0	1.0	1	0.075521442946	blockFiles/set_6/main_unc/leftBlue\GB_LB_2.xlsx
496	main_unc	True	0.0	758	0	9.0	9.0	1.0	1	right	1.0	1.0	1.0	1	0.00270440205932	blockFiles/set_6/main_unc/leftBlue\GB_LB_2.xlsx
497	main_unc	True	0.0	758	0	9.0	9.0	0.0	1	left	2.0	1.0	1.0	0	-0.048094323203	blockFiles/set_6/main_unc/leftBlue\GB_LB_2.xlsx
498	main_unc	True	0.0	758	0	9.0	9.0	1.0	1	right	1.0	1.0	1.0	1	0.0611947615631	blockFiles/set_6/main_unc/leftBlue\GB_LB_2.xlsx
499	main_unc	True	0.0	758	0	9.0	9.0	1.0	1	right	1.0	1.0	1.0	1	0.04416231697430001	blockFiles/set_6/main_unc/leftBlue\GB_LB_2.xlsx
500	main_unc	True	0.0	758	0	9.0	9.0	0.0	1	left	2.0	1.0	1.0	0	-0.03362973256040001	blockFiles/set_6/main_unc/leftBlue\GB_LB_2.xlsx
501	main_unc	True	0.0	758	0	9.0	9.0	0.0	1	left	2.0	1.0	1.0	0	-0.0666573970392	blockFiles/set_6/main_unc/leftBlue\GB_LB_2.xlsx
502	main_unc	True	0.0	758	0	9.0	9.0	0.0	1	left	2.0	1.0	1.0	0	-0.057028754372100005	blockFiles/set_6/main_unc/leftBlue\GB_LB_2.xlsx
503	main_unc	True	0.0	758	0	9.0	9.0	0.0	0	left	1.0	0.0	1.0	1	0.0363936920464	blockFiles/set_6/main_unc/leftBlue\GB_LB_2.xlsx
504	main_unc	True	0.0	758	0	9.0	9.0	0.0	1	left	2.0	1.0	1.0	0	-0.0194516616128	blockFiles/set_6/main_unc/leftBlue\GB_LB_2.xlsx
505	main_unc	True	0.0	758	0	9.0	9.0	1.0	0	right	1.0	0.0	0.0	0	-0.006383071858439999	blockFiles/set_6/main_unc/leftBlue\GB_LB_2.xlsx
506	main_unc	True	0.0	758	0	9.0	9.0	1.0	0	right	2.0	1.0	1.0	0	-0.010527610667	blockFiles/set_6/main_unc/leftBlue\GB_LB_2.xlsx
507	main_unc	True	0.0	758	0	9.0	9.0	0.0	1	left	2.0	1.0	1.0	0	-0.059913981668699996	blockFiles/set_6/main_unc/leftBlue\GB_LB_2.xlsx
508	main_unc	True	0.0	758	0	9.0	9.0	1.0	1	right	1.0	1.0	1.0	1	0.036021014414699994	blockFiles/set_6/main_unc/leftBlue\GB_LB_2.xlsx
509	main_unc	True	0.0	758	0	10.0	10.0	1.0	1	right	2.0	0.0	1.0	1	0.0476038578153	blockFiles/set_6/main_unc/rightBlue\GB_RB_3.xlsx
510	main_unc	True	0.0	758	0	10.0	10.0	0.0	1	left	2.0	0.0	0.0	0	-0.054610226210199994	blockFiles/set_6/main_unc/rightBlue\GB_RB_3.xlsx
511	main_unc	True	0.0	758	0	10.0	10.0	0.0	0	left	1.0	0.0	0.0	1	0.00115928223357	blockFiles/set_6/main_unc/rightBlue\GB_RB_3.xlsx
512	main_unc	True	0.0	758	0	10.0	10.0	0.0	1	left	1.0	1.0	1.0	0	-0.04626458330080001	blockFiles/set_6/main_unc/rightBlue\GB_RB_3.xlsx
513	main_unc	True	0.0	758	0	10.0	10.0	0.0	1	left	1.0	1.0	1.0	0	-0.0335104881413	blockFiles/set_6/main_unc/rightBlue\GB_RB_3.xlsx
514	main_unc	True	0.0	758	0	10.0	10.0	1.0	1	right	2.0	1.0	1.0	1	0.055232503246499996	blockFiles/set_6/main_unc/rightBlue\GB_RB_3.xlsx
515	main_unc	True	0.0	758	0	10.0	10.0	0.0	0	left	1.0	0.0	0.0	1	0.008244225755329999	blockFiles/set_6/main_unc/rightBlue\GB_RB_3.xlsx
516	main_unc	True	0.0	758	0	10.0	10.0	0.0	1	left	1.0	1.0	1.0	0	-0.0781864142045	blockFiles/set_6/main_unc/rightBlue\GB_RB_3.xlsx
517	main_unc	True	0.0	758	0	10.0	10.0	1.0	1	right	2.0	1.0	1.0	1	0.07492944449189999	blockFiles/set_6/main_unc/rightBlue\GB_RB_3.xlsx
518	main_unc	True	0.0	758	0	10.0	10.0	0.0	1	left	2.0	0.0	0.0	0	-0.00843132225797	blockFiles/set_6/main_unc/rightBlue\GB_RB_3.xlsx
519	main_unc	True	0.0	758	0	10.0	10.0	1.0	1	right	1.0	0.0	0.0	1	0.060379972998099996	blockFiles/set_6/main_unc/rightBlue\GB_RB_3.xlsx
520	main_unc	True	0.0	758	0	10.0	10.0	1.0	1	right	2.0	1.0	1.0	1	0.0117793794535	blockFiles/set_6/main_unc/rightBlue\GB_RB_3.xlsx
521	main_unc	True	0.0	758	0	10.0	10.0	0.0	1	left	1.0	1.0	1.0	0	-0.0323375678621	blockFiles/set_6/main_unc/rightBlue\GB_RB_3.xlsx
522	main_unc	True	0.0	758	0	10.0	10.0	1.0	1	right	2.0	0.0	1.0	1	0.0237226821855	blockFiles/set_6/main_unc/rightBlue\GB_RB_3.xlsx
523	main_unc	True	0.0	758	0	10.0	10.0	1.0	1	right	2.0	0.0	1.0	1	0.07426266692580001	blockFiles/set_6/main_unc/rightBlue\GB_RB_3.xlsx
524	main_unc	True	0.0	758	0	10.0	10.0	1.0	1	right	2.0	1.0	1.0	1	0.000512508973479	blockFiles/set_6/main_unc/rightBlue\GB_RB_3.xlsx
525	main_unc	True	0.0	758	0	10.0	10.0	0.0	1	left	1.0	0.0	1.0	0	-0.05156392904	blockFiles/set_6/main_unc/rightBlue\GB_RB_3.xlsx
526	main_unc	True	0.0	758	0	10.0	10.0	1.0	1	right	1.0	0.0	0.0	1	0.0522295802087	blockFiles/set_6/main_unc/rightBlue\GB_RB_3.xlsx
527	main_unc	True	0.0	758	0	10.0	10.0	0.0	1	left	1.0	1.0	1.0	0	-0.045549984667499994	blockFiles/set_6/main_unc/rightBlue\GB_RB_3.xlsx
528	main_unc	True	0.0	758	0	10.0	10.0	1.0	1	right	2.0	1.0	1.0	1	0.0449265860952	blockFiles/set_6/main_unc/rightBlue\GB_RB_3.xlsx
529	main_unc	True	0.0	758	0	10.0	10.0	1.0	1	right	2.0	1.0	1.0	1	0.0547615933232	blockFiles/set_6/main_unc/rightBlue\GB_RB_3.xlsx
530	main_unc	True	0.0	758	0	10.0	10.0	0.0	1	left	1.0	1.0	1.0	0	-0.0557850350067	blockFiles/set_6/main_unc/rightBlue\GB_RB_3.xlsx
531	main_unc	True	0.0	758	0	10.0	10.0	1.0	1	right	2.0	0.0	1.0	1	0.0167317567766	blockFiles/set_6/main_unc/rightBlue\GB_RB_3.xlsx
532	main_unc	True	0.0	758	0	10.0	10.0	0.0	1	left	1.0	1.0	1.0	0	-0.010012729037600001	blockFiles/set_6/main_unc/rightBlue\GB_RB_3.xlsx
533	main_unc	True	0.0	758	0	10.0	10.0	0.0	1	left	1.0	1.0	1.0	0	-0.0353385663219	blockFiles/set_6/main_unc/rightBlue\GB_RB_3.xlsx
534	main_unc	True	0.0	758	0	11.0	11.0	1.0	0	right	1.0	1.0	1.0	0	-0.019672562927000002	blockFiles/set_6/main_unc/rightBlue\GB_RB_6.xlsx
535	main_unc	True	0.0	758	0	11.0	11.0	0.0	1	left	2.0	0.0	0.0	0	-0.0379835831374	blockFiles/set_6/main_unc/rightBlue\GB_RB_6.xlsx
536	main_unc	True	0.0	758	0	11.0	11.0	1.0	1	right	1.0	0.0	0.0	1	0.0013676569052	blockFiles/set_6/main_unc/rightBlue\GB_RB_6.xlsx
537	main_unc	True	0.0	758	0	11.0	11.0	1.0	1	right	2.0	0.0	1.0	1	0.07792700858789998	blockFiles/set_6/main_unc/rightBlue\GB_RB_6.xlsx
538	main_unc	True	0.0	758	0	11.0	11.0	1.0	1	right	1.0	0.0	0.0	1	0.0668232875317	blockFiles/set_6/main_unc/rightBlue\GB_RB_6.xlsx
539	main_unc	True	0.0	758	0	11.0	11.0	0.0	1	left	1.0	0.0	1.0	0	-0.016564449276799998	blockFiles/set_6/main_unc/rightBlue\GB_RB_6.xlsx
540	main_unc	True	1.0	758	0	11.0	11.0	n/a	0	None	n/a	0.0	n/a	0	-0.0047759202495200005	blockFiles/set_6/main_unc/rightBlue\GB_RB_6.xlsx
541	main_unc	True	0.0	758	0	11.0	11.0	1.0	0	right	2.0	1.0	0.0	0	-0.032914229482400005	blockFiles/set_6/main_unc/rightBlue\GB_RB_6.xlsx
542	main_unc	True	0.0	758	0	11.0	11.0	0.0	1	left	2.0	0.0	0.0	0	-0.0339001350105	blockFiles/set_6/main_unc/rightBlue\GB_RB_6.xlsx
543	main_unc	True	0.0	758	0	11.0	11.0	1.0	1	right	2.0	1.0	1.0	1	0.0572007311881	blockFiles/set_6/main_unc/rightBlue\GB_RB_6.xlsx
544	main_unc	True	0.0	758	0	11.0	11.0	1.0	0	right	2.0	0.0	0.0	0	-0.021019148416800002	blockFiles/set_6/main_unc/rightBlue\GB_RB_6.xlsx
545	main_unc	True	0.0	758	0	11.0	11.0	1.0	0	right	2.0	0.0	0.0	0	-0.0289766285382	blockFiles/set_6/main_unc/rightBlue\GB_RB_6.xlsx
546	main_unc	True	0.0	758	0	11.0	11.0	0.0	1	left	1.0	1.0	1.0	0	-0.07828633258119999	blockFiles/set_6/main_unc/rightBlue\GB_RB_6.xlsx
547	main_unc	True	0.0	758	0	11.0	11.0	1.0	1	right	2.0	1.0	1.0	1	0.0396902897023	blockFiles/set_6/main_unc/rightBlue\GB_RB_6.xlsx
548	main_unc	True	0.0	758	0	11.0	11.0	1.0	1	right	2.0	0.0	1.0	1	0.042034197486899995	blockFiles/set_6/main_unc/rightBlue\GB_RB_6.xlsx
549	main_unc	True	0.0	758	0	11.0	11.0	1.0	1	right	2.0	1.0	1.0	1	0.0358982035704	blockFiles/set_6/main_unc/rightBlue\GB_RB_6.xlsx
550	main_unc	True	0.0	758	0	11.0	11.0	0.0	1	left	1.0	1.0	1.0	0	-0.043680648449800005	blockFiles/set_6/main_unc/rightBlue\GB_RB_6.xlsx
551	main_unc	True	0.0	758	0	11.0	11.0	1.0	1	right	2.0	1.0	1.0	1	0.00498799871653	blockFiles/set_6/main_unc/rightBlue\GB_RB_6.xlsx
552	main_unc	True	0.0	758	0	11.0	11.0	0.0	1	left	1.0	1.0	1.0	0	-0.065472705029	blockFiles/set_6/main_unc/rightBlue\GB_RB_6.xlsx
553	main_unc	True	0.0	758	0	11.0	11.0	1.0	1	right	2.0	1.0	1.0	1	0.03880390953269999	blockFiles/set_6/main_unc/rightBlue\GB_RB_6.xlsx
554	main_unc	True	0.0	758	0	11.0	11.0	0.0	1	left	1.0	1.0	1.0	0	-0.0471132927202	blockFiles/set_6/main_unc/rightBlue\GB_RB_6.xlsx
555	main_unc	True	0.0	758	0	11.0	11.0	1.0	1	right	2.0	1.0	1.0	1	0.00461481127888	blockFiles/set_6/main_unc/rightBlue\GB_RB_6.xlsx
556	main_unc	True	0.0	758	0	11.0	11.0	1.0	1	right	2.0	1.0	1.0	1	0.04836864087730001	blockFiles/set_6/main_unc/rightBlue\GB_RB_6.xlsx
557	main_unc	True	0.0	758	0	11.0	11.0	1.0	1	right	2.0	1.0	1.0	1	0.0047893048077799994	blockFiles/set_6/main_unc/rightBlue\GB_RB_6.xlsx
558	main_unc	True	0.0	758	0	11.0	11.0	1.0	1	right	2.0	1.0	1.0	1	0.050178799927199993	blockFiles/set_6/main_unc/rightBlue\GB_RB_6.xlsx
559	main_unc	True	0.0	758	0	11.0	11.0	1.0	0	right	2.0	0.0	0.0	0	-0.0047759202495200005	blockFiles/set_6/main_unc/rightBlue\GB_RB_6.xlsx
