	trial_type	complete	missIndex	participant	id	blockNumber	b_t	d_t	decision1.corr	decision1.keys	a_t	r_t	decision2.corr	s_t	u_t	block_file
0	main_safe	True	1.0	747	0	0.0	0.0	0.0	1	left	n/a	0.0	n/a	0	-0.08	blockFiles/set_41/main_safe/leftBlue\GB_LB_2.xlsx
1	main_safe	True	0.0	747	0	0.0	0.0	0.0	1	left	1.0	0.0	0.0	0	-0.08	blockFiles/set_41/main_safe/leftBlue\GB_LB_2.xlsx
2	main_safe	True	0.0	747	0	0.0	0.0	1.0	1	right	1.0	0.0	1.0	1	0.08	blockFiles/set_41/main_safe/leftBlue\GB_LB_2.xlsx
3	main_safe	True	0.0	747	0	0.0	0.0	0.0	1	left	2.0	0.0	1.0	0	-0.08	blockFiles/set_41/main_safe/leftBlue\GB_LB_2.xlsx
4	main_safe	True	0.0	747	0	0.0	0.0	1.0	1	right	2.0	0.0	0.0	1	0.08	blockFiles/set_41/main_safe/leftBlue\GB_LB_2.xlsx
5	main_safe	True	0.0	747	0	0.0	0.0	1.0	1	right	2.0	0.0	0.0	1	0.08	blockFiles/set_41/main_safe/leftBlue\GB_LB_2.xlsx
6	main_safe	True	0.0	747	0	0.0	0.0	1.0	1	right	1.0	1.0	1.0	1	0.08	blockFiles/set_41/main_safe/leftBlue\GB_LB_2.xlsx
7	main_safe	True	0.0	747	0	0.0	0.0	0.0	1	left	2.0	1.0	1.0	0	-0.08	blockFiles/set_41/main_safe/leftBlue\GB_LB_2.xlsx
8	main_safe	True	0.0	747	0	0.0	0.0	0.0	1	left	2.0	1.0	1.0	0	-0.08	blockFiles/set_41/main_safe/leftBlue\GB_LB_2.xlsx
9	main_safe	True	0.0	747	0	0.0	0.0	0.0	1	left	2.0	0.0	1.0	0	-0.08	blockFiles/set_41/main_safe/leftBlue\GB_LB_2.xlsx
10	main_safe	True	0.0	747	0	0.0	0.0	1.0	1	right	1.0	1.0	1.0	1	0.08	blockFiles/set_41/main_safe/leftBlue\GB_LB_2.xlsx
11	main_safe	True	0.0	747	0	0.0	0.0	1.0	1	right	1.0	1.0	1.0	1	0.08	blockFiles/set_41/main_safe/leftBlue\GB_LB_2.xlsx
12	main_safe	True	0.0	747	0	0.0	0.0	1.0	1	right	1.0	1.0	1.0	1	0.08	blockFiles/set_41/main_safe/leftBlue\GB_LB_2.xlsx
13	main_safe	True	0.0	747	0	0.0	0.0	1.0	1	right	1.0	1.0	1.0	1	0.08	blockFiles/set_41/main_safe/leftBlue\GB_LB_2.xlsx
14	main_safe	True	0.0	747	0	0.0	0.0	1.0	1	right	1.0	1.0	1.0	1	0.08	blockFiles/set_41/main_safe/leftBlue\GB_LB_2.xlsx
15	main_safe	True	0.0	747	0	0.0	0.0	1.0	1	right	1.0	0.0	1.0	1	0.08	blockFiles/set_41/main_safe/leftBlue\GB_LB_2.xlsx
16	main_safe	True	0.0	747	0	0.0	0.0	0.0	1	left	2.0	1.0	1.0	0	-0.08	blockFiles/set_41/main_safe/leftBlue\GB_LB_2.xlsx
17	main_safe	True	0.0	747	0	0.0	0.0	1.0	1	right	1.0	1.0	1.0	1	0.08	blockFiles/set_41/main_safe/leftBlue\GB_LB_2.xlsx
18	main_safe	True	0.0	747	0	0.0	0.0	0.0	1	left	2.0	1.0	1.0	0	-0.08	blockFiles/set_41/main_safe/leftBlue\GB_LB_2.xlsx
19	main_safe	True	0.0	747	0	0.0	0.0	0.0	1	left	2.0	1.0	1.0	0	-0.08	blockFiles/set_41/main_safe/leftBlue\GB_LB_2.xlsx
20	main_safe	True	0.0	747	0	0.0	0.0	0.0	1	left	2.0	1.0	1.0	0	-0.08	blockFiles/set_41/main_safe/leftBlue\GB_LB_2.xlsx
21	main_safe	True	0.0	747	0	0.0	0.0	0.0	1	left	2.0	0.0	1.0	0	-0.08	blockFiles/set_41/main_safe/leftBlue\GB_LB_2.xlsx
22	main_safe	True	0.0	747	0	0.0	0.0	0.0	1	left	2.0	1.0	1.0	0	-0.08	blockFiles/set_41/main_safe/leftBlue\GB_LB_2.xlsx
23	main_safe	True	0.0	747	0	0.0	0.0	1.0	1	right	1.0	1.0	1.0	1	0.08	blockFiles/set_41/main_safe/leftBlue\GB_LB_2.xlsx
24	main_safe	True	0.0	747	0	0.0	0.0	0.0	1	left	2.0	1.0	1.0	0	-0.08	blockFiles/set_41/main_safe/leftBlue\GB_LB_2.xlsx
25	main_safe	True	0.0	747	0	0.0	0.0	0.0	1	left	2.0	1.0	1.0	0	-0.08	blockFiles/set_41/main_safe/leftBlue\GB_LB_2.xlsx
26	main_safe	True	0.0	747	0	1.0	1.0	1.0	1	right	1.0	0.0	0.0	1	0.08	blockFiles/set_41/main_safe/rightBlue\GB_RB_3.xlsx
27	main_safe	True	0.0	747	0	1.0	1.0	1.0	1	right	2.0	1.0	1.0	1	0.08	blockFiles/set_41/main_safe/rightBlue\GB_RB_3.xlsx
28	main_safe	True	0.0	747	0	1.0	1.0	1.0	1	right	2.0	1.0	1.0	1	0.08	blockFiles/set_41/main_safe/rightBlue\GB_RB_3.xlsx
29	main_safe	True	0.0	747	0	1.0	1.0	0.0	1	left	1.0	0.0	1.0	0	-0.08	blockFiles/set_41/main_safe/rightBlue\GB_RB_3.xlsx
30	main_safe	True	0.0	747	0	1.0	1.0	0.0	1	left	1.0	1.0	1.0	0	-0.08	blockFiles/set_41/main_safe/rightBlue\GB_RB_3.xlsx
31	main_safe	True	0.0	747	0	1.0	1.0	0.0	1	left	1.0	1.0	1.0	0	-0.08	blockFiles/set_41/main_safe/rightBlue\GB_RB_3.xlsx
32	main_safe	True	0.0	747	0	1.0	1.0	1.0	1	right	2.0	1.0	1.0	1	0.08	blockFiles/set_41/main_safe/rightBlue\GB_RB_3.xlsx
33	main_safe	True	0.0	747	0	1.0	1.0	0.0	1	left	1.0	1.0	1.0	0	-0.08	blockFiles/set_41/main_safe/rightBlue\GB_RB_3.xlsx
34	main_safe	True	0.0	747	0	1.0	1.0	1.0	1	right	2.0	1.0	1.0	1	0.08	blockFiles/set_41/main_safe/rightBlue\GB_RB_3.xlsx
35	main_safe	True	0.0	747	0	1.0	1.0	0.0	1	left	1.0	1.0	1.0	0	-0.08	blockFiles/set_41/main_safe/rightBlue\GB_RB_3.xlsx
36	main_safe	True	0.0	747	0	1.0	1.0	1.0	1	right	2.0	0.0	1.0	1	0.08	blockFiles/set_41/main_safe/rightBlue\GB_RB_3.xlsx
37	main_safe	True	0.0	747	0	1.0	1.0	0.0	1	left	1.0	0.0	1.0	0	-0.08	blockFiles/set_41/main_safe/rightBlue\GB_RB_3.xlsx
38	main_safe	True	0.0	747	0	1.0	1.0	1.0	1	right	2.0	1.0	1.0	1	0.08	blockFiles/set_41/main_safe/rightBlue\GB_RB_3.xlsx
39	main_safe	True	0.0	747	0	1.0	1.0	1.0	1	right	2.0	1.0	1.0	1	0.08	blockFiles/set_41/main_safe/rightBlue\GB_RB_3.xlsx
40	main_safe	True	0.0	747	0	1.0	1.0	0.0	1	left	1.0	1.0	1.0	0	-0.08	blockFiles/set_41/main_safe/rightBlue\GB_RB_3.xlsx
41	main_safe	True	0.0	747	0	1.0	1.0	0.0	1	left	1.0	0.0	1.0	0	-0.08	blockFiles/set_41/main_safe/rightBlue\GB_RB_3.xlsx
42	main_safe	True	0.0	747	0	1.0	1.0	0.0	1	left	1.0	1.0	1.0	0	-0.08	blockFiles/set_41/main_safe/rightBlue\GB_RB_3.xlsx
43	main_safe	True	0.0	747	0	1.0	1.0	0.0	1	left	1.0	1.0	1.0	0	-0.08	blockFiles/set_41/main_safe/rightBlue\GB_RB_3.xlsx
44	main_safe	True	0.0	747	0	1.0	1.0	1.0	1	right	2.0	1.0	1.0	1	0.08	blockFiles/set_41/main_safe/rightBlue\GB_RB_3.xlsx
45	main_safe	True	0.0	747	0	1.0	1.0	1.0	1	right	2.0	1.0	1.0	1	0.08	blockFiles/set_41/main_safe/rightBlue\GB_RB_3.xlsx
46	main_safe	True	0.0	747	0	1.0	1.0	1.0	1	right	2.0	1.0	1.0	1	0.08	blockFiles/set_41/main_safe/rightBlue\GB_RB_3.xlsx
47	main_safe	True	0.0	747	0	1.0	1.0	0.0	1	left	1.0	1.0	1.0	0	-0.08	blockFiles/set_41/main_safe/rightBlue\GB_RB_3.xlsx
48	main_safe	True	0.0	747	0	1.0	1.0	0.0	1	left	1.0	1.0	1.0	0	-0.08	blockFiles/set_41/main_safe/rightBlue\GB_RB_3.xlsx
49	main_safe	True	0.0	747	0	1.0	1.0	0.0	1	left	1.0	1.0	1.0	0	-0.08	blockFiles/set_41/main_safe/rightBlue\GB_RB_3.xlsx
50	main_safe	True	0.0	747	0	1.0	1.0	1.0	1	right	2.0	1.0	1.0	1	0.08	blockFiles/set_41/main_safe/rightBlue\GB_RB_3.xlsx
51	main_safe	True	0.0	747	0	2.0	2.0	1.0	1	right	1.0	0.0	0.0	1	0.08	blockFiles/set_41/main_safe/rightBlue\GB_RB_2.xlsx
52	main_safe	True	0.0	747	0	2.0	2.0	0.0	1	left	1.0	1.0	1.0	0	-0.08	blockFiles/set_41/main_safe/rightBlue\GB_RB_2.xlsx
53	main_safe	True	0.0	747	0	2.0	2.0	0.0	1	left	1.0	0.0	1.0	0	-0.08	blockFiles/set_41/main_safe/rightBlue\GB_RB_2.xlsx
54	main_safe	True	0.0	747	0	2.0	2.0	1.0	1	right	2.0	1.0	1.0	1	0.08	blockFiles/set_41/main_safe/rightBlue\GB_RB_2.xlsx
55	main_safe	True	0.0	747	0	2.0	2.0	1.0	1	right	2.0	0.0	1.0	1	0.08	blockFiles/set_41/main_safe/rightBlue\GB_RB_2.xlsx
56	main_safe	True	0.0	747	0	2.0	2.0	0.0	1	left	1.0	1.0	1.0	0	-0.08	blockFiles/set_41/main_safe/rightBlue\GB_RB_2.xlsx
57	main_safe	True	0.0	747	0	2.0	2.0	1.0	1	right	2.0	1.0	1.0	1	0.08	blockFiles/set_41/main_safe/rightBlue\GB_RB_2.xlsx
58	main_safe	True	0.0	747	0	2.0	2.0	0.0	1	left	1.0	1.0	1.0	0	-0.08	blockFiles/set_41/main_safe/rightBlue\GB_RB_2.xlsx
59	main_safe	True	0.0	747	0	2.0	2.0	0.0	1	left	1.0	1.0	1.0	0	-0.08	blockFiles/set_41/main_safe/rightBlue\GB_RB_2.xlsx
60	main_safe	True	0.0	747	0	2.0	2.0	1.0	1	right	2.0	1.0	1.0	1	0.08	blockFiles/set_41/main_safe/rightBlue\GB_RB_2.xlsx
61	main_safe	True	0.0	747	0	2.0	2.0	0.0	1	left	1.0	1.0	1.0	0	-0.08	blockFiles/set_41/main_safe/rightBlue\GB_RB_2.xlsx
62	main_safe	True	0.0	747	0	2.0	2.0	1.0	1	right	2.0	0.0	1.0	1	0.08	blockFiles/set_41/main_safe/rightBlue\GB_RB_2.xlsx
63	main_safe	True	0.0	747	0	2.0	2.0	0.0	1	left	1.0	1.0	1.0	0	-0.08	blockFiles/set_41/main_safe/rightBlue\GB_RB_2.xlsx
64	main_safe	True	0.0	747	0	2.0	2.0	0.0	1	left	1.0	1.0	1.0	0	-0.08	blockFiles/set_41/main_safe/rightBlue\GB_RB_2.xlsx
65	main_safe	True	0.0	747	0	2.0	2.0	0.0	1	left	1.0	1.0	1.0	0	-0.08	blockFiles/set_41/main_safe/rightBlue\GB_RB_2.xlsx
66	main_safe	True	0.0	747	0	2.0	2.0	1.0	1	right	2.0	0.0	1.0	1	0.08	blockFiles/set_41/main_safe/rightBlue\GB_RB_2.xlsx
67	main_safe	True	0.0	747	0	2.0	2.0	1.0	1	right	2.0	1.0	1.0	1	0.08	blockFiles/set_41/main_safe/rightBlue\GB_RB_2.xlsx
68	main_safe	True	0.0	747	0	2.0	2.0	1.0	1	right	2.0	0.0	1.0	1	0.08	blockFiles/set_41/main_safe/rightBlue\GB_RB_2.xlsx
69	main_safe	True	0.0	747	0	2.0	2.0	0.0	1	left	1.0	1.0	1.0	0	-0.08	blockFiles/set_41/main_safe/rightBlue\GB_RB_2.xlsx
70	main_safe	True	0.0	747	0	2.0	2.0	1.0	1	right	2.0	1.0	1.0	1	0.08	blockFiles/set_41/main_safe/rightBlue\GB_RB_2.xlsx
71	main_safe	True	0.0	747	0	2.0	2.0	0.0	1	left	1.0	1.0	1.0	0	-0.08	blockFiles/set_41/main_safe/rightBlue\GB_RB_2.xlsx
72	main_safe	True	0.0	747	0	2.0	2.0	0.0	1	left	1.0	1.0	1.0	0	-0.08	blockFiles/set_41/main_safe/rightBlue\GB_RB_2.xlsx
73	main_safe	True	0.0	747	0	2.0	2.0	1.0	1	right	2.0	1.0	1.0	1	0.08	blockFiles/set_41/main_safe/rightBlue\GB_RB_2.xlsx
74	main_safe	True	1.0	747	0	2.0	2.0	n/a	0	None	n/a	0.0	n/a	0	-0.08	blockFiles/set_41/main_safe/rightBlue\GB_RB_2.xlsx
75	main_safe	True	0.0	747	0	2.0	2.0	1.0	1	right	2.0	1.0	1.0	1	0.08	blockFiles/set_41/main_safe/rightBlue\GB_RB_2.xlsx
76	main_safe	True	0.0	747	0	2.0	2.0	0.0	1	left	1.0	1.0	1.0	0	-0.08	blockFiles/set_41/main_safe/rightBlue\GB_RB_2.xlsx
77	main_safe	True	0.0	747	0	3.0	3.0	0.0	1	left	2.0	0.0	0.0	0	-0.08	blockFiles/set_41/main_safe/rightBlue\GB_RB_1.xlsx
78	main_safe	True	0.0	747	0	3.0	3.0	1.0	1	right	2.0	1.0	1.0	1	0.08	blockFiles/set_41/main_safe/rightBlue\GB_RB_1.xlsx
79	main_safe	True	0.0	747	0	3.0	3.0	0.0	1	left	1.0	0.0	1.0	0	-0.08	blockFiles/set_41/main_safe/rightBlue\GB_RB_1.xlsx
80	main_safe	True	0.0	747	0	3.0	3.0	0.0	1	left	1.0	0.0	1.0	0	-0.08	blockFiles/set_41/main_safe/rightBlue\GB_RB_1.xlsx
81	main_safe	True	0.0	747	0	3.0	3.0	0.0	1	left	1.0	1.0	1.0	0	-0.08	blockFiles/set_41/main_safe/rightBlue\GB_RB_1.xlsx
82	main_safe	True	0.0	747	0	3.0	3.0	0.0	1	left	1.0	1.0	1.0	0	-0.08	blockFiles/set_41/main_safe/rightBlue\GB_RB_1.xlsx
83	main_safe	True	0.0	747	0	3.0	3.0	1.0	1	right	2.0	1.0	1.0	1	0.08	blockFiles/set_41/main_safe/rightBlue\GB_RB_1.xlsx
84	main_safe	True	0.0	747	0	3.0	3.0	0.0	1	left	1.0	1.0	1.0	0	-0.08	blockFiles/set_41/main_safe/rightBlue\GB_RB_1.xlsx
85	main_safe	True	0.0	747	0	3.0	3.0	0.0	1	left	1.0	1.0	1.0	0	-0.08	blockFiles/set_41/main_safe/rightBlue\GB_RB_1.xlsx
86	main_safe	True	0.0	747	0	3.0	3.0	0.0	1	left	1.0	1.0	1.0	0	-0.08	blockFiles/set_41/main_safe/rightBlue\GB_RB_1.xlsx
87	main_safe	True	1.0	747	0	3.0	3.0	0.0	1	left	n/a	0.0	n/a	0	-0.08	blockFiles/set_41/main_safe/rightBlue\GB_RB_1.xlsx
88	main_safe	True	0.0	747	0	3.0	3.0	1.0	1	right	2.0	0.0	1.0	1	0.08	blockFiles/set_41/main_safe/rightBlue\GB_RB_1.xlsx
89	main_safe	True	0.0	747	0	3.0	3.0	1.0	1	right	2.0	1.0	1.0	1	0.08	blockFiles/set_41/main_safe/rightBlue\GB_RB_1.xlsx
90	main_safe	True	0.0	747	0	3.0	3.0	0.0	1	left	1.0	1.0	1.0	0	-0.08	blockFiles/set_41/main_safe/rightBlue\GB_RB_1.xlsx
91	main_safe	True	0.0	747	0	3.0	3.0	1.0	1	right	2.0	1.0	1.0	1	0.08	blockFiles/set_41/main_safe/rightBlue\GB_RB_1.xlsx
92	main_safe	True	0.0	747	0	3.0	3.0	1.0	1	right	2.0	1.0	1.0	1	0.08	blockFiles/set_41/main_safe/rightBlue\GB_RB_1.xlsx
93	main_safe	True	0.0	747	0	3.0	3.0	1.0	1	right	2.0	1.0	1.0	1	0.08	blockFiles/set_41/main_safe/rightBlue\GB_RB_1.xlsx
94	main_safe	True	0.0	747	0	3.0	3.0	1.0	1	right	2.0	1.0	1.0	1	0.08	blockFiles/set_41/main_safe/rightBlue\GB_RB_1.xlsx
95	main_safe	True	0.0	747	0	3.0	3.0	1.0	1	right	2.0	1.0	1.0	1	0.08	blockFiles/set_41/main_safe/rightBlue\GB_RB_1.xlsx
96	main_safe	True	0.0	747	0	3.0	3.0	1.0	1	right	2.0	0.0	1.0	1	0.08	blockFiles/set_41/main_safe/rightBlue\GB_RB_1.xlsx
97	main_safe	True	0.0	747	0	3.0	3.0	1.0	1	right	2.0	1.0	1.0	1	0.08	blockFiles/set_41/main_safe/rightBlue\GB_RB_1.xlsx
98	main_safe	True	0.0	747	0	3.0	3.0	0.0	1	left	1.0	0.0	1.0	0	-0.08	blockFiles/set_41/main_safe/rightBlue\GB_RB_1.xlsx
99	main_safe	True	0.0	747	0	3.0	3.0	1.0	1	right	2.0	1.0	1.0	1	0.08	blockFiles/set_41/main_safe/rightBlue\GB_RB_1.xlsx
100	main_safe	True	0.0	747	0	3.0	3.0	0.0	1	left	1.0	1.0	1.0	0	-0.08	blockFiles/set_41/main_safe/rightBlue\GB_RB_1.xlsx
101	main_safe	True	0.0	747	0	3.0	3.0	1.0	1	right	2.0	0.0	1.0	1	0.08	blockFiles/set_41/main_safe/rightBlue\GB_RB_1.xlsx
102	main_safe	True	0.0	747	0	3.0	3.0	0.0	1	left	1.0	1.0	1.0	0	-0.08	blockFiles/set_41/main_safe/rightBlue\GB_RB_1.xlsx
103	main_safe	True	0.0	747	0	4.0	4.0	0.0	1	left	2.0	1.0	1.0	0	-0.08	blockFiles/set_41/main_safe/leftBlue\GB_LB_3.xlsx
104	main_safe	True	0.0	747	0	4.0	4.0	1.0	1	right	1.0	1.0	1.0	1	0.08	blockFiles/set_41/main_safe/leftBlue\GB_LB_3.xlsx
105	main_safe	True	0.0	747	0	4.0	4.0	0.0	1	left	2.0	1.0	1.0	0	-0.08	blockFiles/set_41/main_safe/leftBlue\GB_LB_3.xlsx
106	main_safe	True	0.0	747	0	4.0	4.0	0.0	1	left	2.0	0.0	1.0	0	-0.08	blockFiles/set_41/main_safe/leftBlue\GB_LB_3.xlsx
107	main_safe	True	0.0	747	0	4.0	4.0	0.0	1	left	2.0	1.0	1.0	0	-0.08	blockFiles/set_41/main_safe/leftBlue\GB_LB_3.xlsx
108	main_safe	True	0.0	747	0	4.0	4.0	0.0	1	left	2.0	1.0	1.0	0	-0.08	blockFiles/set_41/main_safe/leftBlue\GB_LB_3.xlsx
109	main_safe	True	0.0	747	0	4.0	4.0	1.0	1	right	1.0	1.0	1.0	1	0.08	blockFiles/set_41/main_safe/leftBlue\GB_LB_3.xlsx
110	main_safe	True	0.0	747	0	4.0	4.0	1.0	1	right	1.0	1.0	1.0	1	0.08	blockFiles/set_41/main_safe/leftBlue\GB_LB_3.xlsx
111	main_safe	True	0.0	747	0	4.0	4.0	0.0	1	left	2.0	1.0	1.0	0	-0.08	blockFiles/set_41/main_safe/leftBlue\GB_LB_3.xlsx
112	main_safe	True	0.0	747	0	4.0	4.0	1.0	1	right	1.0	1.0	1.0	1	0.08	blockFiles/set_41/main_safe/leftBlue\GB_LB_3.xlsx
113	main_safe	True	0.0	747	0	4.0	4.0	0.0	1	left	2.0	1.0	1.0	0	-0.08	blockFiles/set_41/main_safe/leftBlue\GB_LB_3.xlsx
114	main_safe	True	1.0	747	0	4.0	4.0	0.0	1	left	n/a	0.0	n/a	0	-0.08	blockFiles/set_41/main_safe/leftBlue\GB_LB_3.xlsx
115	main_safe	True	0.0	747	0	4.0	4.0	1.0	1	right	1.0	1.0	1.0	1	0.08	blockFiles/set_41/main_safe/leftBlue\GB_LB_3.xlsx
116	main_safe	True	0.0	747	0	4.0	4.0	1.0	1	right	1.0	1.0	1.0	1	0.08	blockFiles/set_41/main_safe/leftBlue\GB_LB_3.xlsx
117	main_safe	True	0.0	747	0	4.0	4.0	1.0	0	right	2.0	1.0	1.0	0	-0.08	blockFiles/set_41/main_safe/leftBlue\GB_LB_3.xlsx
118	main_safe	True	1.0	747	0	4.0	4.0	1.0	1	right	n/a	0.0	n/a	1	0.08	blockFiles/set_41/main_safe/leftBlue\GB_LB_3.xlsx
119	main_safe	True	0.0	747	0	4.0	4.0	1.0	1	right	1.0	0.0	1.0	1	0.08	blockFiles/set_41/main_safe/leftBlue\GB_LB_3.xlsx
120	main_safe	True	0.0	747	0	4.0	4.0	1.0	1	right	1.0	0.0	1.0	1	0.08	blockFiles/set_41/main_safe/leftBlue\GB_LB_3.xlsx
121	main_safe	True	1.0	747	0	4.0	4.0	1.0	1	right	n/a	0.0	n/a	1	0.08	blockFiles/set_41/main_safe/leftBlue\GB_LB_3.xlsx
122	main_safe	True	0.0	747	0	4.0	4.0	1.0	1	right	1.0	1.0	1.0	1	0.08	blockFiles/set_41/main_safe/leftBlue\GB_LB_3.xlsx
123	main_safe	True	0.0	747	0	4.0	4.0	1.0	1	right	1.0	1.0	1.0	1	0.08	blockFiles/set_41/main_safe/leftBlue\GB_LB_3.xlsx
124	main_safe	True	0.0	747	0	4.0	4.0	0.0	1	left	2.0	1.0	1.0	0	-0.08	blockFiles/set_41/main_safe/leftBlue\GB_LB_3.xlsx
125	main_safe	True	1.0	747	0	4.0	4.0	0.0	1	left	n/a	0.0	n/a	0	-0.08	blockFiles/set_41/main_safe/leftBlue\GB_LB_3.xlsx
126	main_safe	True	0.0	747	0	4.0	4.0	1.0	1	right	1.0	1.0	1.0	1	0.08	blockFiles/set_41/main_safe/leftBlue\GB_LB_3.xlsx
127	main_safe	True	1.0	747	0	4.0	4.0	0.0	1	left	n/a	0.0	n/a	0	-0.08	blockFiles/set_41/main_safe/leftBlue\GB_LB_3.xlsx
128	main_safe	True	0.0	747	0	4.0	4.0	0.0	1	left	2.0	1.0	1.0	0	-0.08	blockFiles/set_41/main_safe/leftBlue\GB_LB_3.xlsx
129	main_safe	True	0.0	747	0	4.0	4.0	n/a	0	None	n/a	0.0	n/a	1	0.08	blockFiles/set_41/main_safe/leftBlue\GB_LB_3.xlsx
130	main_safe	True	0.0	747	0	4.0	4.0	1.0	1	right	1.0	1.0	1.0	1	0.08	blockFiles/set_41/main_safe/leftBlue\GB_LB_3.xlsx
131	main_safe	True	0.0	747	0	4.0	4.0	1.0	1	right	1.0	1.0	1.0	1	0.08	blockFiles/set_41/main_safe/leftBlue\GB_LB_3.xlsx
132	main_safe	True	0.0	747	0	4.0	4.0	0.0	1	left	2.0	0.0	1.0	0	-0.08	blockFiles/set_41/main_safe/leftBlue\GB_LB_3.xlsx
133	main_safe	True	0.0	747	0	4.0	4.0	0.0	1	left	2.0	1.0	1.0	0	-0.08	blockFiles/set_41/main_safe/leftBlue\GB_LB_3.xlsx
134	main_safe	True	0.0	747	0	5.0	5.0	0.0	1	left	2.0	1.0	1.0	0	-0.08	blockFiles/set_41/main_safe/leftBlue\GB_LB_1.xlsx
135	main_safe	True	0.0	747	0	5.0	5.0	1.0	1	right	1.0	0.0	1.0	1	0.08	blockFiles/set_41/main_safe/leftBlue\GB_LB_1.xlsx
136	main_safe	True	0.0	747	0	5.0	5.0	0.0	1	left	2.0	1.0	1.0	0	-0.08	blockFiles/set_41/main_safe/leftBlue\GB_LB_1.xlsx
137	main_safe	True	0.0	747	0	5.0	5.0	0.0	1	left	2.0	1.0	1.0	0	-0.08	blockFiles/set_41/main_safe/leftBlue\GB_LB_1.xlsx
138	main_safe	True	0.0	747	0	5.0	5.0	1.0	1	right	1.0	1.0	1.0	1	0.08	blockFiles/set_41/main_safe/leftBlue\GB_LB_1.xlsx
139	main_safe	True	0.0	747	0	5.0	5.0	0.0	1	left	2.0	1.0	1.0	0	-0.08	blockFiles/set_41/main_safe/leftBlue\GB_LB_1.xlsx
140	main_safe	True	0.0	747	0	5.0	5.0	0.0	1	left	2.0	1.0	1.0	0	-0.08	blockFiles/set_41/main_safe/leftBlue\GB_LB_1.xlsx
141	main_safe	True	0.0	747	0	5.0	5.0	0.0	1	left	2.0	1.0	1.0	0	-0.08	blockFiles/set_41/main_safe/leftBlue\GB_LB_1.xlsx
142	main_safe	True	0.0	747	0	5.0	5.0	0.0	1	left	2.0	1.0	1.0	0	-0.08	blockFiles/set_41/main_safe/leftBlue\GB_LB_1.xlsx
143	main_safe	True	0.0	747	0	5.0	5.0	1.0	1	right	1.0	0.0	1.0	1	0.08	blockFiles/set_41/main_safe/leftBlue\GB_LB_1.xlsx
144	main_safe	True	0.0	747	0	5.0	5.0	0.0	1	left	2.0	1.0	1.0	0	-0.08	blockFiles/set_41/main_safe/leftBlue\GB_LB_1.xlsx
145	main_safe	True	0.0	747	0	5.0	5.0	1.0	1	right	1.0	1.0	1.0	1	0.08	blockFiles/set_41/main_safe/leftBlue\GB_LB_1.xlsx
146	main_safe	True	0.0	747	0	5.0	5.0	0.0	1	left	2.0	1.0	1.0	0	-0.08	blockFiles/set_41/main_safe/leftBlue\GB_LB_1.xlsx
147	main_safe	True	0.0	747	0	5.0	5.0	1.0	1	right	1.0	1.0	1.0	1	0.08	blockFiles/set_41/main_safe/leftBlue\GB_LB_1.xlsx
148	main_safe	True	0.0	747	0	5.0	5.0	0.0	1	left	2.0	1.0	1.0	0	-0.08	blockFiles/set_41/main_safe/leftBlue\GB_LB_1.xlsx
149	main_safe	True	0.0	747	0	5.0	5.0	0.0	1	left	2.0	1.0	1.0	0	-0.08	blockFiles/set_41/main_safe/leftBlue\GB_LB_1.xlsx
150	main_safe	True	0.0	747	0	5.0	5.0	1.0	1	right	1.0	1.0	1.0	1	0.08	blockFiles/set_41/main_safe/leftBlue\GB_LB_1.xlsx
151	main_safe	True	0.0	747	0	5.0	5.0	1.0	1	right	1.0	1.0	1.0	1	0.08	blockFiles/set_41/main_safe/leftBlue\GB_LB_1.xlsx
152	main_safe	True	0.0	747	0	5.0	5.0	1.0	1	right	1.0	1.0	1.0	1	0.08	blockFiles/set_41/main_safe/leftBlue\GB_LB_1.xlsx
153	main_safe	True	0.0	747	0	5.0	5.0	1.0	1	right	1.0	1.0	1.0	1	0.08	blockFiles/set_41/main_safe/leftBlue\GB_LB_1.xlsx
154	main_safe	True	0.0	747	0	5.0	5.0	1.0	1	right	1.0	0.0	1.0	1	0.08	blockFiles/set_41/main_safe/leftBlue\GB_LB_1.xlsx
155	main_safe	True	0.0	747	0	5.0	5.0	0.0	1	left	2.0	0.0	1.0	0	-0.08	blockFiles/set_41/main_safe/leftBlue\GB_LB_1.xlsx
156	main_safe	True	0.0	747	0	5.0	5.0	1.0	1	right	1.0	1.0	1.0	1	0.08	blockFiles/set_41/main_safe/leftBlue\GB_LB_1.xlsx
157	main_safe	True	0.0	747	0	5.0	5.0	1.0	1	right	1.0	0.0	1.0	1	0.08	blockFiles/set_41/main_safe/leftBlue\GB_LB_1.xlsx
158	main_safe	True	0.0	747	0	5.0	5.0	1.0	1	right	1.0	1.0	1.0	1	0.08	blockFiles/set_41/main_safe/leftBlue\GB_LB_1.xlsx
159	patches	True	n/a	747	0	n/a	n/a	0.0	1	left	n/a	n/a	n/a	0	-0.0299455027096	blockFiles/set_41/main_PD/GB_runPatches1.xlsx
160	patches	True	n/a	747	0	n/a	n/a	0.0	1	left	n/a	n/a	n/a	0	-0.07450097097080001	blockFiles/set_41/main_PD/GB_runPatches1.xlsx
161	patches	True	n/a	747	0	n/a	n/a	0.0	1	left	n/a	n/a	n/a	0	-0.07460270022969999	blockFiles/set_41/main_PD/GB_runPatches1.xlsx
162	patches	True	n/a	747	0	n/a	n/a	0.0	1	left	n/a	n/a	n/a	0	-0.0255683782883	blockFiles/set_41/main_PD/GB_runPatches1.xlsx
163	patches	True	n/a	747	0	n/a	n/a	0.0	1	left	n/a	n/a	n/a	0	-0.014522519558700002	blockFiles/set_41/main_PD/GB_runPatches1.xlsx
164	patches	True	n/a	747	0	n/a	n/a	0.0	0	left	n/a	n/a	n/a	1	0.028281914554499996	blockFiles/set_41/main_PD/GB_runPatches1.xlsx
165	patches	True	n/a	747	0	n/a	n/a	1.0	1	right	n/a	n/a	n/a	1	0.0648943269439	blockFiles/set_41/main_PD/GB_runPatches1.xlsx
166	patches	True	n/a	747	0	n/a	n/a	0.0	1	left	n/a	n/a	n/a	0	-0.0498719943501	blockFiles/set_41/main_PD/GB_runPatches1.xlsx
167	patches	True	n/a	747	0	n/a	n/a	1.0	1	right	n/a	n/a	n/a	1	0.0154044793732	blockFiles/set_41/main_PD/GB_runPatches1.xlsx
168	patches	True	n/a	747	0	n/a	n/a	0.0	0	left	n/a	n/a	n/a	1	0.023523424845199998	blockFiles/set_41/main_PD/GB_runPatches1.xlsx
169	patches	True	n/a	747	0	n/a	n/a	0.0	1	left	n/a	n/a	n/a	0	-0.0718088491447	blockFiles/set_41/main_PD/GB_runPatches1.xlsx
170	patches	True	n/a	747	0	n/a	n/a	0.0	1	left	n/a	n/a	n/a	0	-0.07735789045689999	blockFiles/set_41/main_PD/GB_runPatches1.xlsx
171	patches	True	n/a	747	0	n/a	n/a	1.0	0	right	n/a	n/a	n/a	0	-0.000974619966	blockFiles/set_41/main_PD/GB_runPatches1.xlsx
172	patches	True	n/a	747	0	n/a	n/a	1.0	1	right	n/a	n/a	n/a	1	0.0688141767122	blockFiles/set_41/main_PD/GB_runPatches1.xlsx
173	patches	True	n/a	747	0	n/a	n/a	1.0	1	right	n/a	n/a	n/a	1	0.0312831594236	blockFiles/set_41/main_PD/GB_runPatches1.xlsx
174	patches	True	n/a	747	0	n/a	n/a	1.0	0	right	n/a	n/a	n/a	0	-0.0431182424538	blockFiles/set_41/main_PD/GB_runPatches1.xlsx
175	patches	True	n/a	747	0	n/a	n/a	1.0	1	right	n/a	n/a	n/a	1	0.014617578312799999	blockFiles/set_41/main_PD/GB_runPatches1.xlsx
176	patches	True	n/a	747	0	n/a	n/a	0.0	0	left	n/a	n/a	n/a	1	0.032515954636	blockFiles/set_41/main_PD/GB_runPatches1.xlsx
177	patches	True	n/a	747	0	n/a	n/a	1.0	1	right	n/a	n/a	n/a	1	0.0452106239647	blockFiles/set_41/main_PD/GB_runPatches1.xlsx
178	patches	True	n/a	747	0	n/a	n/a	0.0	1	left	n/a	n/a	n/a	0	-0.07192285615949999	blockFiles/set_41/main_PD/GB_runPatches1.xlsx
179	patches	True	n/a	747	0	n/a	n/a	1.0	0	right	n/a	n/a	n/a	0	-0.0596366533823	blockFiles/set_41/main_PD/GB_runPatches1.xlsx
180	patches	True	n/a	747	0	n/a	n/a	0.0	1	left	n/a	n/a	n/a	0	-0.06808640243490001	blockFiles/set_41/main_PD/GB_runPatches1.xlsx
181	patches	True	n/a	747	0	n/a	n/a	0.0	0	left	n/a	n/a	n/a	1	0.000283941160887	blockFiles/set_41/main_PD/GB_runPatches1.xlsx
182	patches	True	n/a	747	0	n/a	n/a	0.0	1	left	n/a	n/a	n/a	0	-0.0633231157809	blockFiles/set_41/main_PD/GB_runPatches1.xlsx
183	patches	True	n/a	747	0	n/a	n/a	0.0	1	left	n/a	n/a	n/a	0	-0.025425182078	blockFiles/set_41/main_PD/GB_runPatches1.xlsx
184	patches	True	n/a	747	0	n/a	n/a	0.0	1	left	n/a	n/a	n/a	0	-0.029553324189	blockFiles/set_41/main_PD/GB_runPatches1.xlsx
185	patches	True	n/a	747	0	n/a	n/a	0.0	1	left	n/a	n/a	n/a	0	-0.06424792816859999	blockFiles/set_41/main_PD/GB_runPatches1.xlsx
186	patches	True	n/a	747	0	n/a	n/a	0.0	1	left	n/a	n/a	n/a	0	-0.014054918605799998	blockFiles/set_41/main_PD/GB_runPatches1.xlsx
187	patches	True	n/a	747	0	n/a	n/a	1.0	1	right	n/a	n/a	n/a	1	0.0202210924402	blockFiles/set_41/main_PD/GB_runPatches1.xlsx
188	patches	True	n/a	747	0	n/a	n/a	1.0	1	right	n/a	n/a	n/a	1	0.058342285472900005	blockFiles/set_41/main_PD/GB_runPatches1.xlsx
189	patches	True	n/a	747	0	n/a	n/a	0.0	1	left	n/a	n/a	n/a	0	-0.0707684331574	blockFiles/set_41/main_PD/GB_runPatches1.xlsx
190	patches	True	n/a	747	0	n/a	n/a	0.0	0	left	n/a	n/a	n/a	1	0.026945812013	blockFiles/set_41/main_PD/GB_runPatches1.xlsx
191	patches	True	n/a	747	0	n/a	n/a	1.0	1	right	n/a	n/a	n/a	1	0.0121787113696	blockFiles/set_41/main_PD/GB_runPatches1.xlsx
192	patches	True	n/a	747	0	n/a	n/a	1.0	1	right	n/a	n/a	n/a	1	0.00956371815875	blockFiles/set_41/main_PD/GB_runPatches1.xlsx
193	patches	True	n/a	747	0	n/a	n/a	0.0	1	left	n/a	n/a	n/a	0	-0.058934191484000004	blockFiles/set_41/main_PD/GB_runPatches1.xlsx
194	patches	True	n/a	747	0	n/a	n/a	1.0	1	right	n/a	n/a	n/a	1	0.0319969572499	blockFiles/set_41/main_PD/GB_runPatches1.xlsx
195	patches	True	n/a	747	0	n/a	n/a	1.0	1	right	n/a	n/a	n/a	1	0.0464480902441	blockFiles/set_41/main_PD/GB_runPatches1.xlsx
196	patches	True	n/a	747	0	n/a	n/a	1.0	1	right	n/a	n/a	n/a	1	0.057587584871800004	blockFiles/set_41/main_PD/GB_runPatches1.xlsx
197	patches	True	n/a	747	0	n/a	n/a	1.0	1	right	n/a	n/a	n/a	1	0.0518944400735	blockFiles/set_41/main_PD/GB_runPatches1.xlsx
198	patches	True	n/a	747	0	n/a	n/a	0.0	1	left	n/a	n/a	n/a	0	-0.0718194352835	blockFiles/set_41/main_PD/GB_runPatches1.xlsx
199	patches	True	n/a	747	0	n/a	n/a	0.0	0	left	n/a	n/a	n/a	1	0.00792586063966	blockFiles/set_41/main_PD/GB_runPatches1.xlsx
200	patches	True	n/a	747	0	n/a	n/a	1.0	1	right	n/a	n/a	n/a	1	0.0396152103692	blockFiles/set_41/main_PD/GB_runPatches1.xlsx
201	patches	True	n/a	747	0	n/a	n/a	1.0	1	right	n/a	n/a	n/a	1	0.000512886438519	blockFiles/set_41/main_PD/GB_runPatches1.xlsx
202	patches	True	n/a	747	0	n/a	n/a	0.0	1	left	n/a	n/a	n/a	0	-0.0630926976167	blockFiles/set_41/main_PD/GB_runPatches1.xlsx
203	patches	True	n/a	747	0	n/a	n/a	0.0	1	left	n/a	n/a	n/a	0	-0.022383601702700002	blockFiles/set_41/main_PD/GB_runPatches1.xlsx
204	patches	True	n/a	747	0	n/a	n/a	0.0	1	left	n/a	n/a	n/a	0	-0.055470279064	blockFiles/set_41/main_PD/GB_runPatches1.xlsx
205	patches	True	n/a	747	0	n/a	n/a	0.0	0	left	n/a	n/a	n/a	1	0.0679357477278	blockFiles/set_41/main_PD/GB_runPatches1.xlsx
206	patches	True	n/a	747	0	n/a	n/a	0.0	1	left	n/a	n/a	n/a	0	-0.0357013477013	blockFiles/set_41/main_PD/GB_runPatches1.xlsx
207	patches	True	n/a	747	0	n/a	n/a	1.0	1	right	n/a	n/a	n/a	1	0.0733913677745	blockFiles/set_41/main_PD/GB_runPatches1.xlsx
208	patches	True	n/a	747	0	n/a	n/a	1.0	1	right	n/a	n/a	n/a	1	0.047923574447599995	blockFiles/set_41/main_PD/GB_runPatches1.xlsx
209	patches	True	n/a	747	0	n/a	n/a	1.0	1	right	n/a	n/a	n/a	1	0.0302258514427	blockFiles/set_41/main_PD/GB_runPatches1.xlsx
210	patches	True	n/a	747	0	n/a	n/a	0.0	1	left	n/a	n/a	n/a	0	-0.0311786699109	blockFiles/set_41/main_PD/GB_runPatches1.xlsx
211	patches	True	n/a	747	0	n/a	n/a	0.0	1	left	n/a	n/a	n/a	0	-0.0051902836374899996	blockFiles/set_41/main_PD/GB_runPatches1.xlsx
212	patches	True	n/a	747	0	n/a	n/a	1.0	1	right	n/a	n/a	n/a	1	0.0644958177581	blockFiles/set_41/main_PD/GB_runPatches1.xlsx
213	patches	True	n/a	747	0	n/a	n/a	1.0	1	right	n/a	n/a	n/a	1	0.0648738504574	blockFiles/set_41/main_PD/GB_runPatches1.xlsx
214	patches	True	n/a	747	0	n/a	n/a	0.0	1	left	n/a	n/a	n/a	0	-0.034972143545699996	blockFiles/set_41/main_PD/GB_runPatches1.xlsx
215	patches	True	n/a	747	0	n/a	n/a	1.0	1	right	n/a	n/a	n/a	1	0.0381388769485	blockFiles/set_41/main_PD/GB_runPatches1.xlsx
216	patches	True	n/a	747	0	n/a	n/a	0.0	1	left	n/a	n/a	n/a	0	-0.0632644926943	blockFiles/set_41/main_PD/GB_runPatches1.xlsx
217	patches	True	n/a	747	0	n/a	n/a	1.0	1	right	n/a	n/a	n/a	1	0.000153010692447	blockFiles/set_41/main_PD/GB_runPatches1.xlsx
218	patches	True	n/a	747	0	n/a	n/a	1.0	1	right	n/a	n/a	n/a	1	0.0415363756567	blockFiles/set_41/main_PD/GB_runPatches1.xlsx
219	patches	True	n/a	747	0	n/a	n/a	0.0	1	left	n/a	n/a	n/a	0	-0.0125602769665	blockFiles/set_41/main_PD/GB_runPatches1.xlsx
220	patches	True	n/a	747	0	n/a	n/a	0.0	1	left	n/a	n/a	n/a	0	-0.062039646189699996	blockFiles/set_41/main_PD/GB_runPatches1.xlsx
221	patches	True	n/a	747	0	n/a	n/a	0.0	1	left	n/a	n/a	n/a	0	-0.0493382817879	blockFiles/set_41/main_PD/GB_runPatches1.xlsx
222	patches	True	n/a	747	0	n/a	n/a	1.0	1	right	n/a	n/a	n/a	1	0.0658494624868	blockFiles/set_41/main_PD/GB_runPatches1.xlsx
223	patches	True	n/a	747	0	n/a	n/a	0.0	1	left	n/a	n/a	n/a	0	-0.025240691173799998	blockFiles/set_41/main_PD/GB_runPatches1.xlsx
224	patches	True	n/a	747	0	n/a	n/a	1.0	1	right	n/a	n/a	n/a	1	0.0586120857857	blockFiles/set_41/main_PD/GB_runPatches1.xlsx
225	patches	True	n/a	747	0	n/a	n/a	0.0	0	left	n/a	n/a	n/a	1	0.0146696431562	blockFiles/set_41/main_PD/GB_runPatches1.xlsx
226	patches	True	n/a	747	0	n/a	n/a	0.0	1	left	n/a	n/a	n/a	0	-0.0415344748087	blockFiles/set_41/main_PD/GB_runPatches1.xlsx
227	patches	True	n/a	747	0	n/a	n/a	0.0	1	left	n/a	n/a	n/a	0	-0.0496242946759	blockFiles/set_41/main_PD/GB_runPatches1.xlsx
228	patches	True	n/a	747	0	n/a	n/a	0.0	0	left	n/a	n/a	n/a	1	0.045524221807699994	blockFiles/set_41/main_PD/GB_runPatches1.xlsx
229	patches	True	n/a	747	0	n/a	n/a	0.0	0	left	n/a	n/a	n/a	1	0.053495835829499995	blockFiles/set_41/main_PD/GB_runPatches1.xlsx
230	patches	True	n/a	747	0	n/a	n/a	0.0	1	left	n/a	n/a	n/a	0	-0.0108328032494	blockFiles/set_41/main_PD/GB_runPatches1.xlsx
231	patches	True	n/a	747	0	n/a	n/a	0.0	0	left	n/a	n/a	n/a	1	0.00852845724672	blockFiles/set_41/main_PD/GB_runPatches1.xlsx
232	patches	True	n/a	747	0	n/a	n/a	0.0	0	left	n/a	n/a	n/a	1	0.0627218712494	blockFiles/set_41/main_PD/GB_runPatches1.xlsx
233	patches	True	n/a	747	0	n/a	n/a	1.0	0	right	n/a	n/a	n/a	0	-0.0298429904319	blockFiles/set_41/main_PD/GB_runPatches1.xlsx
234	patches	True	n/a	747	0	n/a	n/a	1.0	0	right	n/a	n/a	n/a	0	-0.00859903223813	blockFiles/set_41/main_PD/GB_runPatches1.xlsx
235	patches	True	n/a	747	0	n/a	n/a	1.0	0	right	n/a	n/a	n/a	0	-0.0449499688298	blockFiles/set_41/main_PD/GB_runPatches1.xlsx
236	patches	True	n/a	747	0	n/a	n/a	n/a	0	None	n/a	n/a	n/a	1	0.0747347046621	blockFiles/set_41/main_PD/GB_runPatches1.xlsx
237	patches	True	n/a	747	0	n/a	n/a	0.0	1	left	n/a	n/a	n/a	0	-0.0779489025474	blockFiles/set_41/main_PD/GB_runPatches1.xlsx
238	patches	True	n/a	747	0	n/a	n/a	0.0	0	left	n/a	n/a	n/a	1	0.0140890461393	blockFiles/set_41/main_PD/GB_runPatches1.xlsx
239	patches	True	n/a	747	0	n/a	n/a	0.0	0	left	n/a	n/a	n/a	1	0.019553468544000002	blockFiles/set_41/main_PD/GB_runPatches1.xlsx
240	patches	True	n/a	747	0	n/a	n/a	0.0	1	left	n/a	n/a	n/a	0	-0.060888640172800004	blockFiles/set_41/main_PD/GB_runPatches1.xlsx
241	patches	True	n/a	747	0	n/a	n/a	0.0	1	left	n/a	n/a	n/a	0	-0.0019718750938800002	blockFiles/set_41/main_PD/GB_runPatches1.xlsx
242	patches	True	n/a	747	0	n/a	n/a	0.0	1	left	n/a	n/a	n/a	0	-0.0474122336879	blockFiles/set_41/main_PD/GB_runPatches1.xlsx
243	patches	True	n/a	747	0	n/a	n/a	0.0	1	left	n/a	n/a	n/a	0	-0.0486675602943	blockFiles/set_41/main_PD/GB_runPatches1.xlsx
244	patches	True	n/a	747	0	n/a	n/a	1.0	0	right	n/a	n/a	n/a	0	-0.0426870744489	blockFiles/set_41/main_PD/GB_runPatches1.xlsx
245	patches	True	n/a	747	0	n/a	n/a	0.0	1	left	n/a	n/a	n/a	0	-0.0632527539879	blockFiles/set_41/main_PD/GB_runPatches1.xlsx
246	patches	True	n/a	747	0	n/a	n/a	0.0	1	left	n/a	n/a	n/a	0	-0.006506442483510001	blockFiles/set_41/main_PD/GB_runPatches1.xlsx
247	patches	True	n/a	747	0	n/a	n/a	0.0	1	left	n/a	n/a	n/a	0	-0.0350945130736	blockFiles/set_41/main_PD/GB_runPatches1.xlsx
248	patches	True	n/a	747	0	n/a	n/a	0.0	0	left	n/a	n/a	n/a	1	0.027135741151900004	blockFiles/set_41/main_PD/GB_runPatches1.xlsx
249	patches	True	n/a	747	0	n/a	n/a	0.0	0	left	n/a	n/a	n/a	1	0.0685489456542	blockFiles/set_41/main_PD/GB_runPatches1.xlsx
250	patches	True	n/a	747	0	n/a	n/a	0.0	0	left	n/a	n/a	n/a	1	0.0755500571989	blockFiles/set_41/main_PD/GB_runPatches1.xlsx
251	patches	True	n/a	747	0	n/a	n/a	0.0	0	left	n/a	n/a	n/a	1	0.057111413311199996	blockFiles/set_41/main_PD/GB_runPatches1.xlsx
252	patches	True	n/a	747	0	n/a	n/a	0.0	0	left	n/a	n/a	n/a	1	0.030096912328200002	blockFiles/set_41/main_PD/GB_runPatches1.xlsx
253	patches	True	n/a	747	0	n/a	n/a	0.0	1	left	n/a	n/a	n/a	0	-0.0403708731569	blockFiles/set_41/main_PD/GB_runPatches1.xlsx
254	patches	True	n/a	747	0	n/a	n/a	1.0	1	right	n/a	n/a	n/a	1	0.042983541972900004	blockFiles/set_41/main_PD/GB_runPatches1.xlsx
255	patches	True	n/a	747	0	n/a	n/a	0.0	1	left	n/a	n/a	n/a	0	-0.0397371785343	blockFiles/set_41/main_PD/GB_runPatches1.xlsx
256	patches	True	n/a	747	0	n/a	n/a	0.0	0	left	n/a	n/a	n/a	1	0.0284920364246	blockFiles/set_41/main_PD/GB_runPatches1.xlsx
257	patches	True	n/a	747	0	n/a	n/a	1.0	1	right	n/a	n/a	n/a	1	0.0425217056274	blockFiles/set_41/main_PD/GB_runPatches1.xlsx
258	patches	True	n/a	747	0	n/a	n/a	1.0	1	right	n/a	n/a	n/a	1	0.051595902219400004	blockFiles/set_41/main_PD/GB_runPatches1.xlsx
259	main_unc	True	0.0	747	0	0.0	0.0	0.0	1	left	2.0	1.0	1.0	0	-0.0424984229915	blockFiles/set_41/main_unc/leftBlue\GB_LB_5.xlsx
260	main_unc	True	0.0	747	0	0.0	0.0	1.0	1	right	1.0	1.0	1.0	1	0.06932105707	blockFiles/set_41/main_unc/leftBlue\GB_LB_5.xlsx
261	main_unc	True	0.0	747	0	0.0	0.0	0.0	1	left	2.0	0.0	1.0	0	-0.053615913484199994	blockFiles/set_41/main_unc/leftBlue\GB_LB_5.xlsx
262	main_unc	True	0.0	747	0	0.0	0.0	0.0	1	left	2.0	1.0	1.0	0	-0.0462529371679	blockFiles/set_41/main_unc/leftBlue\GB_LB_5.xlsx
263	main_unc	True	0.0	747	0	0.0	0.0	1.0	1	right	2.0	0.0	0.0	1	0.019957870226400002	blockFiles/set_41/main_unc/leftBlue\GB_LB_5.xlsx
264	main_unc	True	0.0	747	0	0.0	0.0	0.0	1	left	2.0	1.0	1.0	0	-0.042517079059	blockFiles/set_41/main_unc/leftBlue\GB_LB_5.xlsx
265	main_unc	True	0.0	747	0	0.0	0.0	0.0	1	left	2.0	1.0	1.0	0	-0.0510055367835	blockFiles/set_41/main_unc/leftBlue\GB_LB_5.xlsx
266	main_unc	True	0.0	747	0	0.0	0.0	0.0	1	left	2.0	1.0	1.0	0	-0.008617071919139999	blockFiles/set_41/main_unc/leftBlue\GB_LB_5.xlsx
267	main_unc	True	0.0	747	0	0.0	0.0	1.0	1	right	2.0	0.0	0.0	1	0.0228253307939	blockFiles/set_41/main_unc/leftBlue\GB_LB_5.xlsx
268	main_unc	True	0.0	747	0	0.0	0.0	0.0	0	left	1.0	1.0	1.0	1	0.0441131664068	blockFiles/set_41/main_unc/leftBlue\GB_LB_5.xlsx
269	main_unc	True	0.0	747	0	0.0	0.0	1.0	1	right	1.0	0.0	1.0	1	0.06780577084049999	blockFiles/set_41/main_unc/leftBlue\GB_LB_5.xlsx
270	main_unc	True	0.0	747	0	0.0	0.0	1.0	1	right	1.0	1.0	1.0	1	0.0549939342029	blockFiles/set_41/main_unc/leftBlue\GB_LB_5.xlsx
271	main_unc	True	0.0	747	0	0.0	0.0	1.0	1	right	1.0	1.0	1.0	1	0.0736669259146	blockFiles/set_41/main_unc/leftBlue\GB_LB_5.xlsx
272	main_unc	True	0.0	747	0	0.0	0.0	0.0	1	left	2.0	0.0	1.0	0	-0.032078186236299995	blockFiles/set_41/main_unc/leftBlue\GB_LB_5.xlsx
273	main_unc	True	0.0	747	0	0.0	0.0	1.0	1	right	1.0	0.0	1.0	1	0.0634934365377	blockFiles/set_41/main_unc/leftBlue\GB_LB_5.xlsx
274	main_unc	True	0.0	747	0	0.0	0.0	1.0	1	right	1.0	1.0	1.0	1	0.0273809657805	blockFiles/set_41/main_unc/leftBlue\GB_LB_5.xlsx
275	main_unc	True	0.0	747	0	0.0	0.0	1.0	0	right	2.0	0.0	1.0	0	-0.026297566723099998	blockFiles/set_41/main_unc/leftBlue\GB_LB_5.xlsx
276	main_unc	True	0.0	747	0	0.0	0.0	1.0	0	right	1.0	0.0	0.0	0	-0.024944808241	blockFiles/set_41/main_unc/leftBlue\GB_LB_5.xlsx
277	main_unc	True	0.0	747	0	0.0	0.0	0.0	1	left	2.0	1.0	1.0	0	-0.0686586300656	blockFiles/set_41/main_unc/leftBlue\GB_LB_5.xlsx
278	main_unc	True	0.0	747	0	0.0	0.0	1.0	1	right	1.0	1.0	1.0	1	0.0755917095579	blockFiles/set_41/main_unc/leftBlue\GB_LB_5.xlsx
279	main_unc	True	0.0	747	0	0.0	0.0	0.0	1	left	2.0	1.0	1.0	0	-0.011872623954000001	blockFiles/set_41/main_unc/leftBlue\GB_LB_5.xlsx
280	main_unc	True	0.0	747	0	0.0	0.0	0.0	0	left	1.0	1.0	1.0	1	0.0160815426707	blockFiles/set_41/main_unc/leftBlue\GB_LB_5.xlsx
281	main_unc	True	0.0	747	0	0.0	0.0	1.0	1	right	1.0	0.0	1.0	1	0.0697384214588	blockFiles/set_41/main_unc/leftBlue\GB_LB_5.xlsx
282	main_unc	True	0.0	747	0	0.0	0.0	1.0	0	right	2.0	1.0	1.0	0	-0.0044440311938500005	blockFiles/set_41/main_unc/leftBlue\GB_LB_5.xlsx
283	main_unc	True	0.0	747	0	0.0	0.0	0.0	1	left	2.0	1.0	1.0	0	-0.0135277679376	blockFiles/set_41/main_unc/leftBlue\GB_LB_5.xlsx
284	main_unc	True	0.0	747	0	1.0	1.0	1.0	1	right	2.0	0.0	0.0	1	0.06809590846300001	blockFiles/set_41/main_unc/leftBlue\GB_LB_2.xlsx
285	main_unc	True	0.0	747	0	1.0	1.0	1.0	1	right	1.0	1.0	1.0	1	0.0746476758085	blockFiles/set_41/main_unc/leftBlue\GB_LB_2.xlsx
286	main_unc	True	0.0	747	0	1.0	1.0	0.0	1	left	2.0	1.0	1.0	0	-0.0093540369533	blockFiles/set_41/main_unc/leftBlue\GB_LB_2.xlsx
287	main_unc	True	0.0	747	0	1.0	1.0	0.0	1	left	2.0	1.0	1.0	0	-0.0799273181893	blockFiles/set_41/main_unc/leftBlue\GB_LB_2.xlsx
288	main_unc	True	0.0	747	0	1.0	1.0	1.0	1	right	1.0	0.0	1.0	1	0.0273224168643	blockFiles/set_41/main_unc/leftBlue\GB_LB_2.xlsx
289	main_unc	True	0.0	747	0	1.0	1.0	0.0	1	left	2.0	1.0	1.0	0	-0.0592790253833	blockFiles/set_41/main_unc/leftBlue\GB_LB_2.xlsx
290	main_unc	True	0.0	747	0	1.0	1.0	0.0	0	left	2.0	1.0	0.0	1	0.012029818166	blockFiles/set_41/main_unc/leftBlue\GB_LB_2.xlsx
291	main_unc	True	1.0	747	0	1.0	1.0	n/a	0	None	n/a	0.0	n/a	0	-0.055135698262599994	blockFiles/set_41/main_unc/leftBlue\GB_LB_2.xlsx
292	main_unc	True	0.0	747	0	1.0	1.0	1.0	1	right	1.0	1.0	1.0	1	0.054623254127799996	blockFiles/set_41/main_unc/leftBlue\GB_LB_2.xlsx
293	main_unc	True	0.0	747	0	1.0	1.0	0.0	1	left	2.0	1.0	1.0	0	-0.06906214704739999	blockFiles/set_41/main_unc/leftBlue\GB_LB_2.xlsx
294	main_unc	True	0.0	747	0	1.0	1.0	1.0	1	right	1.0	1.0	1.0	1	0.023176127374200002	blockFiles/set_41/main_unc/leftBlue\GB_LB_2.xlsx
295	main_unc	True	0.0	747	0	1.0	1.0	0.0	1	left	2.0	0.0	1.0	0	-0.056262025553699996	blockFiles/set_41/main_unc/leftBlue\GB_LB_2.xlsx
296	main_unc	True	0.0	747	0	1.0	1.0	0.0	1	left	2.0	1.0	1.0	0	-0.0535269580781	blockFiles/set_41/main_unc/leftBlue\GB_LB_2.xlsx
297	main_unc	True	0.0	747	0	1.0	1.0	0.0	0	left	2.0	0.0	0.0	1	0.0258744761907	blockFiles/set_41/main_unc/leftBlue\GB_LB_2.xlsx
298	main_unc	True	0.0	747	0	1.0	1.0	0.0	1	left	2.0	1.0	1.0	0	-0.047647443767599995	blockFiles/set_41/main_unc/leftBlue\GB_LB_2.xlsx
299	main_unc	True	0.0	747	0	1.0	1.0	1.0	1	right	1.0	1.0	1.0	1	0.040651936102699994	blockFiles/set_41/main_unc/leftBlue\GB_LB_2.xlsx
300	main_unc	True	0.0	747	0	1.0	1.0	0.0	1	left	2.0	1.0	1.0	0	-0.043481350448	blockFiles/set_41/main_unc/leftBlue\GB_LB_2.xlsx
301	main_unc	True	0.0	747	0	1.0	1.0	0.0	1	left	2.0	1.0	1.0	0	-0.033930516652799995	blockFiles/set_41/main_unc/leftBlue\GB_LB_2.xlsx
302	main_unc	True	0.0	747	0	1.0	1.0	1.0	0	right	1.0	0.0	0.0	0	-0.029059850852900002	blockFiles/set_41/main_unc/leftBlue\GB_LB_2.xlsx
303	main_unc	True	0.0	747	0	1.0	1.0	1.0	1	right	1.0	1.0	1.0	1	0.057569581624099996	blockFiles/set_41/main_unc/leftBlue\GB_LB_2.xlsx
304	main_unc	True	0.0	747	0	1.0	1.0	1.0	1	right	1.0	1.0	1.0	1	0.023495597466799998	blockFiles/set_41/main_unc/leftBlue\GB_LB_2.xlsx
305	main_unc	True	0.0	747	0	1.0	1.0	0.0	1	left	2.0	1.0	1.0	0	-0.023161346148700003	blockFiles/set_41/main_unc/leftBlue\GB_LB_2.xlsx
306	main_unc	True	0.0	747	0	1.0	1.0	1.0	1	right	1.0	1.0	1.0	1	0.0255469946563	blockFiles/set_41/main_unc/leftBlue\GB_LB_2.xlsx
307	main_unc	True	0.0	747	0	1.0	1.0	1.0	1	right	2.0	0.0	0.0	1	0.0054393520392500005	blockFiles/set_41/main_unc/leftBlue\GB_LB_2.xlsx
308	main_unc	True	0.0	747	0	1.0	1.0	1.0	1	right	1.0	1.0	1.0	1	0.07955052530389999	blockFiles/set_41/main_unc/leftBlue\GB_LB_2.xlsx
309	main_unc	True	0.0	747	0	1.0	1.0	1.0	0	right	2.0	1.0	1.0	0	-0.055135698262599994	blockFiles/set_41/main_unc/leftBlue\GB_LB_2.xlsx
310	main_unc	True	0.0	747	0	2.0	2.0	1.0	1	right	1.0	0.0	0.0	1	0.0402540309355	blockFiles/set_41/main_unc/rightBlue\GB_RB_5.xlsx
311	main_unc	True	0.0	747	0	2.0	2.0	0.0	1	left	1.0	1.0	1.0	0	-0.0737047205307	blockFiles/set_41/main_unc/rightBlue\GB_RB_5.xlsx
312	main_unc	True	0.0	747	0	2.0	2.0	1.0	1	right	2.0	1.0	1.0	1	0.0287971894257	blockFiles/set_41/main_unc/rightBlue\GB_RB_5.xlsx
313	main_unc	True	0.0	747	0	2.0	2.0	0.0	1	left	1.0	1.0	1.0	0	-0.021127396300400003	blockFiles/set_41/main_unc/rightBlue\GB_RB_5.xlsx
314	main_unc	True	1.0	747	0	2.0	2.0	1.0	1	right	n/a	0.0	n/a	1	0.05212198155	blockFiles/set_41/main_unc/rightBlue\GB_RB_5.xlsx
315	main_unc	True	0.0	747	0	2.0	2.0	0.0	1	left	1.0	1.0	1.0	0	-0.0399379927851	blockFiles/set_41/main_unc/rightBlue\GB_RB_5.xlsx
316	main_unc	True	0.0	747	0	2.0	2.0	0.0	1	left	1.0	1.0	1.0	0	-0.049490609522900006	blockFiles/set_41/main_unc/rightBlue\GB_RB_5.xlsx
317	main_unc	True	0.0	747	0	2.0	2.0	1.0	1	right	2.0	1.0	1.0	1	0.04563088674100001	blockFiles/set_41/main_unc/rightBlue\GB_RB_5.xlsx
318	main_unc	True	0.0	747	0	2.0	2.0	0.0	1	left	1.0	0.0	1.0	0	-0.0267333304137	blockFiles/set_41/main_unc/rightBlue\GB_RB_5.xlsx
319	main_unc	True	0.0	747	0	2.0	2.0	0.0	0	left	1.0	0.0	0.0	1	0.029626824297	blockFiles/set_41/main_unc/rightBlue\GB_RB_5.xlsx
320	main_unc	True	0.0	747	0	2.0	2.0	0.0	1	left	1.0	0.0	1.0	0	-0.0693396548554	blockFiles/set_41/main_unc/rightBlue\GB_RB_5.xlsx
321	main_unc	True	0.0	747	0	2.0	2.0	1.0	1	right	2.0	1.0	1.0	1	0.0477999385633	blockFiles/set_41/main_unc/rightBlue\GB_RB_5.xlsx
322	main_unc	True	0.0	747	0	2.0	2.0	0.0	0	left	2.0	1.0	1.0	1	0.016251483839	blockFiles/set_41/main_unc/rightBlue\GB_RB_5.xlsx
323	main_unc	True	0.0	747	0	2.0	2.0	0.0	0	left	2.0	1.0	1.0	1	0.00930473320186	blockFiles/set_41/main_unc/rightBlue\GB_RB_5.xlsx
324	main_unc	True	0.0	747	0	2.0	2.0	1.0	1	right	2.0	1.0	1.0	1	0.0768808750808	blockFiles/set_41/main_unc/rightBlue\GB_RB_5.xlsx
325	main_unc	True	0.0	747	0	2.0	2.0	0.0	1	left	1.0	0.0	1.0	0	-0.0572735848092	blockFiles/set_41/main_unc/rightBlue\GB_RB_5.xlsx
326	main_unc	True	0.0	747	0	2.0	2.0	0.0	1	left	1.0	0.0	1.0	0	-0.0677606986649	blockFiles/set_41/main_unc/rightBlue\GB_RB_5.xlsx
327	main_unc	True	0.0	747	0	2.0	2.0	0.0	1	left	1.0	1.0	1.0	0	-0.044572195056800004	blockFiles/set_41/main_unc/rightBlue\GB_RB_5.xlsx
328	main_unc	True	0.0	747	0	2.0	2.0	0.0	1	left	1.0	0.0	1.0	0	-0.0294669481739	blockFiles/set_41/main_unc/rightBlue\GB_RB_5.xlsx
329	main_unc	True	0.0	747	0	2.0	2.0	1.0	1	right	2.0	1.0	1.0	1	0.008090664576739999	blockFiles/set_41/main_unc/rightBlue\GB_RB_5.xlsx
330	main_unc	True	0.0	747	0	2.0	2.0	0.0	1	left	1.0	1.0	1.0	0	-0.0784142123908	blockFiles/set_41/main_unc/rightBlue\GB_RB_5.xlsx
331	main_unc	True	0.0	747	0	2.0	2.0	1.0	1	right	1.0	0.0	0.0	1	0.0257370322756	blockFiles/set_41/main_unc/rightBlue\GB_RB_5.xlsx
332	main_unc	True	0.0	747	0	2.0	2.0	0.0	1	left	1.0	1.0	1.0	0	-0.0364504183456	blockFiles/set_41/main_unc/rightBlue\GB_RB_5.xlsx
333	main_unc	True	0.0	747	0	2.0	2.0	1.0	1	right	2.0	1.0	1.0	1	0.0574337187223	blockFiles/set_41/main_unc/rightBlue\GB_RB_5.xlsx
334	main_unc	True	0.0	747	0	2.0	2.0	1.0	1	right	1.0	0.0	0.0	1	0.00107493173331	blockFiles/set_41/main_unc/rightBlue\GB_RB_5.xlsx
335	main_unc	True	0.0	747	0	2.0	2.0	1.0	1	right	2.0	0.0	1.0	1	0.05212198155	blockFiles/set_41/main_unc/rightBlue\GB_RB_5.xlsx
336	main_unc	True	0.0	747	0	3.0	3.0	0.0	1	left	2.0	0.0	1.0	0	-0.046517161671099996	blockFiles/set_41/main_unc/leftBlue\GB_LB_1.xlsx
337	main_unc	True	0.0	747	0	3.0	3.0	0.0	1	left	1.0	0.0	0.0	0	-0.04851941622790001	blockFiles/set_41/main_unc/leftBlue\GB_LB_1.xlsx
338	main_unc	True	0.0	747	0	3.0	3.0	1.0	1	right	2.0	0.0	0.0	1	0.00106533160433	blockFiles/set_41/main_unc/leftBlue\GB_LB_1.xlsx
339	main_unc	True	0.0	747	0	3.0	3.0	0.0	0	left	1.0	1.0	1.0	1	0.0329905892164	blockFiles/set_41/main_unc/leftBlue\GB_LB_1.xlsx
340	main_unc	True	0.0	747	0	3.0	3.0	0.0	1	left	2.0	1.0	1.0	0	-0.0522032307461	blockFiles/set_41/main_unc/leftBlue\GB_LB_1.xlsx
341	main_unc	True	0.0	747	0	3.0	3.0	1.0	1	right	1.0	0.0	1.0	1	0.0476648333669	blockFiles/set_41/main_unc/leftBlue\GB_LB_1.xlsx
342	main_unc	True	0.0	747	0	3.0	3.0	0.0	1	left	2.0	0.0	1.0	0	-0.0155719206668	blockFiles/set_41/main_unc/leftBlue\GB_LB_1.xlsx
343	main_unc	True	0.0	747	0	3.0	3.0	0.0	0	left	2.0	0.0	0.0	1	0.012531268522099999	blockFiles/set_41/main_unc/leftBlue\GB_LB_1.xlsx
344	main_unc	True	0.0	747	0	3.0	3.0	0.0	1	left	1.0	0.0	0.0	0	-0.0761054619402	blockFiles/set_41/main_unc/leftBlue\GB_LB_1.xlsx
345	main_unc	True	0.0	747	0	3.0	3.0	0.0	1	left	2.0	1.0	1.0	0	-0.0183662126586	blockFiles/set_41/main_unc/leftBlue\GB_LB_1.xlsx
346	main_unc	True	0.0	747	0	3.0	3.0	0.0	1	left	2.0	0.0	1.0	0	-0.0794816739485	blockFiles/set_41/main_unc/leftBlue\GB_LB_1.xlsx
347	main_unc	True	0.0	747	0	3.0	3.0	0.0	1	left	2.0	1.0	1.0	0	-0.022754755225	blockFiles/set_41/main_unc/leftBlue\GB_LB_1.xlsx
348	main_unc	True	0.0	747	0	3.0	3.0	0.0	0	left	1.0	1.0	1.0	1	0.0340310308523	blockFiles/set_41/main_unc/leftBlue\GB_LB_1.xlsx
349	main_unc	True	0.0	747	0	3.0	3.0	1.0	1	right	1.0	1.0	1.0	1	0.0231459485553	blockFiles/set_41/main_unc/leftBlue\GB_LB_1.xlsx
350	main_unc	True	0.0	747	0	3.0	3.0	1.0	1	right	1.0	1.0	1.0	1	0.0231334811635	blockFiles/set_41/main_unc/leftBlue\GB_LB_1.xlsx
351	main_unc	True	0.0	747	0	3.0	3.0	0.0	1	left	2.0	1.0	1.0	0	-0.012046941183499998	blockFiles/set_41/main_unc/leftBlue\GB_LB_1.xlsx
352	main_unc	True	0.0	747	0	3.0	3.0	0.0	1	left	2.0	0.0	1.0	0	-0.059766671750699996	blockFiles/set_41/main_unc/leftBlue\GB_LB_1.xlsx
353	main_unc	True	0.0	747	0	3.0	3.0	1.0	1	right	1.0	1.0	1.0	1	0.0657758560218	blockFiles/set_41/main_unc/leftBlue\GB_LB_1.xlsx
354	main_unc	True	0.0	747	0	3.0	3.0	0.0	1	left	2.0	1.0	1.0	0	-0.05685056682680001	blockFiles/set_41/main_unc/leftBlue\GB_LB_1.xlsx
355	main_unc	True	0.0	747	0	3.0	3.0	0.0	1	left	2.0	1.0	1.0	0	-0.0167641298659	blockFiles/set_41/main_unc/leftBlue\GB_LB_1.xlsx
356	main_unc	True	0.0	747	0	3.0	3.0	1.0	1	right	2.0	0.0	0.0	1	0.005323429014530001	blockFiles/set_41/main_unc/leftBlue\GB_LB_1.xlsx
357	main_unc	True	0.0	747	0	3.0	3.0	1.0	1	right	1.0	1.0	1.0	1	0.026580408643900003	blockFiles/set_41/main_unc/leftBlue\GB_LB_1.xlsx
358	main_unc	True	0.0	747	0	3.0	3.0	0.0	1	left	2.0	0.0	1.0	0	-0.0598793029226	blockFiles/set_41/main_unc/leftBlue\GB_LB_1.xlsx
359	main_unc	True	0.0	747	0	3.0	3.0	0.0	0	left	2.0	0.0	0.0	1	0.0134154310077	blockFiles/set_41/main_unc/leftBlue\GB_LB_1.xlsx
360	main_unc	True	0.0	747	0	3.0	3.0	0.0	1	left	2.0	1.0	1.0	0	-0.046542122587599995	blockFiles/set_41/main_unc/leftBlue\GB_LB_1.xlsx
361	main_unc	True	0.0	747	0	4.0	4.0	1.0	1	right	2.0	1.0	1.0	1	0.0352355248481	blockFiles/set_41/main_unc/rightBlue\GB_RB_6.xlsx
362	main_unc	True	0.0	747	0	4.0	4.0	1.0	1	right	2.0	1.0	1.0	1	0.0205482140183	blockFiles/set_41/main_unc/rightBlue\GB_RB_6.xlsx
363	main_unc	True	0.0	747	0	4.0	4.0	1.0	1	right	2.0	1.0	1.0	1	0.07338309720160001	blockFiles/set_41/main_unc/rightBlue\GB_RB_6.xlsx
364	main_unc	True	0.0	747	0	4.0	4.0	1.0	1	right	2.0	1.0	1.0	1	0.0138245808892	blockFiles/set_41/main_unc/rightBlue\GB_RB_6.xlsx
365	main_unc	True	0.0	747	0	4.0	4.0	0.0	1	left	1.0	0.0	1.0	0	-0.07286433657630001	blockFiles/set_41/main_unc/rightBlue\GB_RB_6.xlsx
366	main_unc	True	0.0	747	0	4.0	4.0	0.0	1	left	1.0	1.0	1.0	0	-0.0209393836372	blockFiles/set_41/main_unc/rightBlue\GB_RB_6.xlsx
367	main_unc	True	1.0	747	0	4.0	4.0	n/a	0	None	n/a	0.0	n/a	0	-0.0130005014129	blockFiles/set_41/main_unc/rightBlue\GB_RB_6.xlsx
368	main_unc	True	0.0	747	0	4.0	4.0	1.0	1	right	2.0	1.0	1.0	1	0.05939029144119999	blockFiles/set_41/main_unc/rightBlue\GB_RB_6.xlsx
369	main_unc	True	0.0	747	0	4.0	4.0	0.0	1	left	1.0	1.0	1.0	0	-0.039827968310599995	blockFiles/set_41/main_unc/rightBlue\GB_RB_6.xlsx
370	main_unc	True	0.0	747	0	4.0	4.0	0.0	0	left	1.0	0.0	0.0	1	0.0260203976743	blockFiles/set_41/main_unc/rightBlue\GB_RB_6.xlsx
371	main_unc	True	0.0	747	0	4.0	4.0	0.0	0	left	1.0	0.0	0.0	1	0.022763192094900003	blockFiles/set_41/main_unc/rightBlue\GB_RB_6.xlsx
372	main_unc	True	0.0	747	0	4.0	4.0	1.0	1	right	2.0	1.0	1.0	1	0.0533718044125	blockFiles/set_41/main_unc/rightBlue\GB_RB_6.xlsx
373	main_unc	True	0.0	747	0	4.0	4.0	0.0	1	left	1.0	0.0	1.0	0	-0.0135439169966	blockFiles/set_41/main_unc/rightBlue\GB_RB_6.xlsx
374	main_unc	True	0.0	747	0	4.0	4.0	0.0	1	left	1.0	1.0	1.0	0	-0.07509885622189999	blockFiles/set_41/main_unc/rightBlue\GB_RB_6.xlsx
375	main_unc	True	0.0	747	0	4.0	4.0	1.0	1	right	2.0	0.0	1.0	1	0.0242999227904	blockFiles/set_41/main_unc/rightBlue\GB_RB_6.xlsx
376	main_unc	True	1.0	747	0	4.0	4.0	n/a	0	None	n/a	0.0	n/a	1	0.0339092523046	blockFiles/set_41/main_unc/rightBlue\GB_RB_6.xlsx
377	main_unc	True	0.0	747	0	4.0	4.0	0.0	1	left	1.0	0.0	1.0	0	-0.052659414019400004	blockFiles/set_41/main_unc/rightBlue\GB_RB_6.xlsx
378	main_unc	True	0.0	747	0	4.0	4.0	1.0	1	right	1.0	0.0	0.0	1	0.0031462231837199994	blockFiles/set_41/main_unc/rightBlue\GB_RB_6.xlsx
379	main_unc	True	0.0	747	0	4.0	4.0	1.0	1	right	2.0	1.0	1.0	1	0.0673987616785	blockFiles/set_41/main_unc/rightBlue\GB_RB_6.xlsx
380	main_unc	True	0.0	747	0	4.0	4.0	1.0	0	right	1.0	1.0	1.0	0	-0.015534780193100001	blockFiles/set_41/main_unc/rightBlue\GB_RB_6.xlsx
381	main_unc	True	0.0	747	0	4.0	4.0	0.0	1	left	1.0	1.0	1.0	0	-0.07917835619300001	blockFiles/set_41/main_unc/rightBlue\GB_RB_6.xlsx
382	main_unc	True	0.0	747	0	4.0	4.0	1.0	1	right	2.0	1.0	1.0	1	0.0520765773207	blockFiles/set_41/main_unc/rightBlue\GB_RB_6.xlsx
383	main_unc	True	0.0	747	0	4.0	4.0	1.0	0	right	2.0	0.0	0.0	0	-0.0070761346258199995	blockFiles/set_41/main_unc/rightBlue\GB_RB_6.xlsx
384	main_unc	True	0.0	747	0	4.0	4.0	0.0	1	left	1.0	1.0	1.0	0	-0.045622156672199994	blockFiles/set_41/main_unc/rightBlue\GB_RB_6.xlsx
385	main_unc	True	0.0	747	0	4.0	4.0	0.0	1	left	1.0	1.0	1.0	0	-0.0255826418102	blockFiles/set_41/main_unc/rightBlue\GB_RB_6.xlsx
386	main_unc	True	0.0	747	0	4.0	4.0	1.0	0	right	1.0	1.0	1.0	0	-0.0130005014129	blockFiles/set_41/main_unc/rightBlue\GB_RB_6.xlsx
387	main_unc	True	0.0	747	0	4.0	4.0	1.0	1	right	2.0	1.0	1.0	1	0.0339092523046	blockFiles/set_41/main_unc/rightBlue\GB_RB_6.xlsx
388	main_unc	True	0.0	747	0	5.0	5.0	1.0	1	right	1.0	0.0	0.0	1	0.0578173941933	blockFiles/set_41/main_unc/rightBlue\GB_RB_3.xlsx
389	main_unc	True	0.0	747	0	5.0	5.0	0.0	1	left	1.0	0.0	1.0	0	-0.0291153999791	blockFiles/set_41/main_unc/rightBlue\GB_RB_3.xlsx
390	main_unc	True	0.0	747	0	5.0	5.0	0.0	1	left	1.0	1.0	1.0	0	-0.0618089530803	blockFiles/set_41/main_unc/rightBlue\GB_RB_3.xlsx
391	main_unc	True	0.0	747	0	5.0	5.0	1.0	1	right	2.0	0.0	1.0	1	0.0650182237104	blockFiles/set_41/main_unc/rightBlue\GB_RB_3.xlsx
392	main_unc	True	0.0	747	0	5.0	5.0	1.0	0	right	1.0	0.0	1.0	0	-0.00220232259482	blockFiles/set_41/main_unc/rightBlue\GB_RB_3.xlsx
393	main_unc	True	0.0	747	0	5.0	5.0	1.0	1	right	2.0	1.0	1.0	1	0.0423514390178	blockFiles/set_41/main_unc/rightBlue\GB_RB_3.xlsx
394	main_unc	True	0.0	747	0	5.0	5.0	1.0	1	right	2.0	1.0	1.0	1	0.0129109344631	blockFiles/set_41/main_unc/rightBlue\GB_RB_3.xlsx
395	main_unc	True	0.0	747	0	5.0	5.0	0.0	1	left	1.0	1.0	1.0	0	-0.0486601673812	blockFiles/set_41/main_unc/rightBlue\GB_RB_3.xlsx
396	main_unc	True	0.0	747	0	5.0	5.0	0.0	1	left	1.0	1.0	1.0	0	-0.0729271014966	blockFiles/set_41/main_unc/rightBlue\GB_RB_3.xlsx
397	main_unc	True	0.0	747	0	5.0	5.0	0.0	1	left	1.0	1.0	1.0	0	-0.0116926159151	blockFiles/set_41/main_unc/rightBlue\GB_RB_3.xlsx
398	main_unc	True	0.0	747	0	5.0	5.0	0.0	0	left	1.0	0.0	0.0	1	0.0189883405715	blockFiles/set_41/main_unc/rightBlue\GB_RB_3.xlsx
399	main_unc	True	0.0	747	0	5.0	5.0	1.0	1	right	2.0	0.0	1.0	1	0.0517762397602	blockFiles/set_41/main_unc/rightBlue\GB_RB_3.xlsx
400	main_unc	True	0.0	747	0	5.0	5.0	1.0	0	right	2.0	0.0	0.0	0	-0.0191764719784	blockFiles/set_41/main_unc/rightBlue\GB_RB_3.xlsx
401	main_unc	True	0.0	747	0	5.0	5.0	1.0	1	right	2.0	1.0	1.0	1	0.07538987068460001	blockFiles/set_41/main_unc/rightBlue\GB_RB_3.xlsx
402	main_unc	True	0.0	747	0	5.0	5.0	1.0	0	right	1.0	0.0	1.0	0	-0.0159458197467	blockFiles/set_41/main_unc/rightBlue\GB_RB_3.xlsx
403	main_unc	True	0.0	747	0	5.0	5.0	0.0	0	left	1.0	0.0	0.0	1	0.023743189219400003	blockFiles/set_41/main_unc/rightBlue\GB_RB_3.xlsx
404	main_unc	True	0.0	747	0	5.0	5.0	0.0	1	left	1.0	1.0	1.0	0	-0.0363360404596	blockFiles/set_41/main_unc/rightBlue\GB_RB_3.xlsx
405	main_unc	True	0.0	747	0	5.0	5.0	0.0	1	left	1.0	0.0	1.0	0	-0.0131128774211	blockFiles/set_41/main_unc/rightBlue\GB_RB_3.xlsx
406	main_unc	True	0.0	747	0	5.0	5.0	1.0	1	right	2.0	1.0	1.0	1	0.051295862831199995	blockFiles/set_41/main_unc/rightBlue\GB_RB_3.xlsx
407	main_unc	True	0.0	747	0	5.0	5.0	0.0	1	left	1.0	1.0	1.0	0	-0.0302492178418	blockFiles/set_41/main_unc/rightBlue\GB_RB_3.xlsx
408	main_unc	True	0.0	747	0	5.0	5.0	1.0	1	right	2.0	1.0	1.0	1	0.042114565745	blockFiles/set_41/main_unc/rightBlue\GB_RB_3.xlsx
409	main_unc	True	0.0	747	0	5.0	5.0	1.0	1	right	2.0	1.0	1.0	1	0.06530884975569999	blockFiles/set_41/main_unc/rightBlue\GB_RB_3.xlsx
410	main_unc	True	0.0	747	0	5.0	5.0	0.0	1	left	1.0	1.0	1.0	0	-0.07483501894399999	blockFiles/set_41/main_unc/rightBlue\GB_RB_3.xlsx
411	main_unc	True	0.0	747	0	5.0	5.0	0.0	1	left	1.0	1.0	1.0	0	-0.0451805913821	blockFiles/set_41/main_unc/rightBlue\GB_RB_3.xlsx
412	main_unc	True	0.0	747	0	5.0	5.0	0.0	0	left	2.0	1.0	1.0	1	0.00885580133647	blockFiles/set_41/main_unc/rightBlue\GB_RB_3.xlsx
413	main_unc	True	0.0	747	0	6.0	6.0	0.0	1	left	2.0	0.0	0.0	0	-0.0588525679708	blockFiles/set_41/main_unc/rightBlue\GB_RB_2.xlsx
414	main_unc	True	0.0	747	0	6.0	6.0	1.0	1	right	2.0	1.0	1.0	1	0.07103565225380001	blockFiles/set_41/main_unc/rightBlue\GB_RB_2.xlsx
415	main_unc	True	0.0	747	0	6.0	6.0	0.0	1	left	1.0	1.0	1.0	0	-0.0489273419231	blockFiles/set_41/main_unc/rightBlue\GB_RB_2.xlsx
416	main_unc	True	0.0	747	0	6.0	6.0	0.0	1	left	1.0	1.0	1.0	0	-0.07614985894410001	blockFiles/set_41/main_unc/rightBlue\GB_RB_2.xlsx
417	main_unc	True	0.0	747	0	6.0	6.0	0.0	1	left	1.0	1.0	1.0	0	-0.0203681167029	blockFiles/set_41/main_unc/rightBlue\GB_RB_2.xlsx
418	main_unc	True	0.0	747	0	6.0	6.0	0.0	1	left	2.0	0.0	0.0	0	-0.0025176618807	blockFiles/set_41/main_unc/rightBlue\GB_RB_2.xlsx
419	main_unc	True	0.0	747	0	6.0	6.0	0.0	1	left	1.0	0.0	1.0	0	-0.0322236353345	blockFiles/set_41/main_unc/rightBlue\GB_RB_2.xlsx
420	main_unc	True	0.0	747	0	6.0	6.0	0.0	1	left	1.0	1.0	1.0	0	-0.0644816877507	blockFiles/set_41/main_unc/rightBlue\GB_RB_2.xlsx
421	main_unc	True	0.0	747	0	6.0	6.0	0.0	1	left	1.0	0.0	1.0	0	-0.06279031565410001	blockFiles/set_41/main_unc/rightBlue\GB_RB_2.xlsx
422	main_unc	True	0.0	747	0	6.0	6.0	0.0	1	left	1.0	1.0	1.0	0	-0.06414707610380001	blockFiles/set_41/main_unc/rightBlue\GB_RB_2.xlsx
423	main_unc	True	0.0	747	0	6.0	6.0	1.0	1	right	2.0	1.0	1.0	1	0.00353145021945	blockFiles/set_41/main_unc/rightBlue\GB_RB_2.xlsx
424	main_unc	True	0.0	747	0	6.0	6.0	1.0	1	right	2.0	1.0	1.0	1	0.0547614310123	blockFiles/set_41/main_unc/rightBlue\GB_RB_2.xlsx
425	main_unc	True	0.0	747	0	6.0	6.0	0.0	1	left	1.0	1.0	1.0	0	-0.0330180164427	blockFiles/set_41/main_unc/rightBlue\GB_RB_2.xlsx
426	main_unc	True	0.0	747	0	6.0	6.0	1.0	1	right	2.0	1.0	1.0	1	0.0199241920561	blockFiles/set_41/main_unc/rightBlue\GB_RB_2.xlsx
427	main_unc	True	0.0	747	0	6.0	6.0	0.0	0	left	2.0	1.0	1.0	1	0.030110620148499998	blockFiles/set_41/main_unc/rightBlue\GB_RB_2.xlsx
428	main_unc	True	0.0	747	0	6.0	6.0	1.0	1	right	2.0	1.0	1.0	1	0.07574165809899999	blockFiles/set_41/main_unc/rightBlue\GB_RB_2.xlsx
429	main_unc	True	0.0	747	0	6.0	6.0	1.0	1	right	2.0	1.0	1.0	1	0.0347537966073	blockFiles/set_41/main_unc/rightBlue\GB_RB_2.xlsx
430	main_unc	True	0.0	747	0	6.0	6.0	1.0	1	right	2.0	0.0	1.0	1	0.0594654566236	blockFiles/set_41/main_unc/rightBlue\GB_RB_2.xlsx
431	main_unc	True	0.0	747	0	6.0	6.0	0.0	1	left	1.0	1.0	1.0	0	-0.04460056865590001	blockFiles/set_41/main_unc/rightBlue\GB_RB_2.xlsx
432	main_unc	True	0.0	747	0	6.0	6.0	0.0	1	left	1.0	0.0	1.0	0	-0.0270456145518	blockFiles/set_41/main_unc/rightBlue\GB_RB_2.xlsx
433	main_unc	True	0.0	747	0	6.0	6.0	1.0	1	right	2.0	1.0	1.0	1	0.059409996680899996	blockFiles/set_41/main_unc/rightBlue\GB_RB_2.xlsx
434	main_unc	True	0.0	747	0	6.0	6.0	1.0	1	right	2.0	1.0	1.0	1	0.0139101512171	blockFiles/set_41/main_unc/rightBlue\GB_RB_2.xlsx
435	main_unc	True	0.0	747	0	6.0	6.0	1.0	1	right	2.0	1.0	1.0	1	0.0634583292902	blockFiles/set_41/main_unc/rightBlue\GB_RB_2.xlsx
436	main_unc	True	0.0	747	0	6.0	6.0	1.0	1	right	2.0	1.0	1.0	1	0.0643233070336	blockFiles/set_41/main_unc/rightBlue\GB_RB_2.xlsx
437	main_unc	True	0.0	747	0	6.0	6.0	0.0	1	left	1.0	1.0	1.0	0	-0.035315945558300005	blockFiles/set_41/main_unc/rightBlue\GB_RB_2.xlsx
438	main_unc	True	0.0	747	0	7.0	7.0	0.0	1	left	2.0	1.0	1.0	0	-0.07485633062199999	blockFiles/set_41/main_unc/leftBlue\GB_LB_4.xlsx
439	main_unc	True	0.0	747	0	7.0	7.0	0.0	1	left	2.0	1.0	1.0	0	-0.0502093999833	blockFiles/set_41/main_unc/leftBlue\GB_LB_4.xlsx
440	main_unc	True	0.0	747	0	7.0	7.0	1.0	1	right	1.0	0.0	1.0	1	0.033505825474900004	blockFiles/set_41/main_unc/leftBlue\GB_LB_4.xlsx
441	main_unc	True	0.0	747	0	7.0	7.0	0.0	0	left	2.0	0.0	0.0	1	0.0044841090776	blockFiles/set_41/main_unc/leftBlue\GB_LB_4.xlsx
442	main_unc	True	0.0	747	0	7.0	7.0	0.0	1	left	2.0	1.0	1.0	0	-0.0628642402031	blockFiles/set_41/main_unc/leftBlue\GB_LB_4.xlsx
443	main_unc	True	0.0	747	0	7.0	7.0	0.0	1	left	2.0	0.0	1.0	0	-0.0757006866112	blockFiles/set_41/main_unc/leftBlue\GB_LB_4.xlsx
444	main_unc	True	0.0	747	0	7.0	7.0	0.0	1	left	2.0	1.0	1.0	0	-0.020685676895099998	blockFiles/set_41/main_unc/leftBlue\GB_LB_4.xlsx
445	main_unc	True	0.0	747	0	7.0	7.0	0.0	1	left	2.0	1.0	1.0	0	-0.07027755683289999	blockFiles/set_41/main_unc/leftBlue\GB_LB_4.xlsx
446	main_unc	True	0.0	747	0	7.0	7.0	0.0	0	left	2.0	0.0	0.0	1	0.0297228722088	blockFiles/set_41/main_unc/leftBlue\GB_LB_4.xlsx
447	main_unc	True	0.0	747	0	7.0	7.0	0.0	1	left	2.0	1.0	1.0	0	-0.0432396878488	blockFiles/set_41/main_unc/leftBlue\GB_LB_4.xlsx
448	main_unc	True	0.0	747	0	7.0	7.0	1.0	0	right	2.0	1.0	1.0	0	-0.016136104259600003	blockFiles/set_41/main_unc/leftBlue\GB_LB_4.xlsx
449	main_unc	True	0.0	747	0	7.0	7.0	0.0	1	left	2.0	1.0	1.0	0	-0.0740148993395	blockFiles/set_41/main_unc/leftBlue\GB_LB_4.xlsx
450	main_unc	True	0.0	747	0	7.0	7.0	0.0	1	left	2.0	1.0	1.0	0	-0.0201174574718	blockFiles/set_41/main_unc/leftBlue\GB_LB_4.xlsx
451	main_unc	True	0.0	747	0	7.0	7.0	1.0	1	right	1.0	1.0	1.0	1	0.026262247990799997	blockFiles/set_41/main_unc/leftBlue\GB_LB_4.xlsx
452	main_unc	True	0.0	747	0	7.0	7.0	0.0	1	left	2.0	1.0	1.0	0	-0.0404692490585	blockFiles/set_41/main_unc/leftBlue\GB_LB_4.xlsx
453	main_unc	True	0.0	747	0	7.0	7.0	1.0	1	right	1.0	1.0	1.0	1	0.065630581025	blockFiles/set_41/main_unc/leftBlue\GB_LB_4.xlsx
454	main_unc	True	0.0	747	0	7.0	7.0	0.0	1	left	2.0	1.0	1.0	0	-0.0217548256181	blockFiles/set_41/main_unc/leftBlue\GB_LB_4.xlsx
455	main_unc	True	0.0	747	0	7.0	7.0	0.0	0	left	2.0	0.0	0.0	1	0.0161810854264	blockFiles/set_41/main_unc/leftBlue\GB_LB_4.xlsx
456	main_unc	True	0.0	747	0	7.0	7.0	1.0	1	right	1.0	0.0	1.0	1	0.03753535114230001	blockFiles/set_41/main_unc/leftBlue\GB_LB_4.xlsx
457	main_unc	True	0.0	747	0	7.0	7.0	1.0	1	right	1.0	1.0	1.0	1	0.045703020617399996	blockFiles/set_41/main_unc/leftBlue\GB_LB_4.xlsx
458	main_unc	True	0.0	747	0	7.0	7.0	1.0	1	right	1.0	1.0	1.0	1	0.030367027409399998	blockFiles/set_41/main_unc/leftBlue\GB_LB_4.xlsx
459	main_unc	True	0.0	747	0	7.0	7.0	1.0	1	right	1.0	1.0	1.0	1	0.0641777711548	blockFiles/set_41/main_unc/leftBlue\GB_LB_4.xlsx
460	main_unc	True	0.0	747	0	7.0	7.0	1.0	1	right	1.0	1.0	1.0	1	0.035358354114	blockFiles/set_41/main_unc/leftBlue\GB_LB_4.xlsx
461	main_unc	True	0.0	747	0	7.0	7.0	1.0	0	right	2.0	1.0	1.0	0	-0.0450010094047	blockFiles/set_41/main_unc/leftBlue\GB_LB_4.xlsx
462	main_unc	True	1.0	747	0	7.0	7.0	1.0	1	right	n/a	0.0	n/a	1	0.052117810882599994	blockFiles/set_41/main_unc/leftBlue\GB_LB_4.xlsx
463	main_unc	True	0.0	747	0	7.0	7.0	1.0	1	right	1.0	0.0	1.0	1	0.052117810882599994	blockFiles/set_41/main_unc/leftBlue\GB_LB_4.xlsx
464	main_unc	True	0.0	747	0	8.0	8.0	1.0	0	right	1.0	1.0	1.0	0	-0.0012827213853599999	blockFiles/set_41/main_unc/rightBlue\GB_RB_1.xlsx
465	main_unc	True	0.0	747	0	8.0	8.0	0.0	1	left	2.0	0.0	0.0	0	-0.0342875937372	blockFiles/set_41/main_unc/rightBlue\GB_RB_1.xlsx
466	main_unc	True	0.0	747	0	8.0	8.0	0.0	1	left	1.0	1.0	1.0	0	-0.044864261932699996	blockFiles/set_41/main_unc/rightBlue\GB_RB_1.xlsx
467	main_unc	True	0.0	747	0	8.0	8.0	0.0	1	left	1.0	0.0	1.0	0	-0.050851964950599994	blockFiles/set_41/main_unc/rightBlue\GB_RB_1.xlsx
468	main_unc	True	0.0	747	0	8.0	8.0	1.0	1	right	2.0	1.0	1.0	1	0.0757448121533	blockFiles/set_41/main_unc/rightBlue\GB_RB_1.xlsx
469	main_unc	True	0.0	747	0	8.0	8.0	0.0	1	left	1.0	1.0	1.0	0	-0.0309946225211	blockFiles/set_41/main_unc/rightBlue\GB_RB_1.xlsx
470	main_unc	True	0.0	747	0	8.0	8.0	1.0	0	right	1.0	1.0	1.0	0	-0.019647940155099998	blockFiles/set_41/main_unc/rightBlue\GB_RB_1.xlsx
471	main_unc	True	0.0	747	0	8.0	8.0	0.0	1	left	2.0	0.0	0.0	0	-0.0440394321643	blockFiles/set_41/main_unc/rightBlue\GB_RB_1.xlsx
472	main_unc	True	0.0	747	0	8.0	8.0	0.0	1	left	1.0	1.0	1.0	0	-0.061222610287399996	blockFiles/set_41/main_unc/rightBlue\GB_RB_1.xlsx
473	main_unc	True	0.0	747	0	8.0	8.0	0.0	1	left	1.0	1.0	1.0	0	-0.053575350381399996	blockFiles/set_41/main_unc/rightBlue\GB_RB_1.xlsx
474	main_unc	True	0.0	747	0	8.0	8.0	0.0	1	left	1.0	1.0	1.0	0	-0.00249561479315	blockFiles/set_41/main_unc/rightBlue\GB_RB_1.xlsx
475	main_unc	True	0.0	747	0	8.0	8.0	1.0	1	right	2.0	1.0	1.0	1	0.0410438258946	blockFiles/set_41/main_unc/rightBlue\GB_RB_1.xlsx
476	main_unc	True	0.0	747	0	8.0	8.0	1.0	1	right	2.0	0.0	1.0	1	0.0766048393585	blockFiles/set_41/main_unc/rightBlue\GB_RB_1.xlsx
477	main_unc	True	0.0	747	0	8.0	8.0	1.0	1	right	2.0	1.0	1.0	1	0.052848408222199994	blockFiles/set_41/main_unc/rightBlue\GB_RB_1.xlsx
478	main_unc	True	0.0	747	0	8.0	8.0	0.0	0	left	1.0	1.0	0.0	1	0.0126688269153	blockFiles/set_41/main_unc/rightBlue\GB_RB_1.xlsx
479	main_unc	True	0.0	747	0	8.0	8.0	1.0	1	right	2.0	1.0	1.0	1	0.0464330325834	blockFiles/set_41/main_unc/rightBlue\GB_RB_1.xlsx
480	main_unc	True	0.0	747	0	8.0	8.0	1.0	1	right	2.0	1.0	1.0	1	0.0180768756196	blockFiles/set_41/main_unc/rightBlue\GB_RB_1.xlsx
481	main_unc	True	0.0	747	0	8.0	8.0	1.0	1	right	2.0	1.0	1.0	1	0.0709169578366	blockFiles/set_41/main_unc/rightBlue\GB_RB_1.xlsx
482	main_unc	True	0.0	747	0	8.0	8.0	0.0	1	left	1.0	0.0	1.0	0	-0.00727744210511	blockFiles/set_41/main_unc/rightBlue\GB_RB_1.xlsx
483	main_unc	True	1.0	747	0	8.0	8.0	n/a	0	None	n/a	0.0	n/a	0	-0.0229307937622	blockFiles/set_41/main_unc/rightBlue\GB_RB_1.xlsx
484	main_unc	True	0.0	747	0	8.0	8.0	1.0	1	right	1.0	0.0	0.0	1	0.0689536964893	blockFiles/set_41/main_unc/rightBlue\GB_RB_1.xlsx
485	main_unc	True	0.0	747	0	8.0	8.0	1.0	1	right	2.0	1.0	1.0	1	0.054515383523000005	blockFiles/set_41/main_unc/rightBlue\GB_RB_1.xlsx
486	main_unc	True	0.0	747	0	8.0	8.0	0.0	1	left	1.0	1.0	1.0	0	-0.07163195952769999	blockFiles/set_41/main_unc/rightBlue\GB_RB_1.xlsx
487	main_unc	True	0.0	747	0	8.0	8.0	1.0	1	right	2.0	1.0	1.0	1	0.04769629282880001	blockFiles/set_41/main_unc/rightBlue\GB_RB_1.xlsx
488	main_unc	True	0.0	747	0	8.0	8.0	1.0	1	right	1.0	0.0	0.0	1	0.0009578945301469999	blockFiles/set_41/main_unc/rightBlue\GB_RB_1.xlsx
489	main_unc	True	0.0	747	0	8.0	8.0	1.0	0	right	2.0	0.0	0.0	0	-0.0229307937622	blockFiles/set_41/main_unc/rightBlue\GB_RB_1.xlsx
490	main_unc	True	0.0	747	0	9.0	9.0	0.0	1	left	2.0	1.0	1.0	0	-0.0619892066158	blockFiles/set_41/main_unc/leftBlue\GB_LB_6.xlsx
491	main_unc	True	0.0	747	0	9.0	9.0	0.0	0	left	1.0	1.0	1.0	1	0.028875502403799998	blockFiles/set_41/main_unc/leftBlue\GB_LB_6.xlsx
492	main_unc	True	0.0	747	0	9.0	9.0	1.0	1	right	1.0	1.0	1.0	1	0.07391805492339999	blockFiles/set_41/main_unc/leftBlue\GB_LB_6.xlsx
493	main_unc	True	0.0	747	0	9.0	9.0	0.0	1	left	2.0	1.0	1.0	0	-0.0480817138031	blockFiles/set_41/main_unc/leftBlue\GB_LB_6.xlsx
494	main_unc	True	0.0	747	0	9.0	9.0	1.0	1	right	2.0	0.0	0.0	1	0.0022266885638200003	blockFiles/set_41/main_unc/leftBlue\GB_LB_6.xlsx
495	main_unc	True	0.0	747	0	9.0	9.0	1.0	1	right	1.0	0.0	1.0	1	0.024040423706200003	blockFiles/set_41/main_unc/leftBlue\GB_LB_6.xlsx
496	main_unc	True	0.0	747	0	9.0	9.0	0.0	1	left	2.0	1.0	1.0	0	-0.0135857228935	blockFiles/set_41/main_unc/leftBlue\GB_LB_6.xlsx
497	main_unc	True	0.0	747	0	9.0	9.0	1.0	1	right	1.0	1.0	1.0	1	0.0289229098335	blockFiles/set_41/main_unc/leftBlue\GB_LB_6.xlsx
498	main_unc	True	0.0	747	0	9.0	9.0	1.0	1	right	1.0	1.0	1.0	1	0.06664952291180001	blockFiles/set_41/main_unc/leftBlue\GB_LB_6.xlsx
499	main_unc	True	0.0	747	0	9.0	9.0	1.0	1	right	1.0	0.0	1.0	1	0.07396733419969999	blockFiles/set_41/main_unc/leftBlue\GB_LB_6.xlsx
500	main_unc	True	0.0	747	0	9.0	9.0	0.0	1	left	2.0	1.0	1.0	0	-0.020975786615200002	blockFiles/set_41/main_unc/leftBlue\GB_LB_6.xlsx
501	main_unc	True	0.0	747	0	9.0	9.0	0.0	1	left	2.0	1.0	1.0	0	-0.0631338233314	blockFiles/set_41/main_unc/leftBlue\GB_LB_6.xlsx
502	main_unc	True	0.0	747	0	9.0	9.0	0.0	1	left	2.0	1.0	1.0	0	-0.018425201978500002	blockFiles/set_41/main_unc/leftBlue\GB_LB_6.xlsx
503	main_unc	True	0.0	747	0	9.0	9.0	1.0	1	right	1.0	1.0	1.0	1	0.0664141431637	blockFiles/set_41/main_unc/leftBlue\GB_LB_6.xlsx
504	main_unc	True	0.0	747	0	9.0	9.0	0.0	0	left	1.0	1.0	1.0	1	0.0216231470741	blockFiles/set_41/main_unc/leftBlue\GB_LB_6.xlsx
505	main_unc	True	0.0	747	0	9.0	9.0	0.0	1	left	2.0	0.0	1.0	0	-0.0257408156432	blockFiles/set_41/main_unc/leftBlue\GB_LB_6.xlsx
506	main_unc	True	0.0	747	0	9.0	9.0	0.0	1	left	2.0	1.0	1.0	0	-0.0704862404428	blockFiles/set_41/main_unc/leftBlue\GB_LB_6.xlsx
507	main_unc	True	0.0	747	0	9.0	9.0	0.0	1	left	2.0	1.0	1.0	0	-0.0420535291359	blockFiles/set_41/main_unc/leftBlue\GB_LB_6.xlsx
508	main_unc	True	0.0	747	0	9.0	9.0	0.0	1	left	2.0	1.0	1.0	0	-0.07386207999660001	blockFiles/set_41/main_unc/leftBlue\GB_LB_6.xlsx
509	main_unc	True	0.0	747	0	9.0	9.0	0.0	1	left	2.0	1.0	1.0	0	-0.011000081896799999	blockFiles/set_41/main_unc/leftBlue\GB_LB_6.xlsx
510	main_unc	True	1.0	747	0	9.0	9.0	n/a	0	None	n/a	0.0	n/a	0	-0.0356147735007	blockFiles/set_41/main_unc/leftBlue\GB_LB_6.xlsx
511	main_unc	True	0.0	747	0	9.0	9.0	1.0	1	right	1.0	1.0	1.0	1	0.047070894353099996	blockFiles/set_41/main_unc/leftBlue\GB_LB_6.xlsx
512	main_unc	True	0.0	747	0	9.0	9.0	0.0	0	left	1.0	0.0	1.0	1	0.0332778339088	blockFiles/set_41/main_unc/leftBlue\GB_LB_6.xlsx
513	main_unc	True	0.0	747	0	9.0	9.0	1.0	1	right	1.0	1.0	1.0	1	0.0229336892068	blockFiles/set_41/main_unc/leftBlue\GB_LB_6.xlsx
514	main_unc	True	0.0	747	0	9.0	9.0	0.0	1	left	2.0	1.0	1.0	0	-0.0697302505374	blockFiles/set_41/main_unc/leftBlue\GB_LB_6.xlsx
515	main_unc	True	0.0	747	0	9.0	9.0	0.0	1	left	2.0	1.0	1.0	0	-0.0356147735007	blockFiles/set_41/main_unc/leftBlue\GB_LB_6.xlsx
516	main_unc	True	0.0	747	0	10.0	10.0	1.0	1	right	1.0	1.0	1.0	1	0.0199518783577	blockFiles/set_41/main_unc/leftBlue\GB_LB_3.xlsx
517	main_unc	True	0.0	747	0	10.0	10.0	1.0	1	right	1.0	0.0	1.0	1	0.0163188742101	blockFiles/set_41/main_unc/leftBlue\GB_LB_3.xlsx
518	main_unc	True	0.0	747	0	10.0	10.0	1.0	1	right	1.0	1.0	1.0	1	0.06373371567580001	blockFiles/set_41/main_unc/leftBlue\GB_LB_3.xlsx
519	main_unc	True	0.0	747	0	10.0	10.0	0.0	1	left	2.0	1.0	1.0	0	-0.0303813648038	blockFiles/set_41/main_unc/leftBlue\GB_LB_3.xlsx
520	main_unc	True	0.0	747	0	10.0	10.0	0.0	0	left	2.0	0.0	0.0	1	0.00942721677944	blockFiles/set_41/main_unc/leftBlue\GB_LB_3.xlsx
521	main_unc	True	0.0	747	0	10.0	10.0	0.0	1	left	2.0	1.0	1.0	0	-0.0721363033168	blockFiles/set_41/main_unc/leftBlue\GB_LB_3.xlsx
522	main_unc	True	0.0	747	0	10.0	10.0	1.0	1	right	1.0	0.0	1.0	1	0.0379115593247	blockFiles/set_41/main_unc/leftBlue\GB_LB_3.xlsx
523	main_unc	True	0.0	747	0	10.0	10.0	1.0	1	right	1.0	1.0	1.0	1	0.047682452146	blockFiles/set_41/main_unc/leftBlue\GB_LB_3.xlsx
524	main_unc	True	0.0	747	0	10.0	10.0	1.0	1	right	1.0	1.0	1.0	1	0.00782895531505	blockFiles/set_41/main_unc/leftBlue\GB_LB_3.xlsx
525	main_unc	True	0.0	747	0	10.0	10.0	1.0	1	right	1.0	1.0	1.0	1	0.0363447051123	blockFiles/set_41/main_unc/leftBlue\GB_LB_3.xlsx
526	main_unc	True	1.0	747	0	10.0	10.0	n/a	0	None	n/a	0.0	n/a	0	-0.0587112789042	blockFiles/set_41/main_unc/leftBlue\GB_LB_3.xlsx
527	main_unc	True	0.0	747	0	10.0	10.0	1.0	1	right	1.0	1.0	1.0	1	0.00550800077617	blockFiles/set_41/main_unc/leftBlue\GB_LB_3.xlsx
528	main_unc	True	0.0	747	0	10.0	10.0	0.0	1	left	2.0	1.0	1.0	0	-0.0725237129256	blockFiles/set_41/main_unc/leftBlue\GB_LB_3.xlsx
529	main_unc	True	0.0	747	0	10.0	10.0	0.0	1	left	2.0	1.0	1.0	0	-0.0460727646202	blockFiles/set_41/main_unc/leftBlue\GB_LB_3.xlsx
530	main_unc	True	0.0	747	0	10.0	10.0	1.0	1	right	1.0	0.0	1.0	1	0.0779147034325	blockFiles/set_41/main_unc/leftBlue\GB_LB_3.xlsx
531	main_unc	True	0.0	747	0	10.0	10.0	0.0	0	left	2.0	0.0	0.0	1	0.028368724863999998	blockFiles/set_41/main_unc/leftBlue\GB_LB_3.xlsx
532	main_unc	True	0.0	747	0	10.0	10.0	0.0	1	left	2.0	1.0	1.0	0	-0.039011905361	blockFiles/set_41/main_unc/leftBlue\GB_LB_3.xlsx
533	main_unc	True	0.0	747	0	10.0	10.0	0.0	1	left	2.0	1.0	1.0	0	-0.010216096285700001	blockFiles/set_41/main_unc/leftBlue\GB_LB_3.xlsx
534	main_unc	True	0.0	747	0	10.0	10.0	1.0	0	right	2.0	1.0	1.0	0	-0.052861510328900005	blockFiles/set_41/main_unc/leftBlue\GB_LB_3.xlsx
535	main_unc	True	0.0	747	0	10.0	10.0	0.0	1	left	2.0	1.0	1.0	0	-0.0682459598966	blockFiles/set_41/main_unc/leftBlue\GB_LB_3.xlsx
536	main_unc	True	0.0	747	0	10.0	10.0	1.0	1	right	2.0	0.0	0.0	1	0.026739938389499996	blockFiles/set_41/main_unc/leftBlue\GB_LB_3.xlsx
537	main_unc	True	0.0	747	0	10.0	10.0	1.0	1	right	1.0	0.0	1.0	1	0.07267301948739999	blockFiles/set_41/main_unc/leftBlue\GB_LB_3.xlsx
538	main_unc	True	0.0	747	0	10.0	10.0	0.0	1	left	2.0	0.0	1.0	0	-0.0568701671809	blockFiles/set_41/main_unc/leftBlue\GB_LB_3.xlsx
539	main_unc	True	0.0	747	0	10.0	10.0	0.0	1	left	2.0	1.0	1.0	0	-0.030713441315999998	blockFiles/set_41/main_unc/leftBlue\GB_LB_3.xlsx
540	main_unc	True	0.0	747	0	10.0	10.0	1.0	0	right	2.0	1.0	1.0	0	-0.0137329159118	blockFiles/set_41/main_unc/leftBlue\GB_LB_3.xlsx
541	main_unc	True	0.0	747	0	10.0	10.0	0.0	1	left	2.0	1.0	1.0	0	-0.0587112789042	blockFiles/set_41/main_unc/leftBlue\GB_LB_3.xlsx
542	main_unc	True	0.0	747	0	11.0	11.0	0.0	1	left	1.0	0.0	1.0	0	-0.0289828631096	blockFiles/set_41/main_unc/rightBlue\GB_RB_4.xlsx
543	main_unc	True	0.0	747	0	11.0	11.0	0.0	1	left	2.0	0.0	0.0	0	-0.0670180403441	blockFiles/set_41/main_unc/rightBlue\GB_RB_4.xlsx
544	main_unc	True	0.0	747	0	11.0	11.0	1.0	1	right	1.0	0.0	0.0	1	0.0511789187603	blockFiles/set_41/main_unc/rightBlue\GB_RB_4.xlsx
545	main_unc	True	0.0	747	0	11.0	11.0	1.0	0	right	1.0	1.0	1.0	0	-0.0376293743216	blockFiles/set_41/main_unc/rightBlue\GB_RB_4.xlsx
546	main_unc	True	0.0	747	0	11.0	11.0	0.0	1	left	2.0	0.0	0.0	0	-0.0187184341252	blockFiles/set_41/main_unc/rightBlue\GB_RB_4.xlsx
547	main_unc	True	0.0	747	0	11.0	11.0	0.0	1	left	1.0	1.0	1.0	0	-0.0264591804147	blockFiles/set_41/main_unc/rightBlue\GB_RB_4.xlsx
548	main_unc	True	0.0	747	0	11.0	11.0	1.0	1	right	2.0	1.0	1.0	1	0.0465035024658	blockFiles/set_41/main_unc/rightBlue\GB_RB_4.xlsx
549	main_unc	True	0.0	747	0	11.0	11.0	0.0	1	left	1.0	0.0	1.0	0	-0.0781269513816	blockFiles/set_41/main_unc/rightBlue\GB_RB_4.xlsx
550	main_unc	True	0.0	747	0	11.0	11.0	1.0	1	right	2.0	0.0	1.0	1	0.030447714049400002	blockFiles/set_41/main_unc/rightBlue\GB_RB_4.xlsx
551	main_unc	True	0.0	747	0	11.0	11.0	1.0	1	right	2.0	1.0	1.0	1	0.0588413338177	blockFiles/set_41/main_unc/rightBlue\GB_RB_4.xlsx
552	main_unc	True	0.0	747	0	11.0	11.0	0.0	1	left	1.0	1.0	1.0	0	-0.0232189115882	blockFiles/set_41/main_unc/rightBlue\GB_RB_4.xlsx
553	main_unc	True	0.0	747	0	11.0	11.0	0.0	1	left	1.0	1.0	1.0	0	-0.0566202420555	blockFiles/set_41/main_unc/rightBlue\GB_RB_4.xlsx
554	main_unc	True	0.0	747	0	11.0	11.0	0.0	0	left	1.0	1.0	0.0	1	0.0419321559928	blockFiles/set_41/main_unc/rightBlue\GB_RB_4.xlsx
555	main_unc	True	0.0	747	0	11.0	11.0	0.0	1	left	1.0	1.0	1.0	0	-0.047727263364900005	blockFiles/set_41/main_unc/rightBlue\GB_RB_4.xlsx
556	main_unc	True	0.0	747	0	11.0	11.0	1.0	1	right	2.0	1.0	1.0	1	0.0506771541014	blockFiles/set_41/main_unc/rightBlue\GB_RB_4.xlsx
557	main_unc	True	0.0	747	0	11.0	11.0	0.0	0	left	2.0	1.0	1.0	1	0.070024541188	blockFiles/set_41/main_unc/rightBlue\GB_RB_4.xlsx
558	main_unc	True	0.0	747	0	11.0	11.0	0.0	1	left	1.0	1.0	1.0	0	-0.00597275864333	blockFiles/set_41/main_unc/rightBlue\GB_RB_4.xlsx
559	main_unc	True	0.0	747	0	11.0	11.0	0.0	0	left	1.0	0.0	0.0	1	0.0127716968209	blockFiles/set_41/main_unc/rightBlue\GB_RB_4.xlsx
560	main_unc	True	0.0	747	0	11.0	11.0	0.0	1	left	1.0	1.0	1.0	0	-0.0731983587705	blockFiles/set_41/main_unc/rightBlue\GB_RB_4.xlsx
561	main_unc	True	0.0	747	0	11.0	11.0	0.0	0	left	1.0	0.0	0.0	1	0.00486751278862	blockFiles/set_41/main_unc/rightBlue\GB_RB_4.xlsx
562	main_unc	True	0.0	747	0	11.0	11.0	1.0	1	right	2.0	1.0	1.0	1	0.0337501393445	blockFiles/set_41/main_unc/rightBlue\GB_RB_4.xlsx
563	main_unc	True	0.0	747	0	11.0	11.0	1.0	1	right	2.0	0.0	1.0	1	0.061756145637499996	blockFiles/set_41/main_unc/rightBlue\GB_RB_4.xlsx
564	main_unc	True	0.0	747	0	11.0	11.0	0.0	1	left	1.0	1.0	1.0	0	-0.0773641579971	blockFiles/set_41/main_unc/rightBlue\GB_RB_4.xlsx
565	main_unc	True	0.0	747	0	11.0	11.0	1.0	1	right	2.0	1.0	1.0	1	0.0643805766851	blockFiles/set_41/main_unc/rightBlue\GB_RB_4.xlsx
566	main_unc	True	0.0	747	0	11.0	11.0	1.0	1	right	2.0	0.0	1.0	1	0.0345554090478	blockFiles/set_41/main_unc/rightBlue\GB_RB_4.xlsx
