	trial_type	complete	missIndex	participant	id	blockNumber	b_t	d_t	decision1.corr	decision1.keys	a_t	r_t	decision2.corr	s_t	u_t	block_file
0	main_safe	True	0.0	753	0	0.0	0.0	1.0	1	right	1.0	0.0	0.0	1	0.08	blockFiles/set_43/main_safe/rightBlue\GB_RB_1.xlsx
1	main_safe	True	0.0	753	0	0.0	0.0	0.0	1	left	1.0	1.0	1.0	0	-0.08	blockFiles/set_43/main_safe/rightBlue\GB_RB_1.xlsx
2	main_safe	True	0.0	753	0	0.0	0.0	0.0	1	left	1.0	1.0	1.0	0	-0.08	blockFiles/set_43/main_safe/rightBlue\GB_RB_1.xlsx
3	main_safe	True	0.0	753	0	0.0	0.0	1.0	1	right	2.0	1.0	1.0	1	0.08	blockFiles/set_43/main_safe/rightBlue\GB_RB_1.xlsx
4	main_safe	True	0.0	753	0	0.0	0.0	1.0	1	right	2.0	1.0	1.0	1	0.08	blockFiles/set_43/main_safe/rightBlue\GB_RB_1.xlsx
5	main_safe	True	0.0	753	0	0.0	0.0	0.0	1	left	1.0	1.0	1.0	0	-0.08	blockFiles/set_43/main_safe/rightBlue\GB_RB_1.xlsx
6	main_safe	True	0.0	753	0	0.0	0.0	0.0	1	left	1.0	1.0	1.0	0	-0.08	blockFiles/set_43/main_safe/rightBlue\GB_RB_1.xlsx
7	main_safe	True	0.0	753	0	0.0	0.0	0.0	1	left	1.0	1.0	1.0	0	-0.08	blockFiles/set_43/main_safe/rightBlue\GB_RB_1.xlsx
8	main_safe	True	0.0	753	0	0.0	0.0	0.0	1	left	1.0	1.0	1.0	0	-0.08	blockFiles/set_43/main_safe/rightBlue\GB_RB_1.xlsx
9	main_safe	True	0.0	753	0	0.0	0.0	0.0	1	left	1.0	1.0	1.0	0	-0.08	blockFiles/set_43/main_safe/rightBlue\GB_RB_1.xlsx
10	main_safe	True	0.0	753	0	0.0	0.0	0.0	1	left	1.0	0.0	1.0	0	-0.08	blockFiles/set_43/main_safe/rightBlue\GB_RB_1.xlsx
11	main_safe	True	0.0	753	0	0.0	0.0	1.0	1	right	2.0	1.0	1.0	1	0.08	blockFiles/set_43/main_safe/rightBlue\GB_RB_1.xlsx
12	main_safe	True	0.0	753	0	0.0	0.0	1.0	1	right	2.0	1.0	1.0	1	0.08	blockFiles/set_43/main_safe/rightBlue\GB_RB_1.xlsx
13	main_safe	True	0.0	753	0	0.0	0.0	0.0	1	left	1.0	1.0	1.0	0	-0.08	blockFiles/set_43/main_safe/rightBlue\GB_RB_1.xlsx
14	main_safe	True	0.0	753	0	0.0	0.0	0.0	1	left	1.0	0.0	1.0	0	-0.08	blockFiles/set_43/main_safe/rightBlue\GB_RB_1.xlsx
15	main_safe	True	0.0	753	0	0.0	0.0	0.0	1	left	1.0	0.0	1.0	0	-0.08	blockFiles/set_43/main_safe/rightBlue\GB_RB_1.xlsx
16	main_safe	True	0.0	753	0	0.0	0.0	1.0	1	right	2.0	1.0	1.0	1	0.08	blockFiles/set_43/main_safe/rightBlue\GB_RB_1.xlsx
17	main_safe	True	0.0	753	0	0.0	0.0	1.0	1	right	2.0	1.0	1.0	1	0.08	blockFiles/set_43/main_safe/rightBlue\GB_RB_1.xlsx
18	main_safe	True	0.0	753	0	0.0	0.0	1.0	1	right	2.0	1.0	1.0	1	0.08	blockFiles/set_43/main_safe/rightBlue\GB_RB_1.xlsx
19	main_safe	True	0.0	753	0	0.0	0.0	1.0	1	right	2.0	0.0	1.0	1	0.08	blockFiles/set_43/main_safe/rightBlue\GB_RB_1.xlsx
20	main_safe	True	0.0	753	0	0.0	0.0	1.0	1	right	2.0	1.0	1.0	1	0.08	blockFiles/set_43/main_safe/rightBlue\GB_RB_1.xlsx
21	main_safe	True	0.0	753	0	0.0	0.0	1.0	1	right	2.0	1.0	1.0	1	0.08	blockFiles/set_43/main_safe/rightBlue\GB_RB_1.xlsx
22	main_safe	True	0.0	753	0	0.0	0.0	0.0	1	left	1.0	0.0	1.0	0	-0.08	blockFiles/set_43/main_safe/rightBlue\GB_RB_1.xlsx
23	main_safe	True	0.0	753	0	0.0	0.0	1.0	1	right	2.0	1.0	1.0	1	0.08	blockFiles/set_43/main_safe/rightBlue\GB_RB_1.xlsx
24	main_safe	True	0.0	753	0	0.0	0.0	1.0	1	right	2.0	0.0	1.0	1	0.08	blockFiles/set_43/main_safe/rightBlue\GB_RB_1.xlsx
25	main_safe	True	0.0	753	0	1.0	1.0	0.0	1	left	1.0	1.0	1.0	0	-0.08	blockFiles/set_43/main_safe/rightBlue\GB_RB_3.xlsx
26	main_safe	True	0.0	753	0	1.0	1.0	0.0	1	left	1.0	0.0	1.0	0	-0.08	blockFiles/set_43/main_safe/rightBlue\GB_RB_3.xlsx
27	main_safe	True	0.0	753	0	1.0	1.0	0.0	1	left	1.0	1.0	1.0	0	-0.08	blockFiles/set_43/main_safe/rightBlue\GB_RB_3.xlsx
28	main_safe	True	0.0	753	0	1.0	1.0	0.0	1	left	1.0	1.0	1.0	0	-0.08	blockFiles/set_43/main_safe/rightBlue\GB_RB_3.xlsx
29	main_safe	True	0.0	753	0	1.0	1.0	1.0	1	right	2.0	0.0	1.0	1	0.08	blockFiles/set_43/main_safe/rightBlue\GB_RB_3.xlsx
30	main_safe	True	0.0	753	0	1.0	1.0	1.0	1	right	2.0	1.0	1.0	1	0.08	blockFiles/set_43/main_safe/rightBlue\GB_RB_3.xlsx
31	main_safe	True	0.0	753	0	1.0	1.0	0.0	1	left	1.0	1.0	1.0	0	-0.08	blockFiles/set_43/main_safe/rightBlue\GB_RB_3.xlsx
32	main_safe	True	0.0	753	0	1.0	1.0	1.0	1	right	2.0	1.0	1.0	1	0.08	blockFiles/set_43/main_safe/rightBlue\GB_RB_3.xlsx
33	main_safe	True	0.0	753	0	1.0	1.0	0.0	1	left	1.0	1.0	1.0	0	-0.08	blockFiles/set_43/main_safe/rightBlue\GB_RB_3.xlsx
34	main_safe	True	0.0	753	0	1.0	1.0	0.0	1	left	1.0	1.0	1.0	0	-0.08	blockFiles/set_43/main_safe/rightBlue\GB_RB_3.xlsx
35	main_safe	True	0.0	753	0	1.0	1.0	1.0	1	right	2.0	1.0	1.0	1	0.08	blockFiles/set_43/main_safe/rightBlue\GB_RB_3.xlsx
36	main_safe	True	0.0	753	0	1.0	1.0	1.0	1	right	2.0	0.0	1.0	1	0.08	blockFiles/set_43/main_safe/rightBlue\GB_RB_3.xlsx
37	main_safe	True	0.0	753	0	1.0	1.0	1.0	1	right	2.0	1.0	1.0	1	0.08	blockFiles/set_43/main_safe/rightBlue\GB_RB_3.xlsx
38	main_safe	True	0.0	753	0	1.0	1.0	1.0	1	right	2.0	1.0	1.0	1	0.08	blockFiles/set_43/main_safe/rightBlue\GB_RB_3.xlsx
39	main_safe	True	0.0	753	0	1.0	1.0	1.0	1	right	2.0	0.0	1.0	1	0.08	blockFiles/set_43/main_safe/rightBlue\GB_RB_3.xlsx
40	main_safe	True	0.0	753	0	1.0	1.0	0.0	1	left	1.0	1.0	1.0	0	-0.08	blockFiles/set_43/main_safe/rightBlue\GB_RB_3.xlsx
41	main_safe	True	1.0	753	0	1.0	1.0	n/a	0	None	n/a	0.0	n/a	0	-0.08	blockFiles/set_43/main_safe/rightBlue\GB_RB_3.xlsx
42	main_safe	True	0.0	753	0	1.0	1.0	0.0	1	left	1.0	1.0	1.0	0	-0.08	blockFiles/set_43/main_safe/rightBlue\GB_RB_3.xlsx
43	main_safe	True	0.0	753	0	1.0	1.0	0.0	1	left	1.0	1.0	1.0	0	-0.08	blockFiles/set_43/main_safe/rightBlue\GB_RB_3.xlsx
44	main_safe	True	0.0	753	0	1.0	1.0	1.0	1	right	2.0	1.0	1.0	1	0.08	blockFiles/set_43/main_safe/rightBlue\GB_RB_3.xlsx
45	main_safe	True	0.0	753	0	1.0	1.0	1.0	1	right	2.0	1.0	1.0	1	0.08	blockFiles/set_43/main_safe/rightBlue\GB_RB_3.xlsx
46	main_safe	True	0.0	753	0	1.0	1.0	0.0	1	left	1.0	1.0	1.0	0	-0.08	blockFiles/set_43/main_safe/rightBlue\GB_RB_3.xlsx
47	main_safe	True	0.0	753	0	1.0	1.0	1.0	1	right	2.0	1.0	1.0	1	0.08	blockFiles/set_43/main_safe/rightBlue\GB_RB_3.xlsx
48	main_safe	True	0.0	753	0	1.0	1.0	0.0	1	left	1.0	1.0	1.0	0	-0.08	blockFiles/set_43/main_safe/rightBlue\GB_RB_3.xlsx
49	main_safe	True	0.0	753	0	1.0	1.0	1.0	1	right	2.0	1.0	1.0	1	0.08	blockFiles/set_43/main_safe/rightBlue\GB_RB_3.xlsx
50	main_safe	True	0.0	753	0	1.0	1.0	0.0	1	left	1.0	1.0	1.0	0	-0.08	blockFiles/set_43/main_safe/rightBlue\GB_RB_3.xlsx
51	main_safe	True	0.0	753	0	2.0	2.0	0.0	1	left	2.0	1.0	1.0	0	-0.08	blockFiles/set_43/main_safe/leftBlue\GB_LB_2.xlsx
52	main_safe	True	0.0	753	0	2.0	2.0	1.0	1	right	1.0	1.0	1.0	1	0.08	blockFiles/set_43/main_safe/leftBlue\GB_LB_2.xlsx
53	main_safe	True	0.0	753	0	2.0	2.0	0.0	1	left	2.0	1.0	1.0	0	-0.08	blockFiles/set_43/main_safe/leftBlue\GB_LB_2.xlsx
54	main_safe	True	0.0	753	0	2.0	2.0	1.0	1	right	1.0	1.0	1.0	1	0.08	blockFiles/set_43/main_safe/leftBlue\GB_LB_2.xlsx
55	main_safe	True	0.0	753	0	2.0	2.0	0.0	1	left	2.0	1.0	1.0	0	-0.08	blockFiles/set_43/main_safe/leftBlue\GB_LB_2.xlsx
56	main_safe	True	0.0	753	0	2.0	2.0	0.0	1	left	2.0	1.0	1.0	0	-0.08	blockFiles/set_43/main_safe/leftBlue\GB_LB_2.xlsx
57	main_safe	True	0.0	753	0	2.0	2.0	0.0	1	left	2.0	1.0	1.0	0	-0.08	blockFiles/set_43/main_safe/leftBlue\GB_LB_2.xlsx
58	main_safe	True	0.0	753	0	2.0	2.0	1.0	1	right	1.0	1.0	1.0	1	0.08	blockFiles/set_43/main_safe/leftBlue\GB_LB_2.xlsx
59	main_safe	True	0.0	753	0	2.0	2.0	1.0	1	right	1.0	1.0	1.0	1	0.08	blockFiles/set_43/main_safe/leftBlue\GB_LB_2.xlsx
60	main_safe	True	0.0	753	0	2.0	2.0	0.0	1	left	2.0	1.0	1.0	0	-0.08	blockFiles/set_43/main_safe/leftBlue\GB_LB_2.xlsx
61	main_safe	True	0.0	753	0	2.0	2.0	0.0	1	left	2.0	0.0	1.0	0	-0.08	blockFiles/set_43/main_safe/leftBlue\GB_LB_2.xlsx
62	main_safe	True	0.0	753	0	2.0	2.0	1.0	1	right	1.0	0.0	1.0	1	0.08	blockFiles/set_43/main_safe/leftBlue\GB_LB_2.xlsx
63	main_safe	True	0.0	753	0	2.0	2.0	1.0	1	right	1.0	1.0	1.0	1	0.08	blockFiles/set_43/main_safe/leftBlue\GB_LB_2.xlsx
64	main_safe	True	0.0	753	0	2.0	2.0	1.0	1	right	1.0	1.0	1.0	1	0.08	blockFiles/set_43/main_safe/leftBlue\GB_LB_2.xlsx
65	main_safe	True	0.0	753	0	2.0	2.0	0.0	1	left	2.0	1.0	1.0	0	-0.08	blockFiles/set_43/main_safe/leftBlue\GB_LB_2.xlsx
66	main_safe	True	0.0	753	0	2.0	2.0	1.0	1	right	1.0	1.0	1.0	1	0.08	blockFiles/set_43/main_safe/leftBlue\GB_LB_2.xlsx
67	main_safe	True	0.0	753	0	2.0	2.0	1.0	1	right	1.0	1.0	1.0	1	0.08	blockFiles/set_43/main_safe/leftBlue\GB_LB_2.xlsx
68	main_safe	True	0.0	753	0	2.0	2.0	1.0	1	right	1.0	1.0	1.0	1	0.08	blockFiles/set_43/main_safe/leftBlue\GB_LB_2.xlsx
69	main_safe	True	0.0	753	0	2.0	2.0	1.0	1	right	1.0	1.0	1.0	1	0.08	blockFiles/set_43/main_safe/leftBlue\GB_LB_2.xlsx
70	main_safe	True	0.0	753	0	2.0	2.0	1.0	1	right	1.0	1.0	1.0	1	0.08	blockFiles/set_43/main_safe/leftBlue\GB_LB_2.xlsx
71	main_safe	True	0.0	753	0	2.0	2.0	0.0	1	left	2.0	1.0	1.0	0	-0.08	blockFiles/set_43/main_safe/leftBlue\GB_LB_2.xlsx
72	main_safe	True	0.0	753	0	2.0	2.0	0.0	1	left	2.0	0.0	1.0	0	-0.08	blockFiles/set_43/main_safe/leftBlue\GB_LB_2.xlsx
73	main_safe	True	0.0	753	0	2.0	2.0	0.0	1	left	2.0	1.0	1.0	0	-0.08	blockFiles/set_43/main_safe/leftBlue\GB_LB_2.xlsx
74	main_safe	True	0.0	753	0	2.0	2.0	0.0	1	left	2.0	0.0	1.0	0	-0.08	blockFiles/set_43/main_safe/leftBlue\GB_LB_2.xlsx
75	main_safe	True	0.0	753	0	2.0	2.0	1.0	1	right	1.0	1.0	1.0	1	0.08	blockFiles/set_43/main_safe/leftBlue\GB_LB_2.xlsx
76	main_safe	True	0.0	753	0	3.0	3.0	1.0	1	right	1.0	0.0	0.0	1	0.08	blockFiles/set_43/main_safe/rightBlue\GB_RB_2.xlsx
77	main_safe	True	0.0	753	0	3.0	3.0	0.0	1	left	1.0	0.0	1.0	0	-0.08	blockFiles/set_43/main_safe/rightBlue\GB_RB_2.xlsx
78	main_safe	True	0.0	753	0	3.0	3.0	1.0	1	right	1.0	0.0	0.0	1	0.08	blockFiles/set_43/main_safe/rightBlue\GB_RB_2.xlsx
79	main_safe	True	0.0	753	0	3.0	3.0	0.0	1	left	1.0	1.0	1.0	0	-0.08	blockFiles/set_43/main_safe/rightBlue\GB_RB_2.xlsx
80	main_safe	True	0.0	753	0	3.0	3.0	1.0	1	right	2.0	1.0	1.0	1	0.08	blockFiles/set_43/main_safe/rightBlue\GB_RB_2.xlsx
81	main_safe	True	0.0	753	0	3.0	3.0	0.0	1	left	1.0	1.0	1.0	0	-0.08	blockFiles/set_43/main_safe/rightBlue\GB_RB_2.xlsx
82	main_safe	True	0.0	753	0	3.0	3.0	0.0	1	left	1.0	1.0	1.0	0	-0.08	blockFiles/set_43/main_safe/rightBlue\GB_RB_2.xlsx
83	main_safe	True	0.0	753	0	3.0	3.0	1.0	1	right	2.0	1.0	1.0	1	0.08	blockFiles/set_43/main_safe/rightBlue\GB_RB_2.xlsx
84	main_safe	True	0.0	753	0	3.0	3.0	1.0	1	right	2.0	1.0	1.0	1	0.08	blockFiles/set_43/main_safe/rightBlue\GB_RB_2.xlsx
85	main_safe	True	0.0	753	0	3.0	3.0	0.0	1	left	1.0	1.0	1.0	0	-0.08	blockFiles/set_43/main_safe/rightBlue\GB_RB_2.xlsx
86	main_safe	True	0.0	753	0	3.0	3.0	1.0	1	right	2.0	0.0	1.0	1	0.08	blockFiles/set_43/main_safe/rightBlue\GB_RB_2.xlsx
87	main_safe	True	0.0	753	0	3.0	3.0	0.0	1	left	1.0	1.0	1.0	0	-0.08	blockFiles/set_43/main_safe/rightBlue\GB_RB_2.xlsx
88	main_safe	True	0.0	753	0	3.0	3.0	0.0	1	left	1.0	1.0	1.0	0	-0.08	blockFiles/set_43/main_safe/rightBlue\GB_RB_2.xlsx
89	main_safe	True	0.0	753	0	3.0	3.0	1.0	1	right	2.0	1.0	1.0	1	0.08	blockFiles/set_43/main_safe/rightBlue\GB_RB_2.xlsx
90	main_safe	True	0.0	753	0	3.0	3.0	1.0	1	right	2.0	0.0	1.0	1	0.08	blockFiles/set_43/main_safe/rightBlue\GB_RB_2.xlsx
91	main_safe	True	0.0	753	0	3.0	3.0	0.0	1	left	1.0	1.0	1.0	0	-0.08	blockFiles/set_43/main_safe/rightBlue\GB_RB_2.xlsx
92	main_safe	True	0.0	753	0	3.0	3.0	1.0	1	right	2.0	1.0	1.0	1	0.08	blockFiles/set_43/main_safe/rightBlue\GB_RB_2.xlsx
93	main_safe	True	0.0	753	0	3.0	3.0	0.0	1	left	1.0	1.0	1.0	0	-0.08	blockFiles/set_43/main_safe/rightBlue\GB_RB_2.xlsx
94	main_safe	True	0.0	753	0	3.0	3.0	1.0	1	right	2.0	1.0	1.0	1	0.08	blockFiles/set_43/main_safe/rightBlue\GB_RB_2.xlsx
95	main_safe	True	0.0	753	0	3.0	3.0	0.0	1	left	1.0	1.0	1.0	0	-0.08	blockFiles/set_43/main_safe/rightBlue\GB_RB_2.xlsx
96	main_safe	True	0.0	753	0	3.0	3.0	1.0	1	right	2.0	0.0	1.0	1	0.08	blockFiles/set_43/main_safe/rightBlue\GB_RB_2.xlsx
97	main_safe	True	0.0	753	0	3.0	3.0	0.0	1	left	1.0	1.0	1.0	0	-0.08	blockFiles/set_43/main_safe/rightBlue\GB_RB_2.xlsx
98	main_safe	True	0.0	753	0	3.0	3.0	1.0	1	right	2.0	1.0	1.0	1	0.08	blockFiles/set_43/main_safe/rightBlue\GB_RB_2.xlsx
99	main_safe	True	0.0	753	0	3.0	3.0	1.0	1	right	1.0	0.0	0.0	1	0.08	blockFiles/set_43/main_safe/rightBlue\GB_RB_2.xlsx
100	main_safe	True	0.0	753	0	3.0	3.0	0.0	1	left	1.0	0.0	1.0	0	-0.08	blockFiles/set_43/main_safe/rightBlue\GB_RB_2.xlsx
101	main_safe	True	0.0	753	0	4.0	4.0	0.0	1	left	1.0	0.0	0.0	0	-0.08	blockFiles/set_43/main_safe/leftBlue\GB_LB_1.xlsx
102	main_safe	True	0.0	753	0	4.0	4.0	0.0	1	left	2.0	1.0	1.0	0	-0.08	blockFiles/set_43/main_safe/leftBlue\GB_LB_1.xlsx
103	main_safe	True	0.0	753	0	4.0	4.0	1.0	1	right	1.0	1.0	1.0	1	0.08	blockFiles/set_43/main_safe/leftBlue\GB_LB_1.xlsx
104	main_safe	True	0.0	753	0	4.0	4.0	0.0	1	left	1.0	0.0	0.0	0	-0.08	blockFiles/set_43/main_safe/leftBlue\GB_LB_1.xlsx
105	main_safe	True	0.0	753	0	4.0	4.0	0.0	1	left	2.0	0.0	1.0	0	-0.08	blockFiles/set_43/main_safe/leftBlue\GB_LB_1.xlsx
106	main_safe	True	0.0	753	0	4.0	4.0	0.0	1	left	2.0	1.0	1.0	0	-0.08	blockFiles/set_43/main_safe/leftBlue\GB_LB_1.xlsx
107	main_safe	True	0.0	753	0	4.0	4.0	1.0	1	right	1.0	0.0	1.0	1	0.08	blockFiles/set_43/main_safe/leftBlue\GB_LB_1.xlsx
108	main_safe	True	0.0	753	0	4.0	4.0	1.0	1	right	1.0	1.0	1.0	1	0.08	blockFiles/set_43/main_safe/leftBlue\GB_LB_1.xlsx
109	main_safe	True	0.0	753	0	4.0	4.0	1.0	1	right	1.0	1.0	1.0	1	0.08	blockFiles/set_43/main_safe/leftBlue\GB_LB_1.xlsx
110	main_safe	True	0.0	753	0	4.0	4.0	0.0	1	left	2.0	1.0	1.0	0	-0.08	blockFiles/set_43/main_safe/leftBlue\GB_LB_1.xlsx
111	main_safe	True	0.0	753	0	4.0	4.0	1.0	1	right	1.0	1.0	1.0	1	0.08	blockFiles/set_43/main_safe/leftBlue\GB_LB_1.xlsx
112	main_safe	True	1.0	753	0	4.0	4.0	0.0	1	left	n/a	0.0	n/a	0	-0.08	blockFiles/set_43/main_safe/leftBlue\GB_LB_1.xlsx
113	main_safe	True	0.0	753	0	4.0	4.0	0.0	1	left	2.0	1.0	1.0	0	-0.08	blockFiles/set_43/main_safe/leftBlue\GB_LB_1.xlsx
114	main_safe	True	0.0	753	0	4.0	4.0	0.0	1	left	2.0	1.0	1.0	0	-0.08	blockFiles/set_43/main_safe/leftBlue\GB_LB_1.xlsx
115	main_safe	True	0.0	753	0	4.0	4.0	1.0	1	right	1.0	1.0	1.0	1	0.08	blockFiles/set_43/main_safe/leftBlue\GB_LB_1.xlsx
116	main_safe	True	0.0	753	0	4.0	4.0	0.0	1	left	2.0	1.0	1.0	0	-0.08	blockFiles/set_43/main_safe/leftBlue\GB_LB_1.xlsx
117	main_safe	True	0.0	753	0	4.0	4.0	0.0	1	left	2.0	1.0	1.0	0	-0.08	blockFiles/set_43/main_safe/leftBlue\GB_LB_1.xlsx
118	main_safe	True	0.0	753	0	4.0	4.0	1.0	1	right	1.0	1.0	1.0	1	0.08	blockFiles/set_43/main_safe/leftBlue\GB_LB_1.xlsx
119	main_safe	True	0.0	753	0	4.0	4.0	1.0	0	right	1.0	0.0	0.0	0	-0.08	blockFiles/set_43/main_safe/leftBlue\GB_LB_1.xlsx
120	main_safe	True	0.0	753	0	4.0	4.0	1.0	1	right	1.0	0.0	1.0	1	0.08	blockFiles/set_43/main_safe/leftBlue\GB_LB_1.xlsx
121	main_safe	True	0.0	753	0	4.0	4.0	1.0	1	right	2.0	1.0	0.0	1	0.08	blockFiles/set_43/main_safe/leftBlue\GB_LB_1.xlsx
122	main_safe	True	0.0	753	0	4.0	4.0	1.0	1	right	1.0	1.0	1.0	1	0.08	blockFiles/set_43/main_safe/leftBlue\GB_LB_1.xlsx
123	main_safe	True	0.0	753	0	4.0	4.0	0.0	1	left	2.0	1.0	1.0	0	-0.08	blockFiles/set_43/main_safe/leftBlue\GB_LB_1.xlsx
124	main_safe	True	0.0	753	0	4.0	4.0	1.0	1	right	1.0	0.0	1.0	1	0.08	blockFiles/set_43/main_safe/leftBlue\GB_LB_1.xlsx
125	main_safe	True	0.0	753	0	4.0	4.0	0.0	1	left	2.0	1.0	1.0	0	-0.08	blockFiles/set_43/main_safe/leftBlue\GB_LB_1.xlsx
126	main_safe	True	0.0	753	0	4.0	4.0	0.0	1	left	1.0	0.0	0.0	0	-0.08	blockFiles/set_43/main_safe/leftBlue\GB_LB_1.xlsx
127	main_safe	True	0.0	753	0	5.0	5.0	0.0	1	left	1.0	0.0	0.0	0	-0.08	blockFiles/set_43/main_safe/leftBlue\GB_LB_3.xlsx
128	main_safe	True	0.0	753	0	5.0	5.0	1.0	1	right	1.0	1.0	1.0	1	0.08	blockFiles/set_43/main_safe/leftBlue\GB_LB_3.xlsx
129	main_safe	True	0.0	753	0	5.0	5.0	0.0	1	left	2.0	0.0	1.0	0	-0.08	blockFiles/set_43/main_safe/leftBlue\GB_LB_3.xlsx
130	main_safe	True	0.0	753	0	5.0	5.0	1.0	1	right	1.0	1.0	1.0	1	0.08	blockFiles/set_43/main_safe/leftBlue\GB_LB_3.xlsx
131	main_safe	True	0.0	753	0	5.0	5.0	0.0	1	left	2.0	1.0	1.0	0	-0.08	blockFiles/set_43/main_safe/leftBlue\GB_LB_3.xlsx
132	main_safe	True	0.0	753	0	5.0	5.0	0.0	1	left	2.0	1.0	1.0	0	-0.08	blockFiles/set_43/main_safe/leftBlue\GB_LB_3.xlsx
133	main_safe	True	0.0	753	0	5.0	5.0	1.0	1	right	2.0	1.0	0.0	1	0.08	blockFiles/set_43/main_safe/leftBlue\GB_LB_3.xlsx
134	main_safe	True	1.0	753	0	5.0	5.0	n/a	0	None	n/a	0.0	n/a	0	-0.08	blockFiles/set_43/main_safe/leftBlue\GB_LB_3.xlsx
135	main_safe	True	0.0	753	0	5.0	5.0	1.0	1	right	1.0	1.0	1.0	1	0.08	blockFiles/set_43/main_safe/leftBlue\GB_LB_3.xlsx
136	main_safe	True	0.0	753	0	5.0	5.0	1.0	1	right	1.0	1.0	1.0	1	0.08	blockFiles/set_43/main_safe/leftBlue\GB_LB_3.xlsx
137	main_safe	True	0.0	753	0	5.0	5.0	0.0	1	left	2.0	1.0	1.0	0	-0.08	blockFiles/set_43/main_safe/leftBlue\GB_LB_3.xlsx
138	main_safe	True	0.0	753	0	5.0	5.0	0.0	1	left	2.0	0.0	1.0	0	-0.08	blockFiles/set_43/main_safe/leftBlue\GB_LB_3.xlsx
139	main_safe	True	0.0	753	0	5.0	5.0	1.0	1	right	1.0	1.0	1.0	1	0.08	blockFiles/set_43/main_safe/leftBlue\GB_LB_3.xlsx
140	main_safe	True	0.0	753	0	5.0	5.0	0.0	1	left	1.0	0.0	0.0	0	-0.08	blockFiles/set_43/main_safe/leftBlue\GB_LB_3.xlsx
141	main_safe	True	0.0	753	0	5.0	5.0	0.0	1	left	2.0	1.0	1.0	0	-0.08	blockFiles/set_43/main_safe/leftBlue\GB_LB_3.xlsx
142	main_safe	True	0.0	753	0	5.0	5.0	0.0	1	left	2.0	1.0	1.0	0	-0.08	blockFiles/set_43/main_safe/leftBlue\GB_LB_3.xlsx
143	main_safe	True	0.0	753	0	5.0	5.0	0.0	1	left	2.0	1.0	1.0	0	-0.08	blockFiles/set_43/main_safe/leftBlue\GB_LB_3.xlsx
144	main_safe	True	0.0	753	0	5.0	5.0	0.0	1	left	2.0	0.0	1.0	0	-0.08	blockFiles/set_43/main_safe/leftBlue\GB_LB_3.xlsx
145	main_safe	True	0.0	753	0	5.0	5.0	1.0	1	right	1.0	1.0	1.0	1	0.08	blockFiles/set_43/main_safe/leftBlue\GB_LB_3.xlsx
146	main_safe	True	0.0	753	0	5.0	5.0	1.0	1	right	1.0	0.0	1.0	1	0.08	blockFiles/set_43/main_safe/leftBlue\GB_LB_3.xlsx
147	main_safe	True	0.0	753	0	5.0	5.0	1.0	1	right	1.0	1.0	1.0	1	0.08	blockFiles/set_43/main_safe/leftBlue\GB_LB_3.xlsx
148	main_safe	True	0.0	753	0	5.0	5.0	0.0	1	left	2.0	1.0	1.0	0	-0.08	blockFiles/set_43/main_safe/leftBlue\GB_LB_3.xlsx
149	main_safe	True	0.0	753	0	5.0	5.0	0.0	1	left	2.0	1.0	1.0	0	-0.08	blockFiles/set_43/main_safe/leftBlue\GB_LB_3.xlsx
150	main_safe	True	0.0	753	0	5.0	5.0	1.0	1	right	1.0	1.0	1.0	1	0.08	blockFiles/set_43/main_safe/leftBlue\GB_LB_3.xlsx
151	main_safe	True	0.0	753	0	5.0	5.0	1.0	1	right	1.0	1.0	1.0	1	0.08	blockFiles/set_43/main_safe/leftBlue\GB_LB_3.xlsx
152	main_safe	True	0.0	753	0	5.0	5.0	0.0	1	left	2.0	1.0	1.0	0	-0.08	blockFiles/set_43/main_safe/leftBlue\GB_LB_3.xlsx
153	patches	True	n/a	753	0	n/a	n/a	0.0	1	left	n/a	n/a	n/a	0	-0.0330857860297	blockFiles/set_43/main_PD/GB_runPatches1.xlsx
154	patches	True	n/a	753	0	n/a	n/a	0.0	1	left	n/a	n/a	n/a	0	-0.0455530275591	blockFiles/set_43/main_PD/GB_runPatches1.xlsx
155	patches	True	n/a	753	0	n/a	n/a	0.0	1	left	n/a	n/a	n/a	0	-0.0726404849626	blockFiles/set_43/main_PD/GB_runPatches1.xlsx
156	patches	True	n/a	753	0	n/a	n/a	0.0	1	left	n/a	n/a	n/a	0	-0.028309235014	blockFiles/set_43/main_PD/GB_runPatches1.xlsx
157	patches	True	n/a	753	0	n/a	n/a	0.0	0	left	n/a	n/a	n/a	1	0.023832421954700003	blockFiles/set_43/main_PD/GB_runPatches1.xlsx
158	patches	True	n/a	753	0	n/a	n/a	1.0	1	right	n/a	n/a	n/a	1	0.0596185772121	blockFiles/set_43/main_PD/GB_runPatches1.xlsx
159	patches	True	n/a	753	0	n/a	n/a	0.0	0	left	n/a	n/a	n/a	1	0.0278399680555	blockFiles/set_43/main_PD/GB_runPatches1.xlsx
160	patches	True	n/a	753	0	n/a	n/a	0.0	1	left	n/a	n/a	n/a	0	-0.012234400510799999	blockFiles/set_43/main_PD/GB_runPatches1.xlsx
161	patches	True	n/a	753	0	n/a	n/a	0.0	1	left	n/a	n/a	n/a	0	-0.061627490930300004	blockFiles/set_43/main_PD/GB_runPatches1.xlsx
162	patches	True	n/a	753	0	n/a	n/a	0.0	1	left	n/a	n/a	n/a	0	-0.0110600270145	blockFiles/set_43/main_PD/GB_runPatches1.xlsx
163	patches	True	n/a	753	0	n/a	n/a	0.0	0	left	n/a	n/a	n/a	1	0.0466432856582	blockFiles/set_43/main_PD/GB_runPatches1.xlsx
164	patches	True	n/a	753	0	n/a	n/a	0.0	1	left	n/a	n/a	n/a	0	-0.025235813204200003	blockFiles/set_43/main_PD/GB_runPatches1.xlsx
165	patches	True	n/a	753	0	n/a	n/a	1.0	1	right	n/a	n/a	n/a	1	0.06813581485299999	blockFiles/set_43/main_PD/GB_runPatches1.xlsx
166	patches	True	n/a	753	0	n/a	n/a	0.0	1	left	n/a	n/a	n/a	0	-0.0250931192562	blockFiles/set_43/main_PD/GB_runPatches1.xlsx
167	patches	True	n/a	753	0	n/a	n/a	1.0	0	right	n/a	n/a	n/a	0	-0.013657413497600001	blockFiles/set_43/main_PD/GB_runPatches1.xlsx
168	patches	True	n/a	753	0	n/a	n/a	1.0	1	right	n/a	n/a	n/a	1	0.0644985744357	blockFiles/set_43/main_PD/GB_runPatches1.xlsx
169	patches	True	n/a	753	0	n/a	n/a	1.0	1	right	n/a	n/a	n/a	1	0.0682402706146	blockFiles/set_43/main_PD/GB_runPatches1.xlsx
170	patches	True	n/a	753	0	n/a	n/a	1.0	1	right	n/a	n/a	n/a	1	0.049645304158300006	blockFiles/set_43/main_PD/GB_runPatches1.xlsx
171	patches	True	n/a	753	0	n/a	n/a	n/a	0	None	n/a	n/a	n/a	0	-0.00967264663428	blockFiles/set_43/main_PD/GB_runPatches1.xlsx
172	patches	True	n/a	753	0	n/a	n/a	1.0	1	right	n/a	n/a	n/a	1	0.00056545233354	blockFiles/set_43/main_PD/GB_runPatches1.xlsx
173	patches	True	n/a	753	0	n/a	n/a	1.0	0	right	n/a	n/a	n/a	0	-0.0450570409186	blockFiles/set_43/main_PD/GB_runPatches1.xlsx
174	patches	True	n/a	753	0	n/a	n/a	1.0	1	right	n/a	n/a	n/a	1	0.0484753358178	blockFiles/set_43/main_PD/GB_runPatches1.xlsx
175	patches	True	n/a	753	0	n/a	n/a	0.0	1	left	n/a	n/a	n/a	0	-0.035238774530599995	blockFiles/set_43/main_PD/GB_runPatches1.xlsx
176	patches	True	n/a	753	0	n/a	n/a	0.0	1	left	n/a	n/a	n/a	0	-0.0270505265705	blockFiles/set_43/main_PD/GB_runPatches1.xlsx
177	patches	True	n/a	753	0	n/a	n/a	0.0	1	left	n/a	n/a	n/a	0	-0.054609280061	blockFiles/set_43/main_PD/GB_runPatches1.xlsx
178	patches	True	n/a	753	0	n/a	n/a	0.0	1	left	n/a	n/a	n/a	0	-0.0280360611901	blockFiles/set_43/main_PD/GB_runPatches1.xlsx
179	patches	True	n/a	753	0	n/a	n/a	0.0	0	left	n/a	n/a	n/a	1	0.0101462638192	blockFiles/set_43/main_PD/GB_runPatches1.xlsx
180	patches	True	n/a	753	0	n/a	n/a	0.0	0	left	n/a	n/a	n/a	1	0.026686754785500002	blockFiles/set_43/main_PD/GB_runPatches1.xlsx
181	patches	True	n/a	753	0	n/a	n/a	0.0	1	left	n/a	n/a	n/a	0	-0.0685384255275	blockFiles/set_43/main_PD/GB_runPatches1.xlsx
182	patches	True	n/a	753	0	n/a	n/a	0.0	1	left	n/a	n/a	n/a	0	-0.0494225196354	blockFiles/set_43/main_PD/GB_runPatches1.xlsx
183	patches	True	n/a	753	0	n/a	n/a	0.0	0	left	n/a	n/a	n/a	1	0.04709993740540001	blockFiles/set_43/main_PD/GB_runPatches1.xlsx
184	patches	True	n/a	753	0	n/a	n/a	0.0	0	left	n/a	n/a	n/a	1	0.019213986117400002	blockFiles/set_43/main_PD/GB_runPatches1.xlsx
185	patches	True	n/a	753	0	n/a	n/a	0.0	1	left	n/a	n/a	n/a	0	-0.0159435965866	blockFiles/set_43/main_PD/GB_runPatches1.xlsx
186	patches	True	n/a	753	0	n/a	n/a	0.0	1	left	n/a	n/a	n/a	0	-0.0632077530771	blockFiles/set_43/main_PD/GB_runPatches1.xlsx
187	patches	True	n/a	753	0	n/a	n/a	1.0	1	right	n/a	n/a	n/a	1	0.00285178698599	blockFiles/set_43/main_PD/GB_runPatches1.xlsx
188	patches	True	n/a	753	0	n/a	n/a	1.0	1	right	n/a	n/a	n/a	1	0.044058515876500004	blockFiles/set_43/main_PD/GB_runPatches1.xlsx
189	patches	True	n/a	753	0	n/a	n/a	0.0	1	left	n/a	n/a	n/a	0	-0.043359369654199995	blockFiles/set_43/main_PD/GB_runPatches1.xlsx
190	patches	True	n/a	753	0	n/a	n/a	1.0	1	right	n/a	n/a	n/a	1	0.07571945833039999	blockFiles/set_43/main_PD/GB_runPatches1.xlsx
191	patches	True	n/a	753	0	n/a	n/a	0.0	1	left	n/a	n/a	n/a	0	-0.0548236058466	blockFiles/set_43/main_PD/GB_runPatches1.xlsx
192	patches	True	n/a	753	0	n/a	n/a	1.0	1	right	n/a	n/a	n/a	1	0.0414176872373	blockFiles/set_43/main_PD/GB_runPatches1.xlsx
193	patches	True	n/a	753	0	n/a	n/a	1.0	1	right	n/a	n/a	n/a	1	0.0469209217839	blockFiles/set_43/main_PD/GB_runPatches1.xlsx
194	patches	True	n/a	753	0	n/a	n/a	1.0	0	right	n/a	n/a	n/a	0	-0.029114082753699998	blockFiles/set_43/main_PD/GB_runPatches1.xlsx
195	patches	True	n/a	753	0	n/a	n/a	1.0	1	right	n/a	n/a	n/a	1	0.0518874037825	blockFiles/set_43/main_PD/GB_runPatches1.xlsx
196	patches	True	n/a	753	0	n/a	n/a	1.0	1	right	n/a	n/a	n/a	1	0.051894071325699995	blockFiles/set_43/main_PD/GB_runPatches1.xlsx
197	patches	True	n/a	753	0	n/a	n/a	1.0	0	right	n/a	n/a	n/a	0	-0.018003148865	blockFiles/set_43/main_PD/GB_runPatches1.xlsx
198	patches	True	n/a	753	0	n/a	n/a	1.0	1	right	n/a	n/a	n/a	1	0.057671659104500006	blockFiles/set_43/main_PD/GB_runPatches1.xlsx
199	patches	True	n/a	753	0	n/a	n/a	1.0	1	right	n/a	n/a	n/a	1	0.023881588838999997	blockFiles/set_43/main_PD/GB_runPatches1.xlsx
200	patches	True	n/a	753	0	n/a	n/a	1.0	0	right	n/a	n/a	n/a	0	-0.0395352893136	blockFiles/set_43/main_PD/GB_runPatches1.xlsx
201	patches	True	n/a	753	0	n/a	n/a	1.0	0	right	n/a	n/a	n/a	0	-0.0340514552034	blockFiles/set_43/main_PD/GB_runPatches1.xlsx
202	patches	True	n/a	753	0	n/a	n/a	1.0	1	right	n/a	n/a	n/a	1	0.0676902151853	blockFiles/set_43/main_PD/GB_runPatches1.xlsx
203	patches	True	n/a	753	0	n/a	n/a	0.0	1	left	n/a	n/a	n/a	0	-0.0386908973008	blockFiles/set_43/main_PD/GB_runPatches1.xlsx
204	patches	True	n/a	753	0	n/a	n/a	1.0	1	right	n/a	n/a	n/a	1	0.0670063989982	blockFiles/set_43/main_PD/GB_runPatches1.xlsx
205	patches	True	n/a	753	0	n/a	n/a	0.0	1	left	n/a	n/a	n/a	0	-0.069288931638	blockFiles/set_43/main_PD/GB_runPatches1.xlsx
206	patches	True	n/a	753	0	n/a	n/a	1.0	0	right	n/a	n/a	n/a	0	-0.0296434862353	blockFiles/set_43/main_PD/GB_runPatches1.xlsx
207	patches	True	n/a	753	0	n/a	n/a	1.0	1	right	n/a	n/a	n/a	1	0.0013197662681300002	blockFiles/set_43/main_PD/GB_runPatches1.xlsx
208	patches	True	n/a	753	0	n/a	n/a	0.0	1	left	n/a	n/a	n/a	0	-0.0315391178615	blockFiles/set_43/main_PD/GB_runPatches1.xlsx
209	patches	True	n/a	753	0	n/a	n/a	1.0	1	right	n/a	n/a	n/a	1	0.0676805474237	blockFiles/set_43/main_PD/GB_runPatches1.xlsx
210	patches	True	n/a	753	0	n/a	n/a	1.0	1	right	n/a	n/a	n/a	1	0.035465044360599995	blockFiles/set_43/main_PD/GB_runPatches1.xlsx
211	patches	True	n/a	753	0	n/a	n/a	0.0	1	left	n/a	n/a	n/a	0	-0.056964330673199996	blockFiles/set_43/main_PD/GB_runPatches1.xlsx
212	patches	True	n/a	753	0	n/a	n/a	1.0	0	right	n/a	n/a	n/a	0	-0.00330623108894	blockFiles/set_43/main_PD/GB_runPatches1.xlsx
213	patches	True	n/a	753	0	n/a	n/a	1.0	0	right	n/a	n/a	n/a	0	-0.028930671121900002	blockFiles/set_43/main_PD/GB_runPatches1.xlsx
214	patches	True	n/a	753	0	n/a	n/a	0.0	1	left	n/a	n/a	n/a	0	-0.0319167962857	blockFiles/set_43/main_PD/GB_runPatches1.xlsx
215	patches	True	n/a	753	0	n/a	n/a	1.0	1	right	n/a	n/a	n/a	1	0.027481805123400004	blockFiles/set_43/main_PD/GB_runPatches1.xlsx
216	patches	True	n/a	753	0	n/a	n/a	0.0	1	left	n/a	n/a	n/a	0	-0.0793825270608	blockFiles/set_43/main_PD/GB_runPatches1.xlsx
217	patches	True	n/a	753	0	n/a	n/a	0.0	1	left	n/a	n/a	n/a	0	-0.00521846305579	blockFiles/set_43/main_PD/GB_runPatches1.xlsx
218	patches	True	n/a	753	0	n/a	n/a	1.0	1	right	n/a	n/a	n/a	1	0.0365028871596	blockFiles/set_43/main_PD/GB_runPatches1.xlsx
219	patches	True	n/a	753	0	n/a	n/a	0.0	1	left	n/a	n/a	n/a	0	-0.0558907296136	blockFiles/set_43/main_PD/GB_runPatches1.xlsx
220	patches	True	n/a	753	0	n/a	n/a	0.0	1	left	n/a	n/a	n/a	0	-0.0426464666054	blockFiles/set_43/main_PD/GB_runPatches1.xlsx
221	patches	True	n/a	753	0	n/a	n/a	0.0	0	left	n/a	n/a	n/a	1	0.012306503057500001	blockFiles/set_43/main_PD/GB_runPatches1.xlsx
222	patches	True	n/a	753	0	n/a	n/a	1.0	1	right	n/a	n/a	n/a	1	0.054284031260799996	blockFiles/set_43/main_PD/GB_runPatches1.xlsx
223	patches	True	n/a	753	0	n/a	n/a	1.0	1	right	n/a	n/a	n/a	1	0.0660359379463	blockFiles/set_43/main_PD/GB_runPatches1.xlsx
224	patches	True	n/a	753	0	n/a	n/a	0.0	1	left	n/a	n/a	n/a	0	-0.062073619682300005	blockFiles/set_43/main_PD/GB_runPatches1.xlsx
225	patches	True	n/a	753	0	n/a	n/a	0.0	1	left	n/a	n/a	n/a	0	-0.00614981722087	blockFiles/set_43/main_PD/GB_runPatches1.xlsx
226	patches	True	n/a	753	0	n/a	n/a	1.0	1	right	n/a	n/a	n/a	1	0.0306979006529	blockFiles/set_43/main_PD/GB_runPatches1.xlsx
227	patches	True	n/a	753	0	n/a	n/a	1.0	1	right	n/a	n/a	n/a	1	0.048133371267499996	blockFiles/set_43/main_PD/GB_runPatches1.xlsx
228	patches	True	n/a	753	0	n/a	n/a	1.0	1	right	n/a	n/a	n/a	1	0.014530532285599999	blockFiles/set_43/main_PD/GB_runPatches1.xlsx
229	patches	True	n/a	753	0	n/a	n/a	1.0	1	right	n/a	n/a	n/a	1	0.0013726518116900003	blockFiles/set_43/main_PD/GB_runPatches1.xlsx
230	patches	True	n/a	753	0	n/a	n/a	1.0	1	right	n/a	n/a	n/a	1	0.051210172474400004	blockFiles/set_43/main_PD/GB_runPatches1.xlsx
231	patches	True	n/a	753	0	n/a	n/a	1.0	1	right	n/a	n/a	n/a	1	0.0274271215685	blockFiles/set_43/main_PD/GB_runPatches1.xlsx
232	patches	True	n/a	753	0	n/a	n/a	1.0	1	right	n/a	n/a	n/a	1	0.0625169022568	blockFiles/set_43/main_PD/GB_runPatches1.xlsx
233	patches	True	n/a	753	0	n/a	n/a	1.0	1	right	n/a	n/a	n/a	1	0.0645473465137	blockFiles/set_43/main_PD/GB_runPatches1.xlsx
234	patches	True	n/a	753	0	n/a	n/a	0.0	1	left	n/a	n/a	n/a	0	-0.059984874501800005	blockFiles/set_43/main_PD/GB_runPatches1.xlsx
235	patches	True	n/a	753	0	n/a	n/a	0.0	1	left	n/a	n/a	n/a	0	-0.041046445816800003	blockFiles/set_43/main_PD/GB_runPatches1.xlsx
236	patches	True	n/a	753	0	n/a	n/a	0.0	1	left	n/a	n/a	n/a	0	-0.0661252581701	blockFiles/set_43/main_PD/GB_runPatches1.xlsx
237	patches	True	n/a	753	0	n/a	n/a	1.0	1	right	n/a	n/a	n/a	1	0.0013523231446700003	blockFiles/set_43/main_PD/GB_runPatches1.xlsx
238	patches	True	n/a	753	0	n/a	n/a	1.0	0	right	n/a	n/a	n/a	0	-0.00601669022813	blockFiles/set_43/main_PD/GB_runPatches1.xlsx
239	patches	True	n/a	753	0	n/a	n/a	1.0	1	right	n/a	n/a	n/a	1	0.0171493379027	blockFiles/set_43/main_PD/GB_runPatches1.xlsx
240	patches	True	n/a	753	0	n/a	n/a	0.0	1	left	n/a	n/a	n/a	0	-0.0676444128156	blockFiles/set_43/main_PD/GB_runPatches1.xlsx
241	patches	True	n/a	753	0	n/a	n/a	1.0	1	right	n/a	n/a	n/a	1	0.0632877632976	blockFiles/set_43/main_PD/GB_runPatches1.xlsx
242	patches	True	n/a	753	0	n/a	n/a	1.0	1	right	n/a	n/a	n/a	1	0.00794765634462	blockFiles/set_43/main_PD/GB_runPatches1.xlsx
243	patches	True	n/a	753	0	n/a	n/a	0.0	1	left	n/a	n/a	n/a	0	-0.053042240236	blockFiles/set_43/main_PD/GB_runPatches1.xlsx
244	patches	True	n/a	753	0	n/a	n/a	0.0	1	left	n/a	n/a	n/a	0	-0.055297716390300004	blockFiles/set_43/main_PD/GB_runPatches1.xlsx
245	patches	True	n/a	753	0	n/a	n/a	1.0	1	right	n/a	n/a	n/a	1	0.0009780339524149998	blockFiles/set_43/main_PD/GB_runPatches1.xlsx
246	patches	True	n/a	753	0	n/a	n/a	1.0	0	right	n/a	n/a	n/a	0	-0.0140849437751	blockFiles/set_43/main_PD/GB_runPatches1.xlsx
247	patches	True	n/a	753	0	n/a	n/a	1.0	1	right	n/a	n/a	n/a	1	0.0585753799416	blockFiles/set_43/main_PD/GB_runPatches1.xlsx
248	patches	True	n/a	753	0	n/a	n/a	0.0	1	left	n/a	n/a	n/a	0	-0.0726190149784	blockFiles/set_43/main_PD/GB_runPatches1.xlsx
249	patches	True	n/a	753	0	n/a	n/a	1.0	1	right	n/a	n/a	n/a	1	0.009998311270030001	blockFiles/set_43/main_PD/GB_runPatches1.xlsx
250	patches	True	n/a	753	0	n/a	n/a	0.0	0	left	n/a	n/a	n/a	1	0.021942255348	blockFiles/set_43/main_PD/GB_runPatches1.xlsx
251	patches	True	n/a	753	0	n/a	n/a	1.0	1	right	n/a	n/a	n/a	1	0.06996638681739999	blockFiles/set_43/main_PD/GB_runPatches1.xlsx
252	patches	True	n/a	753	0	n/a	n/a	0.0	1	left	n/a	n/a	n/a	0	-0.005388238616290001	blockFiles/set_43/main_PD/GB_runPatches1.xlsx
253	main_unc	True	0.0	753	0	0.0	0.0	0.0	1	left	2.0	0.0	0.0	0	-0.007150979898869999	blockFiles/set_43/main_unc/rightBlue\GB_RB_4.xlsx
254	main_unc	True	0.0	753	0	0.0	0.0	1.0	1	right	2.0	1.0	1.0	1	0.0365664831921	blockFiles/set_43/main_unc/rightBlue\GB_RB_4.xlsx
255	main_unc	True	0.0	753	0	0.0	0.0	1.0	1	right	2.0	1.0	1.0	1	0.0445517211407	blockFiles/set_43/main_unc/rightBlue\GB_RB_4.xlsx
256	main_unc	True	0.0	753	0	0.0	0.0	1.0	1	right	2.0	0.0	1.0	1	0.0454729672894	blockFiles/set_43/main_unc/rightBlue\GB_RB_4.xlsx
257	main_unc	True	0.0	753	0	0.0	0.0	0.0	1	left	1.0	1.0	1.0	0	-0.044242050983	blockFiles/set_43/main_unc/rightBlue\GB_RB_4.xlsx
258	main_unc	True	0.0	753	0	0.0	0.0	0.0	1	left	1.0	1.0	1.0	0	-0.0224307015724	blockFiles/set_43/main_unc/rightBlue\GB_RB_4.xlsx
259	main_unc	True	0.0	753	0	0.0	0.0	0.0	1	left	2.0	0.0	0.0	0	-0.0145334356837	blockFiles/set_43/main_unc/rightBlue\GB_RB_4.xlsx
260	main_unc	True	0.0	753	0	0.0	0.0	1.0	0	right	2.0	0.0	0.0	0	-0.0290060951933	blockFiles/set_43/main_unc/rightBlue\GB_RB_4.xlsx
261	main_unc	True	0.0	753	0	0.0	0.0	0.0	1	left	1.0	1.0	1.0	0	-0.07505193933839999	blockFiles/set_43/main_unc/rightBlue\GB_RB_4.xlsx
262	main_unc	True	0.0	753	0	0.0	0.0	0.0	1	left	1.0	1.0	1.0	0	-0.00116553099826	blockFiles/set_43/main_unc/rightBlue\GB_RB_4.xlsx
263	main_unc	True	0.0	753	0	0.0	0.0	0.0	1	left	1.0	1.0	1.0	0	-0.045435182694300004	blockFiles/set_43/main_unc/rightBlue\GB_RB_4.xlsx
264	main_unc	True	1.0	753	0	0.0	0.0	0.0	1	left	n/a	0.0	n/a	0	-0.0513223870471	blockFiles/set_43/main_unc/rightBlue\GB_RB_4.xlsx
265	main_unc	True	0.0	753	0	0.0	0.0	0.0	1	left	1.0	0.0	1.0	0	-0.071835241355	blockFiles/set_43/main_unc/rightBlue\GB_RB_4.xlsx
266	main_unc	True	0.0	753	0	0.0	0.0	1.0	1	right	2.0	1.0	1.0	1	0.0155284585059	blockFiles/set_43/main_unc/rightBlue\GB_RB_4.xlsx
267	main_unc	True	0.0	753	0	0.0	0.0	1.0	1	right	2.0	1.0	1.0	1	0.0250996090099	blockFiles/set_43/main_unc/rightBlue\GB_RB_4.xlsx
268	main_unc	True	0.0	753	0	0.0	0.0	1.0	1	right	2.0	1.0	1.0	1	0.033419282902000004	blockFiles/set_43/main_unc/rightBlue\GB_RB_4.xlsx
269	main_unc	True	0.0	753	0	0.0	0.0	1.0	1	right	2.0	1.0	1.0	1	0.07566955072810001	blockFiles/set_43/main_unc/rightBlue\GB_RB_4.xlsx
270	main_unc	True	0.0	753	0	0.0	0.0	0.0	1	left	1.0	1.0	1.0	0	-0.0603954393789	blockFiles/set_43/main_unc/rightBlue\GB_RB_4.xlsx
271	main_unc	True	0.0	753	0	0.0	0.0	1.0	1	right	2.0	1.0	1.0	1	0.0614718865976	blockFiles/set_43/main_unc/rightBlue\GB_RB_4.xlsx
272	main_unc	True	0.0	753	0	0.0	0.0	0.0	1	left	1.0	1.0	1.0	0	-0.04534151045609999	blockFiles/set_43/main_unc/rightBlue\GB_RB_4.xlsx
273	main_unc	True	0.0	753	0	0.0	0.0	1.0	1	right	2.0	0.0	1.0	1	0.011353010106799998	blockFiles/set_43/main_unc/rightBlue\GB_RB_4.xlsx
274	main_unc	True	0.0	753	0	0.0	0.0	0.0	0	left	1.0	0.0	0.0	1	0.0200223085098	blockFiles/set_43/main_unc/rightBlue\GB_RB_4.xlsx
275	main_unc	True	0.0	753	0	0.0	0.0	0.0	1	left	1.0	1.0	1.0	0	-0.0343613583222	blockFiles/set_43/main_unc/rightBlue\GB_RB_4.xlsx
276	main_unc	True	0.0	753	0	0.0	0.0	1.0	1	right	2.0	1.0	1.0	1	0.0659769023769	blockFiles/set_43/main_unc/rightBlue\GB_RB_4.xlsx
277	main_unc	True	0.0	753	0	0.0	0.0	1.0	1	right	2.0	0.0	1.0	1	0.0728725292347	blockFiles/set_43/main_unc/rightBlue\GB_RB_4.xlsx
278	main_unc	True	0.0	753	0	0.0	0.0	0.0	1	left	1.0	1.0	1.0	0	-0.0513223870471	blockFiles/set_43/main_unc/rightBlue\GB_RB_4.xlsx
279	main_unc	True	0.0	753	0	1.0	1.0	0.0	1	left	2.0	0.0	1.0	0	-0.07271440831939999	blockFiles/set_43/main_unc/leftBlue\GB_LB_2.xlsx
280	main_unc	True	1.0	753	0	1.0	1.0	1.0	1	right	n/a	0.0	n/a	1	0.0013072173856199997	blockFiles/set_43/main_unc/leftBlue\GB_LB_2.xlsx
281	main_unc	True	0.0	753	0	1.0	1.0	0.0	1	left	1.0	0.0	0.0	0	-0.0174284617603	blockFiles/set_43/main_unc/leftBlue\GB_LB_2.xlsx
282	main_unc	True	0.0	753	0	1.0	1.0	0.0	1	left	1.0	0.0	0.0	0	-0.0387097250484	blockFiles/set_43/main_unc/leftBlue\GB_LB_2.xlsx
283	main_unc	True	0.0	753	0	1.0	1.0	1.0	1	right	1.0	0.0	1.0	1	0.0506751575693	blockFiles/set_43/main_unc/leftBlue\GB_LB_2.xlsx
284	main_unc	True	0.0	753	0	1.0	1.0	0.0	1	left	1.0	0.0	0.0	0	-0.0338605020195	blockFiles/set_43/main_unc/leftBlue\GB_LB_2.xlsx
285	main_unc	True	0.0	753	0	1.0	1.0	1.0	1	right	2.0	0.0	0.0	1	0.012264517061399999	blockFiles/set_43/main_unc/leftBlue\GB_LB_2.xlsx
286	main_unc	True	0.0	753	0	1.0	1.0	0.0	1	left	2.0	1.0	1.0	0	-0.06318074468519999	blockFiles/set_43/main_unc/leftBlue\GB_LB_2.xlsx
287	main_unc	True	0.0	753	0	1.0	1.0	1.0	1	right	1.0	1.0	1.0	1	0.075828347858	blockFiles/set_43/main_unc/leftBlue\GB_LB_2.xlsx
288	main_unc	True	0.0	753	0	1.0	1.0	1.0	1	right	1.0	1.0	1.0	1	0.0248559845798	blockFiles/set_43/main_unc/leftBlue\GB_LB_2.xlsx
289	main_unc	True	0.0	753	0	1.0	1.0	0.0	1	left	2.0	1.0	1.0	0	-0.0741133735143	blockFiles/set_43/main_unc/leftBlue\GB_LB_2.xlsx
290	main_unc	True	0.0	753	0	1.0	1.0	0.0	1	left	2.0	0.0	1.0	0	-0.0264043303207	blockFiles/set_43/main_unc/leftBlue\GB_LB_2.xlsx
291	main_unc	True	0.0	753	0	1.0	1.0	1.0	1	right	1.0	0.0	1.0	1	0.034622062612300004	blockFiles/set_43/main_unc/leftBlue\GB_LB_2.xlsx
292	main_unc	True	0.0	753	0	1.0	1.0	0.0	0	left	1.0	1.0	1.0	1	0.03914426798	blockFiles/set_43/main_unc/leftBlue\GB_LB_2.xlsx
293	main_unc	True	0.0	753	0	1.0	1.0	1.0	1	right	2.0	0.0	0.0	1	0.0104540558532	blockFiles/set_43/main_unc/leftBlue\GB_LB_2.xlsx
294	main_unc	True	0.0	753	0	1.0	1.0	1.0	1	right	1.0	1.0	1.0	1	0.0676638156362	blockFiles/set_43/main_unc/leftBlue\GB_LB_2.xlsx
295	main_unc	True	0.0	753	0	1.0	1.0	1.0	1	right	1.0	0.0	1.0	1	0.07372450878839999	blockFiles/set_43/main_unc/leftBlue\GB_LB_2.xlsx
296	main_unc	True	0.0	753	0	1.0	1.0	1.0	1	right	1.0	1.0	1.0	1	0.0167707951367	blockFiles/set_43/main_unc/leftBlue\GB_LB_2.xlsx
297	main_unc	True	0.0	753	0	1.0	1.0	1.0	1	right	1.0	1.0	1.0	1	0.0505519604124	blockFiles/set_43/main_unc/leftBlue\GB_LB_2.xlsx
298	main_unc	True	0.0	753	0	1.0	1.0	0.0	1	left	2.0	1.0	1.0	0	-0.017056451551600002	blockFiles/set_43/main_unc/leftBlue\GB_LB_2.xlsx
299	main_unc	True	0.0	753	0	1.0	1.0	0.0	1	left	2.0	1.0	1.0	0	-0.013029282409700001	blockFiles/set_43/main_unc/leftBlue\GB_LB_2.xlsx
300	main_unc	True	0.0	753	0	1.0	1.0	0.0	1	left	2.0	1.0	1.0	0	-0.015676066633299998	blockFiles/set_43/main_unc/leftBlue\GB_LB_2.xlsx
301	main_unc	True	0.0	753	0	1.0	1.0	1.0	1	right	1.0	1.0	1.0	1	0.0289263672382	blockFiles/set_43/main_unc/leftBlue\GB_LB_2.xlsx
302	main_unc	True	0.0	753	0	1.0	1.0	0.0	1	left	2.0	1.0	1.0	0	-0.0755064015277	blockFiles/set_43/main_unc/leftBlue\GB_LB_2.xlsx
303	main_unc	True	0.0	753	0	1.0	1.0	0.0	1	left	2.0	1.0	1.0	0	-0.0239345416054	blockFiles/set_43/main_unc/leftBlue\GB_LB_2.xlsx
304	main_unc	True	0.0	753	0	1.0	1.0	1.0	1	right	1.0	1.0	1.0	1	0.0013072173856199997	blockFiles/set_43/main_unc/leftBlue\GB_LB_2.xlsx
305	main_unc	True	0.0	753	0	2.0	2.0	0.0	0	left	1.0	1.0	1.0	1	0.0058726791478700005	blockFiles/set_43/main_unc/leftBlue\GB_LB_5.xlsx
306	main_unc	True	0.0	753	0	2.0	2.0	0.0	1	left	1.0	0.0	0.0	0	-0.0704711888544	blockFiles/set_43/main_unc/leftBlue\GB_LB_5.xlsx
307	main_unc	True	0.0	753	0	2.0	2.0	0.0	1	left	1.0	0.0	0.0	0	-0.00693015512079	blockFiles/set_43/main_unc/leftBlue\GB_LB_5.xlsx
308	main_unc	True	0.0	753	0	2.0	2.0	0.0	1	left	1.0	0.0	0.0	0	-0.052075578756599995	blockFiles/set_43/main_unc/leftBlue\GB_LB_5.xlsx
309	main_unc	True	0.0	753	0	2.0	2.0	1.0	1	right	1.0	1.0	1.0	1	0.0028464024514000003	blockFiles/set_43/main_unc/leftBlue\GB_LB_5.xlsx
310	main_unc	True	0.0	753	0	2.0	2.0	1.0	1	right	1.0	1.0	1.0	1	0.0539438953996	blockFiles/set_43/main_unc/leftBlue\GB_LB_5.xlsx
311	main_unc	True	0.0	753	0	2.0	2.0	0.0	1	left	2.0	0.0	1.0	0	-0.042871299646800004	blockFiles/set_43/main_unc/leftBlue\GB_LB_5.xlsx
312	main_unc	True	1.0	753	0	2.0	2.0	1.0	1	right	n/a	0.0	n/a	1	0.0432596791536	blockFiles/set_43/main_unc/leftBlue\GB_LB_5.xlsx
313	main_unc	True	0.0	753	0	2.0	2.0	0.0	1	left	2.0	1.0	1.0	0	-0.0185470076837	blockFiles/set_43/main_unc/leftBlue\GB_LB_5.xlsx
314	main_unc	True	0.0	753	0	2.0	2.0	0.0	1	left	2.0	1.0	1.0	0	-0.0506164337136	blockFiles/set_43/main_unc/leftBlue\GB_LB_5.xlsx
315	main_unc	True	0.0	753	0	2.0	2.0	1.0	1	right	1.0	1.0	1.0	1	0.0395992530882	blockFiles/set_43/main_unc/leftBlue\GB_LB_5.xlsx
316	main_unc	True	0.0	753	0	2.0	2.0	1.0	1	right	1.0	1.0	1.0	1	0.0390723700635	blockFiles/set_43/main_unc/leftBlue\GB_LB_5.xlsx
317	main_unc	True	0.0	753	0	2.0	2.0	0.0	1	left	2.0	1.0	1.0	0	-0.052149217259099996	blockFiles/set_43/main_unc/leftBlue\GB_LB_5.xlsx
318	main_unc	True	0.0	753	0	2.0	2.0	1.0	1	right	1.0	0.0	1.0	1	0.052738374620699996	blockFiles/set_43/main_unc/leftBlue\GB_LB_5.xlsx
319	main_unc	True	0.0	753	0	2.0	2.0	1.0	1	right	1.0	1.0	1.0	1	0.0459913741797	blockFiles/set_43/main_unc/leftBlue\GB_LB_5.xlsx
320	main_unc	True	0.0	753	0	2.0	2.0	1.0	1	right	1.0	1.0	1.0	1	0.023115301169500002	blockFiles/set_43/main_unc/leftBlue\GB_LB_5.xlsx
321	main_unc	True	0.0	753	0	2.0	2.0	0.0	1	left	2.0	1.0	1.0	0	-0.0201723731682	blockFiles/set_43/main_unc/leftBlue\GB_LB_5.xlsx
322	main_unc	True	0.0	753	0	2.0	2.0	0.0	1	left	2.0	0.0	1.0	0	-0.0368364123814	blockFiles/set_43/main_unc/leftBlue\GB_LB_5.xlsx
323	main_unc	True	0.0	753	0	2.0	2.0	1.0	1	right	1.0	0.0	1.0	1	0.0582722575404	blockFiles/set_43/main_unc/leftBlue\GB_LB_5.xlsx
324	main_unc	True	0.0	753	0	2.0	2.0	0.0	1	left	2.0	1.0	1.0	0	-0.0444523762539	blockFiles/set_43/main_unc/leftBlue\GB_LB_5.xlsx
325	main_unc	True	0.0	753	0	2.0	2.0	1.0	1	right	1.0	1.0	1.0	1	0.00024502217769599996	blockFiles/set_43/main_unc/leftBlue\GB_LB_5.xlsx
326	main_unc	True	0.0	753	0	2.0	2.0	0.0	1	left	2.0	1.0	1.0	0	-0.023823122866500002	blockFiles/set_43/main_unc/leftBlue\GB_LB_5.xlsx
327	main_unc	True	0.0	753	0	2.0	2.0	0.0	1	left	1.0	0.0	0.0	0	-0.0613008870371	blockFiles/set_43/main_unc/leftBlue\GB_LB_5.xlsx
328	main_unc	True	0.0	753	0	2.0	2.0	1.0	1	right	1.0	1.0	1.0	1	0.0181772855483	blockFiles/set_43/main_unc/leftBlue\GB_LB_5.xlsx
329	main_unc	True	0.0	753	0	2.0	2.0	1.0	1	right	1.0	1.0	1.0	1	0.0762919672392	blockFiles/set_43/main_unc/leftBlue\GB_LB_5.xlsx
330	main_unc	True	0.0	753	0	2.0	2.0	1.0	1	right	1.0	1.0	1.0	1	0.0432596791536	blockFiles/set_43/main_unc/leftBlue\GB_LB_5.xlsx
331	main_unc	True	0.0	753	0	3.0	3.0	0.0	0	left	2.0	1.0	1.0	1	0.00659843703732	blockFiles/set_43/main_unc/rightBlue\GB_RB_1.xlsx
332	main_unc	True	0.0	753	0	3.0	3.0	1.0	1	right	1.0	0.0	0.0	1	0.05948955817149999	blockFiles/set_43/main_unc/rightBlue\GB_RB_1.xlsx
333	main_unc	True	0.0	753	0	3.0	3.0	0.0	1	left	2.0	1.0	0.0	0	-0.0684711506031	blockFiles/set_43/main_unc/rightBlue\GB_RB_1.xlsx
334	main_unc	True	0.0	753	0	3.0	3.0	1.0	1	right	1.0	1.0	0.0	1	0.0341702759825	blockFiles/set_43/main_unc/rightBlue\GB_RB_1.xlsx
335	main_unc	True	0.0	753	0	3.0	3.0	0.0	1	left	2.0	0.0	0.0	0	-0.05900697117669999	blockFiles/set_43/main_unc/rightBlue\GB_RB_1.xlsx
336	main_unc	True	0.0	753	0	3.0	3.0	1.0	1	right	1.0	0.0	0.0	1	0.048904571272400006	blockFiles/set_43/main_unc/rightBlue\GB_RB_1.xlsx
337	main_unc	True	0.0	753	0	3.0	3.0	0.0	1	left	2.0	0.0	0.0	0	-0.051433455571499996	blockFiles/set_43/main_unc/rightBlue\GB_RB_1.xlsx
338	main_unc	True	0.0	753	0	3.0	3.0	1.0	1	right	1.0	0.0	0.0	1	0.0197442605719	blockFiles/set_43/main_unc/rightBlue\GB_RB_1.xlsx
339	main_unc	True	0.0	753	0	3.0	3.0	0.0	1	left	1.0	1.0	1.0	0	-0.022412856202599998	blockFiles/set_43/main_unc/rightBlue\GB_RB_1.xlsx
340	main_unc	True	0.0	753	0	3.0	3.0	1.0	1	right	2.0	1.0	1.0	1	0.0309528877027	blockFiles/set_43/main_unc/rightBlue\GB_RB_1.xlsx
341	main_unc	True	0.0	753	0	3.0	3.0	0.0	1	left	1.0	0.0	1.0	0	-0.0509646250308	blockFiles/set_43/main_unc/rightBlue\GB_RB_1.xlsx
342	main_unc	True	0.0	753	0	3.0	3.0	1.0	1	right	1.0	0.0	0.0	1	0.0465008760802	blockFiles/set_43/main_unc/rightBlue\GB_RB_1.xlsx
343	main_unc	True	0.0	753	0	3.0	3.0	0.0	1	left	1.0	1.0	1.0	0	-0.028624268584	blockFiles/set_43/main_unc/rightBlue\GB_RB_1.xlsx
344	main_unc	True	0.0	753	0	3.0	3.0	0.0	1	left	1.0	1.0	1.0	0	-0.0450886312127	blockFiles/set_43/main_unc/rightBlue\GB_RB_1.xlsx
345	main_unc	True	0.0	753	0	3.0	3.0	0.0	0	left	1.0	0.0	0.0	1	0.00843096818775	blockFiles/set_43/main_unc/rightBlue\GB_RB_1.xlsx
346	main_unc	True	1.0	753	0	3.0	3.0	n/a	0	None	n/a	0.0	n/a	0	-0.0239270721748	blockFiles/set_43/main_unc/rightBlue\GB_RB_1.xlsx
347	main_unc	True	0.0	753	0	3.0	3.0	1.0	1	right	2.0	1.0	1.0	1	0.030870560239999997	blockFiles/set_43/main_unc/rightBlue\GB_RB_1.xlsx
348	main_unc	True	0.0	753	0	3.0	3.0	1.0	1	right	2.0	0.0	1.0	1	0.021881253738	blockFiles/set_43/main_unc/rightBlue\GB_RB_1.xlsx
349	main_unc	True	0.0	753	0	3.0	3.0	0.0	1	left	1.0	1.0	1.0	0	-0.07840322684500001	blockFiles/set_43/main_unc/rightBlue\GB_RB_1.xlsx
350	main_unc	True	0.0	753	0	3.0	3.0	0.0	1	left	1.0	1.0	1.0	0	-0.0615542051382	blockFiles/set_43/main_unc/rightBlue\GB_RB_1.xlsx
351	main_unc	True	0.0	753	0	3.0	3.0	1.0	1	right	1.0	0.0	0.0	1	0.035974746700400004	blockFiles/set_43/main_unc/rightBlue\GB_RB_1.xlsx
352	main_unc	True	0.0	753	0	3.0	3.0	1.0	0	right	1.0	0.0	1.0	0	-4.92154434323e-05	blockFiles/set_43/main_unc/rightBlue\GB_RB_1.xlsx
353	main_unc	True	0.0	753	0	3.0	3.0	1.0	1	right	2.0	1.0	1.0	1	0.0442748092301	blockFiles/set_43/main_unc/rightBlue\GB_RB_1.xlsx
354	main_unc	True	0.0	753	0	3.0	3.0	0.0	0	left	1.0	1.0	0.0	1	0.032782546673	blockFiles/set_43/main_unc/rightBlue\GB_RB_1.xlsx
355	main_unc	True	1.0	753	0	3.0	3.0	n/a	0	None	n/a	0.0	n/a	0	-0.0054193206504	blockFiles/set_43/main_unc/rightBlue\GB_RB_1.xlsx
356	main_unc	True	0.0	753	0	3.0	3.0	1.0	0	right	2.0	0.0	0.0	0	-0.0239270721748	blockFiles/set_43/main_unc/rightBlue\GB_RB_1.xlsx
357	main_unc	True	0.0	753	0	3.0	3.0	0.0	1	left	1.0	1.0	1.0	0	-0.0054193206504	blockFiles/set_43/main_unc/rightBlue\GB_RB_1.xlsx
358	main_unc	True	0.0	753	0	4.0	4.0	1.0	1	right	2.0	1.0	1.0	1	0.0619689832255	blockFiles/set_43/main_unc/rightBlue\GB_RB_2.xlsx
359	main_unc	True	0.0	753	0	4.0	4.0	0.0	0	left	1.0	0.0	0.0	1	0.0031061411835300004	blockFiles/set_43/main_unc/rightBlue\GB_RB_2.xlsx
360	main_unc	True	0.0	753	0	4.0	4.0	1.0	1	right	2.0	1.0	1.0	1	0.0451938157529	blockFiles/set_43/main_unc/rightBlue\GB_RB_2.xlsx
361	main_unc	True	0.0	753	0	4.0	4.0	1.0	1	right	2.0	1.0	1.0	1	0.0635763802752	blockFiles/set_43/main_unc/rightBlue\GB_RB_2.xlsx
362	main_unc	True	0.0	753	0	4.0	4.0	0.0	1	left	1.0	1.0	1.0	0	-0.00406879916787	blockFiles/set_43/main_unc/rightBlue\GB_RB_2.xlsx
363	main_unc	True	0.0	753	0	4.0	4.0	0.0	1	left	1.0	1.0	1.0	0	-0.042155744060899995	blockFiles/set_43/main_unc/rightBlue\GB_RB_2.xlsx
364	main_unc	True	0.0	753	0	4.0	4.0	1.0	1	right	2.0	1.0	1.0	1	0.0638964328356	blockFiles/set_43/main_unc/rightBlue\GB_RB_2.xlsx
365	main_unc	True	0.0	753	0	4.0	4.0	0.0	1	left	1.0	0.0	1.0	0	-0.00366908982396	blockFiles/set_43/main_unc/rightBlue\GB_RB_2.xlsx
366	main_unc	True	0.0	753	0	4.0	4.0	1.0	1	right	2.0	1.0	1.0	1	0.0346214289591	blockFiles/set_43/main_unc/rightBlue\GB_RB_2.xlsx
367	main_unc	True	0.0	753	0	4.0	4.0	0.0	1	left	1.0	1.0	1.0	0	-0.0406023657508	blockFiles/set_43/main_unc/rightBlue\GB_RB_2.xlsx
368	main_unc	True	0.0	753	0	4.0	4.0	1.0	1	right	2.0	1.0	1.0	1	0.058258032538	blockFiles/set_43/main_unc/rightBlue\GB_RB_2.xlsx
369	main_unc	True	0.0	753	0	4.0	4.0	0.0	1	left	1.0	1.0	1.0	0	-0.06576251477	blockFiles/set_43/main_unc/rightBlue\GB_RB_2.xlsx
370	main_unc	True	0.0	753	0	4.0	4.0	1.0	1	right	2.0	1.0	1.0	1	0.0215325574577	blockFiles/set_43/main_unc/rightBlue\GB_RB_2.xlsx
371	main_unc	True	0.0	753	0	4.0	4.0	0.0	1	left	1.0	1.0	1.0	0	-0.005196474641560001	blockFiles/set_43/main_unc/rightBlue\GB_RB_2.xlsx
372	main_unc	True	0.0	753	0	4.0	4.0	1.0	1	right	2.0	0.0	1.0	1	0.0731145881861	blockFiles/set_43/main_unc/rightBlue\GB_RB_2.xlsx
373	main_unc	True	0.0	753	0	4.0	4.0	1.0	1	right	1.0	0.0	0.0	1	0.0473961289786	blockFiles/set_43/main_unc/rightBlue\GB_RB_2.xlsx
374	main_unc	True	0.0	753	0	4.0	4.0	1.0	1	right	2.0	1.0	1.0	1	0.06751041134819999	blockFiles/set_43/main_unc/rightBlue\GB_RB_2.xlsx
375	main_unc	True	0.0	753	0	4.0	4.0	0.0	1	left	1.0	1.0	1.0	0	-0.041077554039699996	blockFiles/set_43/main_unc/rightBlue\GB_RB_2.xlsx
376	main_unc	True	0.0	753	0	4.0	4.0	0.0	1	left	1.0	1.0	1.0	0	-0.0249191376567	blockFiles/set_43/main_unc/rightBlue\GB_RB_2.xlsx
377	main_unc	True	0.0	753	0	4.0	4.0	1.0	1	right	2.0	1.0	1.0	1	0.0164926084317	blockFiles/set_43/main_unc/rightBlue\GB_RB_2.xlsx
378	main_unc	True	0.0	753	0	4.0	4.0	0.0	1	left	1.0	0.0	1.0	0	-0.055858445409699996	blockFiles/set_43/main_unc/rightBlue\GB_RB_2.xlsx
379	main_unc	True	0.0	753	0	4.0	4.0	1.0	1	right	2.0	0.0	1.0	1	0.00973980950192	blockFiles/set_43/main_unc/rightBlue\GB_RB_2.xlsx
380	main_unc	True	0.0	753	0	4.0	4.0	0.0	1	left	2.0	0.0	0.0	0	-0.04973647400740001	blockFiles/set_43/main_unc/rightBlue\GB_RB_2.xlsx
381	main_unc	True	0.0	753	0	4.0	4.0	1.0	1	right	2.0	1.0	1.0	1	0.0662075946853	blockFiles/set_43/main_unc/rightBlue\GB_RB_2.xlsx
382	main_unc	True	0.0	753	0	4.0	4.0	0.0	1	left	1.0	1.0	1.0	0	-0.0014496030286	blockFiles/set_43/main_unc/rightBlue\GB_RB_2.xlsx
383	main_unc	True	0.0	753	0	5.0	5.0	0.0	1	left	1.0	1.0	1.0	0	-0.014399097710799998	blockFiles/set_43/main_unc/rightBlue\GB_RB_3.xlsx
384	main_unc	True	0.0	753	0	5.0	5.0	0.0	1	left	1.0	0.0	1.0	0	-0.0339700003713	blockFiles/set_43/main_unc/rightBlue\GB_RB_3.xlsx
385	main_unc	True	0.0	753	0	5.0	5.0	0.0	1	left	1.0	1.0	1.0	0	-0.0686715496145	blockFiles/set_43/main_unc/rightBlue\GB_RB_3.xlsx
386	main_unc	True	0.0	753	0	5.0	5.0	0.0	1	left	1.0	0.0	1.0	0	-0.005848910696800001	blockFiles/set_43/main_unc/rightBlue\GB_RB_3.xlsx
387	main_unc	True	0.0	753	0	5.0	5.0	1.0	1	right	2.0	0.0	1.0	1	0.0021935004182199996	blockFiles/set_43/main_unc/rightBlue\GB_RB_3.xlsx
388	main_unc	True	0.0	753	0	5.0	5.0	1.0	1	right	1.0	0.0	0.0	1	0.0784815960377	blockFiles/set_43/main_unc/rightBlue\GB_RB_3.xlsx
389	main_unc	True	0.0	753	0	5.0	5.0	0.0	0	left	2.0	1.0	1.0	1	0.05074662348259999	blockFiles/set_43/main_unc/rightBlue\GB_RB_3.xlsx
390	main_unc	True	0.0	753	0	5.0	5.0	1.0	1	right	1.0	0.0	0.0	1	0.0745585244335	blockFiles/set_43/main_unc/rightBlue\GB_RB_3.xlsx
391	main_unc	True	0.0	753	0	5.0	5.0	1.0	1	right	2.0	1.0	1.0	1	0.0207061021589	blockFiles/set_43/main_unc/rightBlue\GB_RB_3.xlsx
392	main_unc	True	0.0	753	0	5.0	5.0	0.0	1	left	1.0	1.0	1.0	0	-0.0388830347545	blockFiles/set_43/main_unc/rightBlue\GB_RB_3.xlsx
393	main_unc	True	0.0	753	0	5.0	5.0	0.0	1	left	1.0	1.0	1.0	0	-0.030401994250699997	blockFiles/set_43/main_unc/rightBlue\GB_RB_3.xlsx
394	main_unc	True	0.0	753	0	5.0	5.0	0.0	1	left	1.0	1.0	1.0	0	-0.029377275351400004	blockFiles/set_43/main_unc/rightBlue\GB_RB_3.xlsx
395	main_unc	True	0.0	753	0	5.0	5.0	0.0	1	left	1.0	1.0	1.0	0	-0.0316093863919	blockFiles/set_43/main_unc/rightBlue\GB_RB_3.xlsx
396	main_unc	True	0.0	753	0	5.0	5.0	1.0	1	right	2.0	1.0	1.0	1	0.0682746593282	blockFiles/set_43/main_unc/rightBlue\GB_RB_3.xlsx
397	main_unc	True	0.0	753	0	5.0	5.0	1.0	1	right	2.0	0.0	1.0	1	0.062393010798800004	blockFiles/set_43/main_unc/rightBlue\GB_RB_3.xlsx
398	main_unc	True	0.0	753	0	5.0	5.0	0.0	1	left	1.0	1.0	1.0	0	-0.054946185071	blockFiles/set_43/main_unc/rightBlue\GB_RB_3.xlsx
399	main_unc	True	0.0	753	0	5.0	5.0	1.0	1	right	2.0	0.0	1.0	1	0.049467101898	blockFiles/set_43/main_unc/rightBlue\GB_RB_3.xlsx
400	main_unc	True	0.0	753	0	5.0	5.0	0.0	1	left	1.0	1.0	1.0	0	-0.0028707465715700005	blockFiles/set_43/main_unc/rightBlue\GB_RB_3.xlsx
401	main_unc	True	0.0	753	0	5.0	5.0	1.0	1	right	2.0	1.0	1.0	1	0.0644765697047	blockFiles/set_43/main_unc/rightBlue\GB_RB_3.xlsx
402	main_unc	True	0.0	753	0	5.0	5.0	0.0	1	left	1.0	1.0	1.0	0	-0.00520482400432	blockFiles/set_43/main_unc/rightBlue\GB_RB_3.xlsx
403	main_unc	True	0.0	753	0	5.0	5.0	0.0	1	left	1.0	1.0	1.0	0	-0.0195913481712	blockFiles/set_43/main_unc/rightBlue\GB_RB_3.xlsx
404	main_unc	True	0.0	753	0	5.0	5.0	1.0	1	right	2.0	1.0	1.0	1	0.029177296049900003	blockFiles/set_43/main_unc/rightBlue\GB_RB_3.xlsx
405	main_unc	True	0.0	753	0	5.0	5.0	1.0	1	right	2.0	1.0	1.0	1	0.0433185498044	blockFiles/set_43/main_unc/rightBlue\GB_RB_3.xlsx
406	main_unc	True	0.0	753	0	5.0	5.0	0.0	1	left	1.0	1.0	1.0	0	-0.031490510404099996	blockFiles/set_43/main_unc/rightBlue\GB_RB_3.xlsx
407	main_unc	True	0.0	753	0	5.0	5.0	1.0	1	right	1.0	1.0	0.0	1	0.060509922914199994	blockFiles/set_43/main_unc/rightBlue\GB_RB_3.xlsx
408	main_unc	True	0.0	753	0	6.0	6.0	0.0	1	left	2.0	1.0	1.0	0	-0.0236671556532	blockFiles/set_43/main_unc/leftBlue\GB_LB_6.xlsx
409	main_unc	True	0.0	753	0	6.0	6.0	1.0	1	right	1.0	1.0	1.0	1	0.0343697974645	blockFiles/set_43/main_unc/leftBlue\GB_LB_6.xlsx
410	main_unc	True	0.0	753	0	6.0	6.0	1.0	1	right	1.0	1.0	1.0	1	0.043349975422	blockFiles/set_43/main_unc/leftBlue\GB_LB_6.xlsx
411	main_unc	True	0.0	753	0	6.0	6.0	1.0	1	right	1.0	1.0	1.0	1	0.0768934312277	blockFiles/set_43/main_unc/leftBlue\GB_LB_6.xlsx
412	main_unc	True	0.0	753	0	6.0	6.0	1.0	1	right	2.0	0.0	0.0	1	0.013277571369	blockFiles/set_43/main_unc/leftBlue\GB_LB_6.xlsx
413	main_unc	True	0.0	753	0	6.0	6.0	0.0	1	left	2.0	1.0	1.0	0	-0.07820122884589999	blockFiles/set_43/main_unc/leftBlue\GB_LB_6.xlsx
414	main_unc	True	0.0	753	0	6.0	6.0	0.0	1	left	2.0	1.0	1.0	0	-0.0022900136187699997	blockFiles/set_43/main_unc/leftBlue\GB_LB_6.xlsx
415	main_unc	True	0.0	753	0	6.0	6.0	1.0	1	right	1.0	0.0	1.0	1	0.061657504327600005	blockFiles/set_43/main_unc/leftBlue\GB_LB_6.xlsx
416	main_unc	True	0.0	753	0	6.0	6.0	0.0	1	left	2.0	1.0	1.0	0	-0.00885273793712	blockFiles/set_43/main_unc/leftBlue\GB_LB_6.xlsx
417	main_unc	True	0.0	753	0	6.0	6.0	0.0	1	left	2.0	0.0	1.0	0	-0.0434311105311	blockFiles/set_43/main_unc/leftBlue\GB_LB_6.xlsx
418	main_unc	True	0.0	753	0	6.0	6.0	1.0	1	right	1.0	1.0	1.0	1	0.0236659271643	blockFiles/set_43/main_unc/leftBlue\GB_LB_6.xlsx
419	main_unc	True	0.0	753	0	6.0	6.0	1.0	1	right	1.0	1.0	1.0	1	0.0540912280604	blockFiles/set_43/main_unc/leftBlue\GB_LB_6.xlsx
420	main_unc	True	0.0	753	0	6.0	6.0	0.0	1	left	2.0	0.0	1.0	0	-0.047892795633500004	blockFiles/set_43/main_unc/leftBlue\GB_LB_6.xlsx
421	main_unc	True	0.0	753	0	6.0	6.0	0.0	1	left	2.0	1.0	1.0	0	-0.0130328834243	blockFiles/set_43/main_unc/leftBlue\GB_LB_6.xlsx
422	main_unc	True	0.0	753	0	6.0	6.0	1.0	1	right	1.0	1.0	1.0	1	0.056528720967499994	blockFiles/set_43/main_unc/leftBlue\GB_LB_6.xlsx
423	main_unc	True	0.0	753	0	6.0	6.0	1.0	1	right	1.0	1.0	1.0	1	0.061144459974	blockFiles/set_43/main_unc/leftBlue\GB_LB_6.xlsx
424	main_unc	True	0.0	753	0	6.0	6.0	0.0	1	left	2.0	1.0	1.0	0	-0.0139851081744	blockFiles/set_43/main_unc/leftBlue\GB_LB_6.xlsx
425	main_unc	True	0.0	753	0	6.0	6.0	0.0	1	left	2.0	1.0	1.0	0	-0.0321328089759	blockFiles/set_43/main_unc/leftBlue\GB_LB_6.xlsx
426	main_unc	True	0.0	753	0	6.0	6.0	1.0	1	right	1.0	1.0	1.0	1	0.00833855779842	blockFiles/set_43/main_unc/leftBlue\GB_LB_6.xlsx
427	main_unc	True	0.0	753	0	6.0	6.0	0.0	1	left	2.0	1.0	1.0	0	-0.0663212816231	blockFiles/set_43/main_unc/leftBlue\GB_LB_6.xlsx
428	main_unc	True	0.0	753	0	6.0	6.0	0.0	1	left	2.0	0.0	1.0	0	-0.07967634769160001	blockFiles/set_43/main_unc/leftBlue\GB_LB_6.xlsx
429	main_unc	True	0.0	753	0	6.0	6.0	1.0	1	right	1.0	0.0	1.0	1	0.0028266754932699998	blockFiles/set_43/main_unc/leftBlue\GB_LB_6.xlsx
430	main_unc	True	0.0	753	0	6.0	6.0	0.0	1	left	2.0	1.0	1.0	0	-0.03482507715	blockFiles/set_43/main_unc/leftBlue\GB_LB_6.xlsx
431	main_unc	True	0.0	753	0	6.0	6.0	0.0	1	left	2.0	1.0	1.0	0	-0.0400196273811	blockFiles/set_43/main_unc/leftBlue\GB_LB_6.xlsx
432	main_unc	True	0.0	753	0	6.0	6.0	1.0	1	right	1.0	1.0	1.0	1	0.0716303897649	blockFiles/set_43/main_unc/leftBlue\GB_LB_6.xlsx
433	main_unc	True	0.0	753	0	7.0	7.0	0.0	1	left	2.0	1.0	1.0	0	-0.0741568126902	blockFiles/set_43/main_unc/leftBlue\GB_LB_3.xlsx
434	main_unc	True	0.0	753	0	7.0	7.0	0.0	1	left	2.0	1.0	1.0	0	-0.029233953654800002	blockFiles/set_43/main_unc/leftBlue\GB_LB_3.xlsx
435	main_unc	True	0.0	753	0	7.0	7.0	1.0	1	right	1.0	0.0	1.0	1	0.0127435267344	blockFiles/set_43/main_unc/leftBlue\GB_LB_3.xlsx
436	main_unc	True	0.0	753	0	7.0	7.0	0.0	1	left	2.0	0.0	1.0	0	-0.0514145325497	blockFiles/set_43/main_unc/leftBlue\GB_LB_3.xlsx
437	main_unc	True	0.0	753	0	7.0	7.0	0.0	1	left	2.0	1.0	1.0	0	-0.010366208814100001	blockFiles/set_43/main_unc/leftBlue\GB_LB_3.xlsx
438	main_unc	True	0.0	753	0	7.0	7.0	0.0	0	left	2.0	1.0	0.0	1	0.00390896376222	blockFiles/set_43/main_unc/leftBlue\GB_LB_3.xlsx
439	main_unc	True	0.0	753	0	7.0	7.0	0.0	1	left	1.0	0.0	0.0	0	-0.0410227028653	blockFiles/set_43/main_unc/leftBlue\GB_LB_3.xlsx
440	main_unc	True	0.0	753	0	7.0	7.0	1.0	1	right	1.0	1.0	1.0	1	0.0538053194992	blockFiles/set_43/main_unc/leftBlue\GB_LB_3.xlsx
441	main_unc	True	0.0	753	0	7.0	7.0	1.0	1	right	2.0	0.0	0.0	1	0.0641670432687	blockFiles/set_43/main_unc/leftBlue\GB_LB_3.xlsx
442	main_unc	True	0.0	753	0	7.0	7.0	0.0	1	left	2.0	1.0	1.0	0	-0.069589635022	blockFiles/set_43/main_unc/leftBlue\GB_LB_3.xlsx
443	main_unc	True	1.0	753	0	7.0	7.0	n/a	0	None	n/a	0.0	n/a	0	-0.00893067393452	blockFiles/set_43/main_unc/leftBlue\GB_LB_3.xlsx
444	main_unc	True	0.0	753	0	7.0	7.0	1.0	1	right	1.0	1.0	1.0	1	0.06691353483130001	blockFiles/set_43/main_unc/leftBlue\GB_LB_3.xlsx
445	main_unc	True	0.0	753	0	7.0	7.0	1.0	0	right	1.0	0.0	0.0	0	-0.00678576597944	blockFiles/set_43/main_unc/leftBlue\GB_LB_3.xlsx
446	main_unc	True	1.0	753	0	7.0	7.0	n/a	0	None	n/a	0.0	n/a	0	-0.015928769111600002	blockFiles/set_43/main_unc/leftBlue\GB_LB_3.xlsx
447	main_unc	True	0.0	753	0	7.0	7.0	1.0	1	right	1.0	1.0	1.0	1	0.0788152486458	blockFiles/set_43/main_unc/leftBlue\GB_LB_3.xlsx
448	main_unc	True	0.0	753	0	7.0	7.0	0.0	1	left	2.0	0.0	1.0	0	-0.077883752007	blockFiles/set_43/main_unc/leftBlue\GB_LB_3.xlsx
449	main_unc	True	0.0	753	0	7.0	7.0	0.0	1	left	1.0	0.0	0.0	0	-0.0350465255976	blockFiles/set_43/main_unc/leftBlue\GB_LB_3.xlsx
450	main_unc	True	0.0	753	0	7.0	7.0	1.0	0	right	2.0	1.0	1.0	0	-0.013962610811	blockFiles/set_43/main_unc/leftBlue\GB_LB_3.xlsx
451	main_unc	True	0.0	753	0	7.0	7.0	1.0	1	right	1.0	1.0	1.0	1	0.0360399646685	blockFiles/set_43/main_unc/leftBlue\GB_LB_3.xlsx
452	main_unc	True	0.0	753	0	7.0	7.0	1.0	1	right	1.0	1.0	1.0	1	0.0377320680581	blockFiles/set_43/main_unc/leftBlue\GB_LB_3.xlsx
453	main_unc	True	1.0	753	0	7.0	7.0	0.0	1	left	n/a	0.0	n/a	0	-0.036709971204400005	blockFiles/set_43/main_unc/leftBlue\GB_LB_3.xlsx
454	main_unc	True	0.0	753	0	7.0	7.0	1.0	1	right	1.0	1.0	1.0	1	0.06890022397039999	blockFiles/set_43/main_unc/leftBlue\GB_LB_3.xlsx
455	main_unc	True	0.0	753	0	7.0	7.0	1.0	1	right	1.0	1.0	1.0	1	0.016746792979500002	blockFiles/set_43/main_unc/leftBlue\GB_LB_3.xlsx
456	main_unc	True	0.0	753	0	7.0	7.0	1.0	1	right	1.0	1.0	1.0	1	0.0197605041414	blockFiles/set_43/main_unc/leftBlue\GB_LB_3.xlsx
457	main_unc	True	0.0	753	0	7.0	7.0	0.0	0	left	2.0	0.0	0.0	1	0.0296392331459	blockFiles/set_43/main_unc/leftBlue\GB_LB_3.xlsx
458	main_unc	True	0.0	753	0	7.0	7.0	0.0	1	left	2.0	1.0	1.0	0	-0.00893067393452	blockFiles/set_43/main_unc/leftBlue\GB_LB_3.xlsx
459	main_unc	True	0.0	753	0	7.0	7.0	0.0	1	left	2.0	1.0	1.0	0	-0.015928769111600002	blockFiles/set_43/main_unc/leftBlue\GB_LB_3.xlsx
460	main_unc	True	0.0	753	0	7.0	7.0	0.0	1	left	2.0	1.0	1.0	0	-0.036709971204400005	blockFiles/set_43/main_unc/leftBlue\GB_LB_3.xlsx
461	main_unc	True	0.0	753	0	8.0	8.0	1.0	1	right	1.0	1.0	0.0	1	0.0578040484153	blockFiles/set_43/main_unc/rightBlue\GB_RB_6.xlsx
462	main_unc	True	0.0	753	0	8.0	8.0	1.0	1	right	1.0	0.0	0.0	1	0.025279656685900005	blockFiles/set_43/main_unc/rightBlue\GB_RB_6.xlsx
463	main_unc	True	0.0	753	0	8.0	8.0	1.0	1	right	1.0	0.0	0.0	1	0.0129751122557	blockFiles/set_43/main_unc/rightBlue\GB_RB_6.xlsx
464	main_unc	True	0.0	753	0	8.0	8.0	0.0	1	left	1.0	1.0	1.0	0	-0.026465116348099997	blockFiles/set_43/main_unc/rightBlue\GB_RB_6.xlsx
465	main_unc	True	0.0	753	0	8.0	8.0	1.0	1	right	1.0	1.0	0.0	1	0.0499040800519	blockFiles/set_43/main_unc/rightBlue\GB_RB_6.xlsx
466	main_unc	True	0.0	753	0	8.0	8.0	0.0	1	left	1.0	1.0	1.0	0	-0.07621979665010001	blockFiles/set_43/main_unc/rightBlue\GB_RB_6.xlsx
467	main_unc	True	0.0	753	0	8.0	8.0	1.0	0	right	1.0	1.0	1.0	0	-0.0170310514607	blockFiles/set_43/main_unc/rightBlue\GB_RB_6.xlsx
468	main_unc	True	0.0	753	0	8.0	8.0	0.0	1	left	1.0	1.0	1.0	0	-0.0724524323829	blockFiles/set_43/main_unc/rightBlue\GB_RB_6.xlsx
469	main_unc	True	0.0	753	0	8.0	8.0	0.0	1	left	2.0	1.0	0.0	0	-0.0155166730843	blockFiles/set_43/main_unc/rightBlue\GB_RB_6.xlsx
470	main_unc	True	0.0	753	0	8.0	8.0	0.0	1	left	2.0	0.0	0.0	0	-0.00025219919159999996	blockFiles/set_43/main_unc/rightBlue\GB_RB_6.xlsx
471	main_unc	True	0.0	753	0	8.0	8.0	0.0	1	left	2.0	0.0	0.0	0	-0.0580612050928	blockFiles/set_43/main_unc/rightBlue\GB_RB_6.xlsx
472	main_unc	True	0.0	753	0	8.0	8.0	1.0	1	right	1.0	1.0	0.0	1	0.050223009493199994	blockFiles/set_43/main_unc/rightBlue\GB_RB_6.xlsx
473	main_unc	True	0.0	753	0	8.0	8.0	1.0	1	right	1.0	0.0	0.0	1	0.0709920563549	blockFiles/set_43/main_unc/rightBlue\GB_RB_6.xlsx
474	main_unc	True	0.0	753	0	8.0	8.0	1.0	1	right	1.0	0.0	0.0	1	0.042788021657600005	blockFiles/set_43/main_unc/rightBlue\GB_RB_6.xlsx
475	main_unc	True	0.0	753	0	8.0	8.0	0.0	1	left	1.0	1.0	1.0	0	-0.0733263946138	blockFiles/set_43/main_unc/rightBlue\GB_RB_6.xlsx
476	main_unc	True	0.0	753	0	8.0	8.0	0.0	1	left	2.0	0.0	0.0	0	-0.0218284345232	blockFiles/set_43/main_unc/rightBlue\GB_RB_6.xlsx
477	main_unc	True	0.0	753	0	8.0	8.0	0.0	1	left	1.0	0.0	1.0	0	-0.023608114290999998	blockFiles/set_43/main_unc/rightBlue\GB_RB_6.xlsx
478	main_unc	True	0.0	753	0	8.0	8.0	0.0	1	left	1.0	1.0	1.0	0	-0.00865393035114	blockFiles/set_43/main_unc/rightBlue\GB_RB_6.xlsx
479	main_unc	True	0.0	753	0	8.0	8.0	1.0	1	right	2.0	1.0	1.0	1	0.0284353297018	blockFiles/set_43/main_unc/rightBlue\GB_RB_6.xlsx
480	main_unc	True	0.0	753	0	8.0	8.0	1.0	1	right	2.0	1.0	1.0	1	0.0739793192595	blockFiles/set_43/main_unc/rightBlue\GB_RB_6.xlsx
481	main_unc	True	0.0	753	0	8.0	8.0	1.0	1	right	1.0	0.0	0.0	1	0.054680368565	blockFiles/set_43/main_unc/rightBlue\GB_RB_6.xlsx
482	main_unc	True	0.0	753	0	8.0	8.0	1.0	1	right	2.0	1.0	1.0	1	0.0419206086546	blockFiles/set_43/main_unc/rightBlue\GB_RB_6.xlsx
483	main_unc	True	0.0	753	0	8.0	8.0	1.0	1	right	2.0	1.0	1.0	1	0.00762675177306	blockFiles/set_43/main_unc/rightBlue\GB_RB_6.xlsx
484	main_unc	True	0.0	753	0	8.0	8.0	1.0	1	right	2.0	1.0	1.0	1	0.0417359590344	blockFiles/set_43/main_unc/rightBlue\GB_RB_6.xlsx
485	main_unc	True	0.0	753	0	8.0	8.0	0.0	1	left	1.0	1.0	1.0	0	-0.0737820266373	blockFiles/set_43/main_unc/rightBlue\GB_RB_6.xlsx
486	main_unc	True	0.0	753	0	9.0	9.0	0.0	1	left	1.0	0.0	0.0	0	-0.059563142955300005	blockFiles/set_43/main_unc/leftBlue\GB_LB_4.xlsx
487	main_unc	True	0.0	753	0	9.0	9.0	0.0	1	left	2.0	1.0	1.0	0	-0.0551959882304	blockFiles/set_43/main_unc/leftBlue\GB_LB_4.xlsx
488	main_unc	True	0.0	753	0	9.0	9.0	1.0	1	right	1.0	1.0	1.0	1	0.0710119071044	blockFiles/set_43/main_unc/leftBlue\GB_LB_4.xlsx
489	main_unc	True	0.0	753	0	9.0	9.0	0.0	1	left	1.0	1.0	0.0	0	-0.047951985970099996	blockFiles/set_43/main_unc/leftBlue\GB_LB_4.xlsx
490	main_unc	True	0.0	753	0	9.0	9.0	1.0	1	right	2.0	0.0	0.0	1	0.05629418913269999	blockFiles/set_43/main_unc/leftBlue\GB_LB_4.xlsx
491	main_unc	True	0.0	753	0	9.0	9.0	0.0	1	left	1.0	0.0	0.0	0	-0.0195029599592	blockFiles/set_43/main_unc/leftBlue\GB_LB_4.xlsx
492	main_unc	True	0.0	753	0	9.0	9.0	1.0	1	right	2.0	0.0	0.0	1	0.037285294271999996	blockFiles/set_43/main_unc/leftBlue\GB_LB_4.xlsx
493	main_unc	True	0.0	753	0	9.0	9.0	1.0	1	right	2.0	0.0	0.0	1	0.048376253508000004	blockFiles/set_43/main_unc/leftBlue\GB_LB_4.xlsx
494	main_unc	True	0.0	753	0	9.0	9.0	1.0	1	right	1.0	1.0	1.0	1	0.0235141952708	blockFiles/set_43/main_unc/leftBlue\GB_LB_4.xlsx
495	main_unc	True	0.0	753	0	9.0	9.0	0.0	1	left	2.0	1.0	1.0	0	-0.07503339421	blockFiles/set_43/main_unc/leftBlue\GB_LB_4.xlsx
496	main_unc	True	0.0	753	0	9.0	9.0	0.0	1	left	2.0	1.0	1.0	0	-0.036421438399699996	blockFiles/set_43/main_unc/leftBlue\GB_LB_4.xlsx
497	main_unc	True	0.0	753	0	9.0	9.0	0.0	0	left	2.0	0.0	0.0	1	0.00374255534261	blockFiles/set_43/main_unc/leftBlue\GB_LB_4.xlsx
498	main_unc	True	0.0	753	0	9.0	9.0	0.0	1	left	2.0	1.0	1.0	0	-0.024510564021799998	blockFiles/set_43/main_unc/leftBlue\GB_LB_4.xlsx
499	main_unc	True	0.0	753	0	9.0	9.0	0.0	1	left	2.0	0.0	1.0	0	-0.06369623897599999	blockFiles/set_43/main_unc/leftBlue\GB_LB_4.xlsx
500	main_unc	True	0.0	753	0	9.0	9.0	0.0	1	left	2.0	0.0	1.0	0	-0.054009608160699996	blockFiles/set_43/main_unc/leftBlue\GB_LB_4.xlsx
501	main_unc	True	0.0	753	0	9.0	9.0	0.0	1	left	2.0	1.0	1.0	0	-0.070807245709	blockFiles/set_43/main_unc/leftBlue\GB_LB_4.xlsx
502	main_unc	True	0.0	753	0	9.0	9.0	0.0	1	left	2.0	0.0	1.0	0	-0.0167980374955	blockFiles/set_43/main_unc/leftBlue\GB_LB_4.xlsx
503	main_unc	True	0.0	753	0	9.0	9.0	0.0	0	left	2.0	0.0	0.0	1	0.021065303552900004	blockFiles/set_43/main_unc/leftBlue\GB_LB_4.xlsx
504	main_unc	True	0.0	753	0	9.0	9.0	1.0	1	right	1.0	1.0	1.0	1	0.036222873795800005	blockFiles/set_43/main_unc/leftBlue\GB_LB_4.xlsx
505	main_unc	True	0.0	753	0	9.0	9.0	0.0	1	left	2.0	1.0	1.0	0	-0.028287512175699997	blockFiles/set_43/main_unc/leftBlue\GB_LB_4.xlsx
506	main_unc	True	1.0	753	0	9.0	9.0	n/a	0	None	n/a	0.0	n/a	1	0.04406758273019999	blockFiles/set_43/main_unc/leftBlue\GB_LB_4.xlsx
507	main_unc	True	0.0	753	0	9.0	9.0	1.0	1	right	1.0	1.0	1.0	1	0.07833920421080001	blockFiles/set_43/main_unc/leftBlue\GB_LB_4.xlsx
508	main_unc	True	0.0	753	0	9.0	9.0	1.0	1	right	1.0	1.0	1.0	1	0.06611905461180001	blockFiles/set_43/main_unc/leftBlue\GB_LB_4.xlsx
509	main_unc	True	0.0	753	0	9.0	9.0	1.0	1	right	1.0	1.0	1.0	1	0.0628273406625	blockFiles/set_43/main_unc/leftBlue\GB_LB_4.xlsx
510	main_unc	True	0.0	753	0	9.0	9.0	1.0	0	right	1.0	1.0	0.0	0	-0.0284886471368	blockFiles/set_43/main_unc/leftBlue\GB_LB_4.xlsx
511	main_unc	True	0.0	753	0	9.0	9.0	0.0	0	left	2.0	0.0	0.0	1	0.04406758273019999	blockFiles/set_43/main_unc/leftBlue\GB_LB_4.xlsx
512	main_unc	True	0.0	753	0	10.0	10.0	0.0	1	left	2.0	1.0	1.0	0	-0.0710507467017	blockFiles/set_43/main_unc/leftBlue\GB_LB_1.xlsx
513	main_unc	True	0.0	753	0	10.0	10.0	1.0	1	right	1.0	1.0	1.0	1	0.0524840209633	blockFiles/set_43/main_unc/leftBlue\GB_LB_1.xlsx
514	main_unc	True	0.0	753	0	10.0	10.0	1.0	1	right	1.0	1.0	1.0	1	0.033637914061500004	blockFiles/set_43/main_unc/leftBlue\GB_LB_1.xlsx
515	main_unc	True	0.0	753	0	10.0	10.0	0.0	1	left	2.0	1.0	1.0	0	-0.014152409303899998	blockFiles/set_43/main_unc/leftBlue\GB_LB_1.xlsx
516	main_unc	True	0.0	753	0	10.0	10.0	1.0	1	right	1.0	1.0	1.0	1	0.0168833112158	blockFiles/set_43/main_unc/leftBlue\GB_LB_1.xlsx
517	main_unc	True	0.0	753	0	10.0	10.0	0.0	1	left	2.0	1.0	1.0	0	-0.0762790830061	blockFiles/set_43/main_unc/leftBlue\GB_LB_1.xlsx
518	main_unc	True	0.0	753	0	10.0	10.0	1.0	1	right	1.0	0.0	1.0	1	0.00981509288773	blockFiles/set_43/main_unc/leftBlue\GB_LB_1.xlsx
519	main_unc	True	0.0	753	0	10.0	10.0	1.0	1	right	1.0	1.0	1.0	1	0.06552358210090001	blockFiles/set_43/main_unc/leftBlue\GB_LB_1.xlsx
520	main_unc	True	0.0	753	0	10.0	10.0	1.0	0	right	1.0	0.0	0.0	0	-0.011888510342700002	blockFiles/set_43/main_unc/leftBlue\GB_LB_1.xlsx
521	main_unc	True	0.0	753	0	10.0	10.0	0.0	1	left	2.0	1.0	1.0	0	-0.042201681491	blockFiles/set_43/main_unc/leftBlue\GB_LB_1.xlsx
522	main_unc	True	0.0	753	0	10.0	10.0	0.0	1	left	2.0	0.0	1.0	0	-0.0498428333737	blockFiles/set_43/main_unc/leftBlue\GB_LB_1.xlsx
523	main_unc	True	0.0	753	0	10.0	10.0	0.0	1	left	2.0	1.0	1.0	0	-0.0536786916852	blockFiles/set_43/main_unc/leftBlue\GB_LB_1.xlsx
524	main_unc	True	0.0	753	0	10.0	10.0	0.0	1	left	2.0	1.0	1.0	0	-0.024566152636000003	blockFiles/set_43/main_unc/leftBlue\GB_LB_1.xlsx
525	main_unc	True	0.0	753	0	10.0	10.0	1.0	1	right	1.0	1.0	1.0	1	0.069541950915	blockFiles/set_43/main_unc/leftBlue\GB_LB_1.xlsx
526	main_unc	True	0.0	753	0	10.0	10.0	0.0	0	left	2.0	0.0	0.0	1	0.00386427264661	blockFiles/set_43/main_unc/leftBlue\GB_LB_1.xlsx
527	main_unc	True	0.0	753	0	10.0	10.0	0.0	0	left	2.0	1.0	0.0	1	0.0354149538092	blockFiles/set_43/main_unc/leftBlue\GB_LB_1.xlsx
528	main_unc	True	0.0	753	0	10.0	10.0	0.0	1	left	2.0	1.0	1.0	0	-0.0709501240775	blockFiles/set_43/main_unc/leftBlue\GB_LB_1.xlsx
529	main_unc	True	0.0	753	0	10.0	10.0	0.0	1	left	2.0	1.0	1.0	0	-0.0391608634777	blockFiles/set_43/main_unc/leftBlue\GB_LB_1.xlsx
530	main_unc	True	1.0	753	0	10.0	10.0	1.0	1	right	n/a	0.0	n/a	1	0.0638964773715	blockFiles/set_43/main_unc/leftBlue\GB_LB_1.xlsx
531	main_unc	True	0.0	753	0	10.0	10.0	0.0	1	left	2.0	1.0	1.0	0	-0.033260966111	blockFiles/set_43/main_unc/leftBlue\GB_LB_1.xlsx
532	main_unc	True	0.0	753	0	10.0	10.0	0.0	1	left	2.0	1.0	1.0	0	-0.04617982737719999	blockFiles/set_43/main_unc/leftBlue\GB_LB_1.xlsx
533	main_unc	True	0.0	753	0	10.0	10.0	0.0	1	left	2.0	0.0	1.0	0	-0.0667493969761	blockFiles/set_43/main_unc/leftBlue\GB_LB_1.xlsx
534	main_unc	True	0.0	753	0	10.0	10.0	1.0	1	right	1.0	1.0	1.0	1	0.0103765740432	blockFiles/set_43/main_unc/leftBlue\GB_LB_1.xlsx
535	main_unc	True	0.0	753	0	10.0	10.0	0.0	0	left	2.0	0.0	0.0	1	0.00994248118252	blockFiles/set_43/main_unc/leftBlue\GB_LB_1.xlsx
536	main_unc	True	0.0	753	0	10.0	10.0	1.0	1	right	1.0	1.0	1.0	1	0.05815803069619999	blockFiles/set_43/main_unc/leftBlue\GB_LB_1.xlsx
537	main_unc	True	0.0	753	0	10.0	10.0	1.0	1	right	1.0	1.0	1.0	1	0.0638964773715	blockFiles/set_43/main_unc/leftBlue\GB_LB_1.xlsx
538	main_unc	True	0.0	753	0	11.0	11.0	0.0	1	left	2.0	1.0	0.0	0	-0.0165342757106	blockFiles/set_43/main_unc/rightBlue\GB_RB_5.xlsx
539	main_unc	True	0.0	753	0	11.0	11.0	1.0	1	right	1.0	0.0	0.0	1	0.02700589763	blockFiles/set_43/main_unc/rightBlue\GB_RB_5.xlsx
540	main_unc	True	0.0	753	0	11.0	11.0	1.0	1	right	1.0	0.0	0.0	1	0.06542613986880001	blockFiles/set_43/main_unc/rightBlue\GB_RB_5.xlsx
541	main_unc	True	0.0	753	0	11.0	11.0	0.0	1	left	1.0	0.0	1.0	0	-0.0747400568798	blockFiles/set_43/main_unc/rightBlue\GB_RB_5.xlsx
542	main_unc	True	0.0	753	0	11.0	11.0	1.0	1	right	1.0	0.0	0.0	1	0.0694447665103	blockFiles/set_43/main_unc/rightBlue\GB_RB_5.xlsx
543	main_unc	True	0.0	753	0	11.0	11.0	0.0	0	left	1.0	0.0	0.0	1	0.000659812837839	blockFiles/set_43/main_unc/rightBlue\GB_RB_5.xlsx
544	main_unc	True	0.0	753	0	11.0	11.0	0.0	1	left	1.0	1.0	1.0	0	-0.057426359821100004	blockFiles/set_43/main_unc/rightBlue\GB_RB_5.xlsx
545	main_unc	True	0.0	753	0	11.0	11.0	0.0	0	left	1.0	0.0	0.0	1	0.027570065818699998	blockFiles/set_43/main_unc/rightBlue\GB_RB_5.xlsx
546	main_unc	True	0.0	753	0	11.0	11.0	0.0	1	left	1.0	1.0	1.0	0	-0.0344267586246	blockFiles/set_43/main_unc/rightBlue\GB_RB_5.xlsx
547	main_unc	True	0.0	753	0	11.0	11.0	1.0	1	right	2.0	1.0	1.0	1	0.050888216048499996	blockFiles/set_43/main_unc/rightBlue\GB_RB_5.xlsx
548	main_unc	True	0.0	753	0	11.0	11.0	0.0	1	left	1.0	1.0	1.0	0	-0.000366849862039	blockFiles/set_43/main_unc/rightBlue\GB_RB_5.xlsx
549	main_unc	True	0.0	753	0	11.0	11.0	1.0	1	right	2.0	1.0	1.0	1	0.0751063617878	blockFiles/set_43/main_unc/rightBlue\GB_RB_5.xlsx
550	main_unc	True	0.0	753	0	11.0	11.0	1.0	1	right	2.0	1.0	1.0	1	0.046164487060199995	blockFiles/set_43/main_unc/rightBlue\GB_RB_5.xlsx
551	main_unc	True	0.0	753	0	11.0	11.0	0.0	1	left	1.0	1.0	1.0	0	-0.045349839217999996	blockFiles/set_43/main_unc/rightBlue\GB_RB_5.xlsx
552	main_unc	True	0.0	753	0	11.0	11.0	1.0	1	right	2.0	1.0	1.0	1	0.05900479458269999	blockFiles/set_43/main_unc/rightBlue\GB_RB_5.xlsx
553	main_unc	True	0.0	753	0	11.0	11.0	1.0	1	right	2.0	1.0	1.0	1	0.049562251064900004	blockFiles/set_43/main_unc/rightBlue\GB_RB_5.xlsx
554	main_unc	True	0.0	753	0	11.0	11.0	1.0	1	right	2.0	0.0	1.0	1	0.033030418735000004	blockFiles/set_43/main_unc/rightBlue\GB_RB_5.xlsx
555	main_unc	True	0.0	753	0	11.0	11.0	0.0	1	left	1.0	0.0	1.0	0	-0.0229179189354	blockFiles/set_43/main_unc/rightBlue\GB_RB_5.xlsx
556	main_unc	True	0.0	753	0	11.0	11.0	0.0	1	left	1.0	1.0	1.0	0	-0.014004450459000001	blockFiles/set_43/main_unc/rightBlue\GB_RB_5.xlsx
557	main_unc	True	0.0	753	0	11.0	11.0	1.0	1	right	2.0	1.0	1.0	1	0.0753987877443	blockFiles/set_43/main_unc/rightBlue\GB_RB_5.xlsx
558	main_unc	True	0.0	753	0	11.0	11.0	0.0	1	left	1.0	1.0	1.0	0	-0.0719939879328	blockFiles/set_43/main_unc/rightBlue\GB_RB_5.xlsx
559	main_unc	True	0.0	753	0	11.0	11.0	1.0	0	right	2.0	1.0	0.0	0	-0.0288340522535	blockFiles/set_43/main_unc/rightBlue\GB_RB_5.xlsx
560	main_unc	True	0.0	753	0	11.0	11.0	0.0	1	left	1.0	1.0	1.0	0	-0.0300637126155	blockFiles/set_43/main_unc/rightBlue\GB_RB_5.xlsx
561	main_unc	True	0.0	753	0	11.0	11.0	1.0	0	right	2.0	0.0	0.0	0	-0.009332328401510001	blockFiles/set_43/main_unc/rightBlue\GB_RB_5.xlsx
562	main_unc	True	0.0	753	0	11.0	11.0	0.0	1	left	1.0	1.0	1.0	0	-0.0651476495899	blockFiles/set_43/main_unc/rightBlue\GB_RB_5.xlsx
