	trial_type	complete	missIndex	participant	id	blockNumber	b_t	d_t	decision1.corr	decision1.keys	a_t	r_t	decision2.corr	s_t	u_t	block_file
0	main_safe	True	0.0	187	0	0.0	0.0	1.0	1	right	2.0	0.0	0.0	1	0.08	blockFiles/set_20/main_safe/leftBlue\GB_LB_1.xlsx
1	main_safe	True	0.0	187	0	0.0	0.0	0.0	1	left	1.0	0.0	0.0	0	-0.08	blockFiles/set_20/main_safe/leftBlue\GB_LB_1.xlsx
2	main_safe	True	0.0	187	0	0.0	0.0	0.0	1	left	1.0	0.0	0.0	0	-0.08	blockFiles/set_20/main_safe/leftBlue\GB_LB_1.xlsx
3	main_safe	True	0.0	187	0	0.0	0.0	1.0	1	right	2.0	0.0	0.0	1	0.08	blockFiles/set_20/main_safe/leftBlue\GB_LB_1.xlsx
4	main_safe	True	0.0	187	0	0.0	0.0	0.0	1	left	1.0	0.0	0.0	0	-0.08	blockFiles/set_20/main_safe/leftBlue\GB_LB_1.xlsx
5	main_safe	True	0.0	187	0	0.0	0.0	0.0	1	left	1.0	0.0	0.0	0	-0.08	blockFiles/set_20/main_safe/leftBlue\GB_LB_1.xlsx
6	main_safe	True	0.0	187	0	0.0	0.0	0.0	1	left	2.0	1.0	1.0	0	-0.08	blockFiles/set_20/main_safe/leftBlue\GB_LB_1.xlsx
7	main_safe	True	0.0	187	0	0.0	0.0	0.0	1	left	2.0	1.0	1.0	0	-0.08	blockFiles/set_20/main_safe/leftBlue\GB_LB_1.xlsx
8	main_safe	True	0.0	187	0	0.0	0.0	0.0	1	left	2.0	1.0	1.0	0	-0.08	blockFiles/set_20/main_safe/leftBlue\GB_LB_1.xlsx
9	main_safe	True	0.0	187	0	0.0	0.0	1.0	1	right	2.0	0.0	0.0	1	0.08	blockFiles/set_20/main_safe/leftBlue\GB_LB_1.xlsx
10	main_safe	True	0.0	187	0	0.0	0.0	1.0	1	right	2.0	1.0	0.0	1	0.08	blockFiles/set_20/main_safe/leftBlue\GB_LB_1.xlsx
11	main_safe	True	0.0	187	0	0.0	0.0	0.0	1	left	2.0	1.0	1.0	0	-0.08	blockFiles/set_20/main_safe/leftBlue\GB_LB_1.xlsx
12	main_safe	True	0.0	187	0	0.0	0.0	0.0	1	left	2.0	0.0	1.0	0	-0.08	blockFiles/set_20/main_safe/leftBlue\GB_LB_1.xlsx
13	main_safe	True	0.0	187	0	0.0	0.0	0.0	1	left	2.0	1.0	1.0	0	-0.08	blockFiles/set_20/main_safe/leftBlue\GB_LB_1.xlsx
14	main_safe	True	0.0	187	0	0.0	0.0	1.0	1	right	2.0	0.0	0.0	1	0.08	blockFiles/set_20/main_safe/leftBlue\GB_LB_1.xlsx
15	main_safe	True	0.0	187	0	0.0	0.0	1.0	1	right	2.0	0.0	0.0	1	0.08	blockFiles/set_20/main_safe/leftBlue\GB_LB_1.xlsx
16	main_safe	True	0.0	187	0	0.0	0.0	1.0	1	right	2.0	0.0	0.0	1	0.08	blockFiles/set_20/main_safe/leftBlue\GB_LB_1.xlsx
17	main_safe	True	0.0	187	0	0.0	0.0	1.0	1	right	2.0	0.0	0.0	1	0.08	blockFiles/set_20/main_safe/leftBlue\GB_LB_1.xlsx
18	main_safe	True	0.0	187	0	0.0	0.0	1.0	1	right	2.0	0.0	0.0	1	0.08	blockFiles/set_20/main_safe/leftBlue\GB_LB_1.xlsx
19	main_safe	True	0.0	187	0	0.0	0.0	1.0	1	right	2.0	0.0	0.0	1	0.08	blockFiles/set_20/main_safe/leftBlue\GB_LB_1.xlsx
20	main_safe	True	0.0	187	0	0.0	0.0	0.0	1	left	2.0	1.0	1.0	0	-0.08	blockFiles/set_20/main_safe/leftBlue\GB_LB_1.xlsx
21	main_safe	True	0.0	187	0	0.0	0.0	1.0	1	right	2.0	0.0	0.0	1	0.08	blockFiles/set_20/main_safe/leftBlue\GB_LB_1.xlsx
22	main_safe	True	0.0	187	0	0.0	0.0	0.0	1	left	2.0	0.0	1.0	0	-0.08	blockFiles/set_20/main_safe/leftBlue\GB_LB_1.xlsx
23	main_safe	True	0.0	187	0	0.0	0.0	1.0	1	right	2.0	1.0	0.0	1	0.08	blockFiles/set_20/main_safe/leftBlue\GB_LB_1.xlsx
24	main_safe	True	0.0	187	0	0.0	0.0	0.0	1	left	2.0	1.0	1.0	0	-0.08	blockFiles/set_20/main_safe/leftBlue\GB_LB_1.xlsx
25	main_safe	True	0.0	187	0	1.0	1.0	1.0	1	right	1.0	0.0	0.0	1	0.08	blockFiles/set_20/main_safe/rightBlue\GB_RB_1.xlsx
26	main_safe	True	0.0	187	0	1.0	1.0	0.0	1	left	2.0	1.0	0.0	0	-0.08	blockFiles/set_20/main_safe/rightBlue\GB_RB_1.xlsx
27	main_safe	True	0.0	187	0	1.0	1.0	0.0	1	left	2.0	1.0	0.0	0	-0.08	blockFiles/set_20/main_safe/rightBlue\GB_RB_1.xlsx
28	main_safe	True	0.0	187	0	1.0	1.0	0.0	1	left	2.0	0.0	0.0	0	-0.08	blockFiles/set_20/main_safe/rightBlue\GB_RB_1.xlsx
29	main_safe	True	0.0	187	0	1.0	1.0	0.0	1	left	2.0	0.0	0.0	0	-0.08	blockFiles/set_20/main_safe/rightBlue\GB_RB_1.xlsx
30	main_safe	True	0.0	187	0	1.0	1.0	1.0	1	right	2.0	1.0	1.0	1	0.08	blockFiles/set_20/main_safe/rightBlue\GB_RB_1.xlsx
31	main_safe	True	0.0	187	0	1.0	1.0	0.0	1	left	2.0	0.0	0.0	0	-0.08	blockFiles/set_20/main_safe/rightBlue\GB_RB_1.xlsx
32	main_safe	True	0.0	187	0	1.0	1.0	1.0	1	right	2.0	1.0	1.0	1	0.08	blockFiles/set_20/main_safe/rightBlue\GB_RB_1.xlsx
33	main_safe	True	0.0	187	0	1.0	1.0	0.0	1	left	2.0	1.0	0.0	0	-0.08	blockFiles/set_20/main_safe/rightBlue\GB_RB_1.xlsx
34	main_safe	True	0.0	187	0	1.0	1.0	0.0	1	left	2.0	0.0	0.0	0	-0.08	blockFiles/set_20/main_safe/rightBlue\GB_RB_1.xlsx
35	main_safe	True	0.0	187	0	1.0	1.0	0.0	1	left	2.0	0.0	0.0	0	-0.08	blockFiles/set_20/main_safe/rightBlue\GB_RB_1.xlsx
36	main_safe	True	0.0	187	0	1.0	1.0	1.0	1	right	2.0	1.0	1.0	1	0.08	blockFiles/set_20/main_safe/rightBlue\GB_RB_1.xlsx
37	main_safe	True	0.0	187	0	1.0	1.0	0.0	1	left	2.0	0.0	0.0	0	-0.08	blockFiles/set_20/main_safe/rightBlue\GB_RB_1.xlsx
38	main_safe	True	0.0	187	0	1.0	1.0	1.0	1	right	2.0	1.0	1.0	1	0.08	blockFiles/set_20/main_safe/rightBlue\GB_RB_1.xlsx
39	main_safe	True	0.0	187	0	1.0	1.0	1.0	1	right	2.0	1.0	1.0	1	0.08	blockFiles/set_20/main_safe/rightBlue\GB_RB_1.xlsx
40	main_safe	True	0.0	187	0	1.0	1.0	1.0	1	right	2.0	1.0	1.0	1	0.08	blockFiles/set_20/main_safe/rightBlue\GB_RB_1.xlsx
41	main_safe	True	0.0	187	0	1.0	1.0	1.0	1	right	2.0	0.0	1.0	1	0.08	blockFiles/set_20/main_safe/rightBlue\GB_RB_1.xlsx
42	main_safe	True	0.0	187	0	1.0	1.0	1.0	1	right	2.0	1.0	1.0	1	0.08	blockFiles/set_20/main_safe/rightBlue\GB_RB_1.xlsx
43	main_safe	True	0.0	187	0	1.0	1.0	1.0	1	right	2.0	1.0	1.0	1	0.08	blockFiles/set_20/main_safe/rightBlue\GB_RB_1.xlsx
44	main_safe	True	0.0	187	0	1.0	1.0	0.0	1	left	2.0	0.0	0.0	0	-0.08	blockFiles/set_20/main_safe/rightBlue\GB_RB_1.xlsx
45	main_safe	True	0.0	187	0	1.0	1.0	1.0	1	right	2.0	1.0	1.0	1	0.08	blockFiles/set_20/main_safe/rightBlue\GB_RB_1.xlsx
46	main_safe	True	0.0	187	0	1.0	1.0	0.0	1	left	2.0	0.0	0.0	0	-0.08	blockFiles/set_20/main_safe/rightBlue\GB_RB_1.xlsx
47	main_safe	True	0.0	187	0	1.0	1.0	1.0	1	right	2.0	1.0	1.0	1	0.08	blockFiles/set_20/main_safe/rightBlue\GB_RB_1.xlsx
48	main_safe	True	0.0	187	0	1.0	1.0	0.0	1	left	2.0	1.0	0.0	0	-0.08	blockFiles/set_20/main_safe/rightBlue\GB_RB_1.xlsx
49	main_safe	True	0.0	187	0	1.0	1.0	1.0	1	right	2.0	1.0	1.0	1	0.08	blockFiles/set_20/main_safe/rightBlue\GB_RB_1.xlsx
50	main_safe	True	0.0	187	0	2.0	2.0	0.0	1	left	1.0	0.0	0.0	0	-0.08	blockFiles/set_20/main_safe/leftBlue\GB_LB_2.xlsx
51	main_safe	True	0.0	187	0	2.0	2.0	1.0	1	right	1.0	1.0	1.0	1	0.08	blockFiles/set_20/main_safe/leftBlue\GB_LB_2.xlsx
52	main_safe	True	0.0	187	0	2.0	2.0	1.0	1	right	1.0	0.0	1.0	1	0.08	blockFiles/set_20/main_safe/leftBlue\GB_LB_2.xlsx
53	main_safe	True	0.0	187	0	2.0	2.0	0.0	1	left	1.0	0.0	0.0	0	-0.08	blockFiles/set_20/main_safe/leftBlue\GB_LB_2.xlsx
54	main_safe	True	0.0	187	0	2.0	2.0	0.0	1	left	2.0	0.0	1.0	0	-0.08	blockFiles/set_20/main_safe/leftBlue\GB_LB_2.xlsx
55	main_safe	True	0.0	187	0	2.0	2.0	1.0	1	right	2.0	0.0	0.0	1	0.08	blockFiles/set_20/main_safe/leftBlue\GB_LB_2.xlsx
56	main_safe	True	0.0	187	0	2.0	2.0	1.0	1	right	1.0	1.0	1.0	1	0.08	blockFiles/set_20/main_safe/leftBlue\GB_LB_2.xlsx
57	main_safe	True	0.0	187	0	2.0	2.0	0.0	1	left	1.0	0.0	0.0	0	-0.08	blockFiles/set_20/main_safe/leftBlue\GB_LB_2.xlsx
58	main_safe	True	0.0	187	0	2.0	2.0	1.0	1	right	2.0	0.0	0.0	1	0.08	blockFiles/set_20/main_safe/leftBlue\GB_LB_2.xlsx
59	main_safe	True	0.0	187	0	2.0	2.0	0.0	1	left	1.0	0.0	0.0	0	-0.08	blockFiles/set_20/main_safe/leftBlue\GB_LB_2.xlsx
60	main_safe	True	0.0	187	0	2.0	2.0	0.0	1	left	1.0	0.0	0.0	0	-0.08	blockFiles/set_20/main_safe/leftBlue\GB_LB_2.xlsx
61	main_safe	True	0.0	187	0	2.0	2.0	0.0	1	left	1.0	0.0	0.0	0	-0.08	blockFiles/set_20/main_safe/leftBlue\GB_LB_2.xlsx
62	main_safe	True	0.0	187	0	2.0	2.0	1.0	1	right	2.0	1.0	0.0	1	0.08	blockFiles/set_20/main_safe/leftBlue\GB_LB_2.xlsx
63	main_safe	True	0.0	187	0	2.0	2.0	1.0	1	right	1.0	1.0	1.0	1	0.08	blockFiles/set_20/main_safe/leftBlue\GB_LB_2.xlsx
64	main_safe	True	0.0	187	0	2.0	2.0	0.0	1	left	1.0	0.0	0.0	0	-0.08	blockFiles/set_20/main_safe/leftBlue\GB_LB_2.xlsx
65	main_safe	True	0.0	187	0	2.0	2.0	1.0	1	right	2.0	0.0	0.0	1	0.08	blockFiles/set_20/main_safe/leftBlue\GB_LB_2.xlsx
66	main_safe	True	0.0	187	0	2.0	2.0	1.0	1	right	1.0	1.0	1.0	1	0.08	blockFiles/set_20/main_safe/leftBlue\GB_LB_2.xlsx
67	main_safe	True	0.0	187	0	2.0	2.0	0.0	1	left	1.0	0.0	0.0	0	-0.08	blockFiles/set_20/main_safe/leftBlue\GB_LB_2.xlsx
68	main_safe	True	0.0	187	0	2.0	2.0	1.0	1	right	1.0	1.0	1.0	1	0.08	blockFiles/set_20/main_safe/leftBlue\GB_LB_2.xlsx
69	main_safe	True	0.0	187	0	2.0	2.0	1.0	1	right	1.0	0.0	1.0	1	0.08	blockFiles/set_20/main_safe/leftBlue\GB_LB_2.xlsx
70	main_safe	True	0.0	187	0	2.0	2.0	0.0	1	left	1.0	0.0	0.0	0	-0.08	blockFiles/set_20/main_safe/leftBlue\GB_LB_2.xlsx
71	main_safe	True	0.0	187	0	2.0	2.0	1.0	1	right	1.0	1.0	1.0	1	0.08	blockFiles/set_20/main_safe/leftBlue\GB_LB_2.xlsx
72	main_safe	True	0.0	187	0	2.0	2.0	0.0	1	left	1.0	0.0	0.0	0	-0.08	blockFiles/set_20/main_safe/leftBlue\GB_LB_2.xlsx
73	main_safe	True	0.0	187	0	2.0	2.0	0.0	1	left	1.0	0.0	0.0	0	-0.08	blockFiles/set_20/main_safe/leftBlue\GB_LB_2.xlsx
74	main_safe	True	0.0	187	0	2.0	2.0	0.0	1	left	1.0	0.0	0.0	0	-0.08	blockFiles/set_20/main_safe/leftBlue\GB_LB_2.xlsx
75	main_safe	True	0.0	187	0	3.0	3.0	1.0	1	right	2.0	1.0	1.0	1	0.08	blockFiles/set_20/main_safe/rightBlue\GB_RB_3.xlsx
76	main_safe	True	0.0	187	0	3.0	3.0	0.0	1	left	2.0	0.0	0.0	0	-0.08	blockFiles/set_20/main_safe/rightBlue\GB_RB_3.xlsx
77	main_safe	True	0.0	187	0	3.0	3.0	1.0	1	right	2.0	0.0	1.0	1	0.08	blockFiles/set_20/main_safe/rightBlue\GB_RB_3.xlsx
78	main_safe	True	0.0	187	0	3.0	3.0	1.0	1	right	2.0	1.0	1.0	1	0.08	blockFiles/set_20/main_safe/rightBlue\GB_RB_3.xlsx
79	main_safe	True	0.0	187	0	3.0	3.0	1.0	1	right	2.0	1.0	1.0	1	0.08	blockFiles/set_20/main_safe/rightBlue\GB_RB_3.xlsx
80	main_safe	True	0.0	187	0	3.0	3.0	1.0	1	right	2.0	1.0	1.0	1	0.08	blockFiles/set_20/main_safe/rightBlue\GB_RB_3.xlsx
81	main_safe	True	0.0	187	0	3.0	3.0	0.0	1	left	2.0	0.0	0.0	0	-0.08	blockFiles/set_20/main_safe/rightBlue\GB_RB_3.xlsx
82	main_safe	True	0.0	187	0	3.0	3.0	1.0	1	right	2.0	1.0	1.0	1	0.08	blockFiles/set_20/main_safe/rightBlue\GB_RB_3.xlsx
83	main_safe	True	0.0	187	0	3.0	3.0	0.0	1	left	2.0	0.0	0.0	0	-0.08	blockFiles/set_20/main_safe/rightBlue\GB_RB_3.xlsx
84	main_safe	True	0.0	187	0	3.0	3.0	0.0	1	left	2.0	0.0	0.0	0	-0.08	blockFiles/set_20/main_safe/rightBlue\GB_RB_3.xlsx
85	main_safe	True	0.0	187	0	3.0	3.0	0.0	1	left	2.0	0.0	0.0	0	-0.08	blockFiles/set_20/main_safe/rightBlue\GB_RB_3.xlsx
86	main_safe	True	0.0	187	0	3.0	3.0	0.0	1	left	2.0	1.0	0.0	0	-0.08	blockFiles/set_20/main_safe/rightBlue\GB_RB_3.xlsx
87	main_safe	True	0.0	187	0	3.0	3.0	1.0	1	right	2.0	1.0	1.0	1	0.08	blockFiles/set_20/main_safe/rightBlue\GB_RB_3.xlsx
88	main_safe	True	0.0	187	0	3.0	3.0	0.0	1	left	2.0	0.0	0.0	0	-0.08	blockFiles/set_20/main_safe/rightBlue\GB_RB_3.xlsx
89	main_safe	True	0.0	187	0	3.0	3.0	0.0	1	left	2.0	0.0	0.0	0	-0.08	blockFiles/set_20/main_safe/rightBlue\GB_RB_3.xlsx
90	main_safe	True	0.0	187	0	3.0	3.0	0.0	1	left	2.0	1.0	0.0	0	-0.08	blockFiles/set_20/main_safe/rightBlue\GB_RB_3.xlsx
91	main_safe	True	0.0	187	0	3.0	3.0	1.0	1	right	2.0	1.0	1.0	1	0.08	blockFiles/set_20/main_safe/rightBlue\GB_RB_3.xlsx
92	main_safe	True	0.0	187	0	3.0	3.0	0.0	1	left	2.0	0.0	0.0	0	-0.08	blockFiles/set_20/main_safe/rightBlue\GB_RB_3.xlsx
93	main_safe	True	0.0	187	0	3.0	3.0	1.0	1	right	2.0	1.0	1.0	1	0.08	blockFiles/set_20/main_safe/rightBlue\GB_RB_3.xlsx
94	main_safe	True	0.0	187	0	3.0	3.0	1.0	1	right	2.0	0.0	1.0	1	0.08	blockFiles/set_20/main_safe/rightBlue\GB_RB_3.xlsx
95	main_safe	True	0.0	187	0	3.0	3.0	0.0	1	left	2.0	0.0	0.0	0	-0.08	blockFiles/set_20/main_safe/rightBlue\GB_RB_3.xlsx
96	main_safe	True	0.0	187	0	3.0	3.0	1.0	1	right	2.0	1.0	1.0	1	0.08	blockFiles/set_20/main_safe/rightBlue\GB_RB_3.xlsx
97	main_safe	True	0.0	187	0	3.0	3.0	0.0	1	left	2.0	1.0	0.0	0	-0.08	blockFiles/set_20/main_safe/rightBlue\GB_RB_3.xlsx
98	main_safe	True	0.0	187	0	3.0	3.0	0.0	1	left	2.0	0.0	0.0	0	-0.08	blockFiles/set_20/main_safe/rightBlue\GB_RB_3.xlsx
99	main_safe	True	0.0	187	0	3.0	3.0	1.0	1	right	2.0	1.0	1.0	1	0.08	blockFiles/set_20/main_safe/rightBlue\GB_RB_3.xlsx
100	main_safe	True	0.0	187	0	4.0	4.0	1.0	1	right	2.0	0.0	0.0	1	0.08	blockFiles/set_20/main_safe/leftBlue\GB_LB_3.xlsx
101	main_safe	True	0.0	187	0	4.0	4.0	0.0	1	left	1.0	0.0	0.0	0	-0.08	blockFiles/set_20/main_safe/leftBlue\GB_LB_3.xlsx
102	main_safe	True	0.0	187	0	4.0	4.0	0.0	1	left	1.0	1.0	0.0	0	-0.08	blockFiles/set_20/main_safe/leftBlue\GB_LB_3.xlsx
103	main_safe	True	0.0	187	0	4.0	4.0	1.0	1	right	1.0	1.0	1.0	1	0.08	blockFiles/set_20/main_safe/leftBlue\GB_LB_3.xlsx
104	main_safe	True	0.0	187	0	4.0	4.0	1.0	1	right	1.0	1.0	1.0	1	0.08	blockFiles/set_20/main_safe/leftBlue\GB_LB_3.xlsx
105	main_safe	True	0.0	187	0	4.0	4.0	0.0	1	left	1.0	1.0	0.0	0	-0.08	blockFiles/set_20/main_safe/leftBlue\GB_LB_3.xlsx
106	main_safe	True	0.0	187	0	4.0	4.0	1.0	1	right	1.0	1.0	1.0	1	0.08	blockFiles/set_20/main_safe/leftBlue\GB_LB_3.xlsx
107	main_safe	True	0.0	187	0	4.0	4.0	0.0	1	left	1.0	0.0	0.0	0	-0.08	blockFiles/set_20/main_safe/leftBlue\GB_LB_3.xlsx
108	main_safe	True	0.0	187	0	4.0	4.0	0.0	0	left	2.0	0.0	0.0	1	0.08	blockFiles/set_20/main_safe/leftBlue\GB_LB_3.xlsx
109	main_safe	True	0.0	187	0	4.0	4.0	1.0	1	right	1.0	1.0	1.0	1	0.08	blockFiles/set_20/main_safe/leftBlue\GB_LB_3.xlsx
110	main_safe	True	0.0	187	0	4.0	4.0	0.0	1	left	1.0	0.0	0.0	0	-0.08	blockFiles/set_20/main_safe/leftBlue\GB_LB_3.xlsx
111	main_safe	True	0.0	187	0	4.0	4.0	0.0	1	left	1.0	0.0	0.0	0	-0.08	blockFiles/set_20/main_safe/leftBlue\GB_LB_3.xlsx
112	main_safe	True	0.0	187	0	4.0	4.0	0.0	1	left	1.0	0.0	0.0	0	-0.08	blockFiles/set_20/main_safe/leftBlue\GB_LB_3.xlsx
113	main_safe	True	0.0	187	0	4.0	4.0	0.0	1	left	1.0	0.0	0.0	0	-0.08	blockFiles/set_20/main_safe/leftBlue\GB_LB_3.xlsx
114	main_safe	True	0.0	187	0	4.0	4.0	1.0	1	right	1.0	1.0	1.0	1	0.08	blockFiles/set_20/main_safe/leftBlue\GB_LB_3.xlsx
115	main_safe	True	0.0	187	0	4.0	4.0	1.0	1	right	1.0	1.0	1.0	1	0.08	blockFiles/set_20/main_safe/leftBlue\GB_LB_3.xlsx
116	main_safe	True	0.0	187	0	4.0	4.0	1.0	0	right	2.0	1.0	1.0	0	-0.08	blockFiles/set_20/main_safe/leftBlue\GB_LB_3.xlsx
117	main_safe	True	0.0	187	0	4.0	4.0	1.0	1	right	1.0	1.0	1.0	1	0.08	blockFiles/set_20/main_safe/leftBlue\GB_LB_3.xlsx
118	main_safe	True	0.0	187	0	4.0	4.0	0.0	1	left	1.0	0.0	0.0	0	-0.08	blockFiles/set_20/main_safe/leftBlue\GB_LB_3.xlsx
119	main_safe	True	0.0	187	0	4.0	4.0	0.0	1	left	1.0	0.0	0.0	0	-0.08	blockFiles/set_20/main_safe/leftBlue\GB_LB_3.xlsx
120	main_safe	True	0.0	187	0	4.0	4.0	1.0	1	right	1.0	1.0	1.0	1	0.08	blockFiles/set_20/main_safe/leftBlue\GB_LB_3.xlsx
121	main_safe	True	0.0	187	0	4.0	4.0	0.0	1	left	1.0	0.0	0.0	0	-0.08	blockFiles/set_20/main_safe/leftBlue\GB_LB_3.xlsx
122	main_safe	True	0.0	187	0	4.0	4.0	1.0	1	right	1.0	0.0	1.0	1	0.08	blockFiles/set_20/main_safe/leftBlue\GB_LB_3.xlsx
123	main_safe	True	0.0	187	0	4.0	4.0	0.0	1	left	1.0	0.0	0.0	0	-0.08	blockFiles/set_20/main_safe/leftBlue\GB_LB_3.xlsx
124	main_safe	True	0.0	187	0	4.0	4.0	1.0	1	right	1.0	1.0	1.0	1	0.08	blockFiles/set_20/main_safe/leftBlue\GB_LB_3.xlsx
125	main_safe	True	0.0	187	0	5.0	5.0	0.0	1	left	1.0	1.0	1.0	0	-0.08	blockFiles/set_20/main_safe/rightBlue\GB_RB_2.xlsx
126	main_safe	True	0.0	187	0	5.0	5.0	1.0	1	right	1.0	0.0	0.0	1	0.08	blockFiles/set_20/main_safe/rightBlue\GB_RB_2.xlsx
127	main_safe	True	0.0	187	0	5.0	5.0	1.0	1	right	1.0	0.0	0.0	1	0.08	blockFiles/set_20/main_safe/rightBlue\GB_RB_2.xlsx
128	main_safe	True	0.0	187	0	5.0	5.0	1.0	1	right	1.0	1.0	0.0	1	0.08	blockFiles/set_20/main_safe/rightBlue\GB_RB_2.xlsx
129	main_safe	True	0.0	187	0	5.0	5.0	0.0	1	left	1.0	1.0	1.0	0	-0.08	blockFiles/set_20/main_safe/rightBlue\GB_RB_2.xlsx
130	main_safe	True	0.0	187	0	5.0	5.0	0.0	1	left	1.0	1.0	1.0	0	-0.08	blockFiles/set_20/main_safe/rightBlue\GB_RB_2.xlsx
131	main_safe	True	0.0	187	0	5.0	5.0	0.0	1	left	1.0	1.0	1.0	0	-0.08	blockFiles/set_20/main_safe/rightBlue\GB_RB_2.xlsx
132	main_safe	True	0.0	187	0	5.0	5.0	0.0	1	left	1.0	1.0	1.0	0	-0.08	blockFiles/set_20/main_safe/rightBlue\GB_RB_2.xlsx
133	main_safe	True	0.0	187	0	5.0	5.0	0.0	1	left	1.0	0.0	1.0	0	-0.08	blockFiles/set_20/main_safe/rightBlue\GB_RB_2.xlsx
134	main_safe	True	0.0	187	0	5.0	5.0	1.0	1	right	1.0	0.0	0.0	1	0.08	blockFiles/set_20/main_safe/rightBlue\GB_RB_2.xlsx
135	main_safe	True	0.0	187	0	5.0	5.0	1.0	1	right	1.0	0.0	0.0	1	0.08	blockFiles/set_20/main_safe/rightBlue\GB_RB_2.xlsx
136	main_safe	True	0.0	187	0	5.0	5.0	0.0	1	left	1.0	1.0	1.0	0	-0.08	blockFiles/set_20/main_safe/rightBlue\GB_RB_2.xlsx
137	main_safe	True	0.0	187	0	5.0	5.0	1.0	1	right	1.0	0.0	0.0	1	0.08	blockFiles/set_20/main_safe/rightBlue\GB_RB_2.xlsx
138	main_safe	True	0.0	187	0	5.0	5.0	0.0	1	left	1.0	1.0	1.0	0	-0.08	blockFiles/set_20/main_safe/rightBlue\GB_RB_2.xlsx
139	main_safe	True	0.0	187	0	5.0	5.0	1.0	1	right	1.0	0.0	0.0	1	0.08	blockFiles/set_20/main_safe/rightBlue\GB_RB_2.xlsx
140	main_safe	True	0.0	187	0	5.0	5.0	0.0	1	left	1.0	0.0	1.0	0	-0.08	blockFiles/set_20/main_safe/rightBlue\GB_RB_2.xlsx
141	main_safe	True	0.0	187	0	5.0	5.0	0.0	1	left	1.0	1.0	1.0	0	-0.08	blockFiles/set_20/main_safe/rightBlue\GB_RB_2.xlsx
142	main_safe	True	0.0	187	0	5.0	5.0	0.0	0	left	2.0	1.0	1.0	1	0.08	blockFiles/set_20/main_safe/rightBlue\GB_RB_2.xlsx
143	main_safe	True	0.0	187	0	5.0	5.0	1.0	1	right	1.0	0.0	0.0	1	0.08	blockFiles/set_20/main_safe/rightBlue\GB_RB_2.xlsx
144	main_safe	True	0.0	187	0	5.0	5.0	0.0	1	left	1.0	0.0	1.0	0	-0.08	blockFiles/set_20/main_safe/rightBlue\GB_RB_2.xlsx
145	main_safe	True	0.0	187	0	5.0	5.0	0.0	1	left	1.0	1.0	1.0	0	-0.08	blockFiles/set_20/main_safe/rightBlue\GB_RB_2.xlsx
146	main_safe	True	0.0	187	0	5.0	5.0	0.0	1	left	1.0	1.0	1.0	0	-0.08	blockFiles/set_20/main_safe/rightBlue\GB_RB_2.xlsx
147	main_safe	True	0.0	187	0	5.0	5.0	1.0	1	right	1.0	0.0	0.0	1	0.08	blockFiles/set_20/main_safe/rightBlue\GB_RB_2.xlsx
148	main_safe	True	0.0	187	0	5.0	5.0	0.0	1	left	1.0	1.0	1.0	0	-0.08	blockFiles/set_20/main_safe/rightBlue\GB_RB_2.xlsx
149	main_safe	True	0.0	187	0	5.0	5.0	1.0	1	right	1.0	0.0	0.0	1	0.08	blockFiles/set_20/main_safe/rightBlue\GB_RB_2.xlsx
150	patches	True	n/a	187	0	n/a	n/a	1.0	1	right	n/a	n/a	n/a	1	0.0538603657484	blockFiles/set_20/main_PD/GB_runPatches1.xlsx
151	patches	True	n/a	187	0	n/a	n/a	1.0	1	right	n/a	n/a	n/a	1	0.0711655253731	blockFiles/set_20/main_PD/GB_runPatches1.xlsx
152	patches	True	n/a	187	0	n/a	n/a	1.0	1	right	n/a	n/a	n/a	1	0.0363847164065	blockFiles/set_20/main_PD/GB_runPatches1.xlsx
153	patches	True	n/a	187	0	n/a	n/a	0.0	1	left	n/a	n/a	n/a	0	-0.0222702321038	blockFiles/set_20/main_PD/GB_runPatches1.xlsx
154	patches	True	n/a	187	0	n/a	n/a	1.0	1	right	n/a	n/a	n/a	1	0.0491367570497	blockFiles/set_20/main_PD/GB_runPatches1.xlsx
155	patches	True	n/a	187	0	n/a	n/a	0.0	1	left	n/a	n/a	n/a	0	-0.022012933716199997	blockFiles/set_20/main_PD/GB_runPatches1.xlsx
156	patches	True	n/a	187	0	n/a	n/a	1.0	1	right	n/a	n/a	n/a	1	0.029737507011700002	blockFiles/set_20/main_PD/GB_runPatches1.xlsx
157	patches	True	n/a	187	0	n/a	n/a	0.0	1	left	n/a	n/a	n/a	0	-0.0251919949614	blockFiles/set_20/main_PD/GB_runPatches1.xlsx
158	patches	True	n/a	187	0	n/a	n/a	0.0	1	left	n/a	n/a	n/a	0	-0.0165720897913	blockFiles/set_20/main_PD/GB_runPatches1.xlsx
159	patches	True	n/a	187	0	n/a	n/a	0.0	1	left	n/a	n/a	n/a	0	-0.059941926989699995	blockFiles/set_20/main_PD/GB_runPatches1.xlsx
160	patches	True	n/a	187	0	n/a	n/a	0.0	1	left	n/a	n/a	n/a	0	-0.0343065967411	blockFiles/set_20/main_PD/GB_runPatches1.xlsx
161	patches	True	n/a	187	0	n/a	n/a	1.0	1	right	n/a	n/a	n/a	1	0.04511176656930001	blockFiles/set_20/main_PD/GB_runPatches1.xlsx
162	patches	True	n/a	187	0	n/a	n/a	0.0	1	left	n/a	n/a	n/a	0	-0.04483380405230001	blockFiles/set_20/main_PD/GB_runPatches1.xlsx
163	patches	True	n/a	187	0	n/a	n/a	1.0	1	right	n/a	n/a	n/a	1	0.0200905466266	blockFiles/set_20/main_PD/GB_runPatches1.xlsx
164	patches	True	n/a	187	0	n/a	n/a	1.0	1	right	n/a	n/a	n/a	1	0.07339231872930001	blockFiles/set_20/main_PD/GB_runPatches1.xlsx
165	patches	True	n/a	187	0	n/a	n/a	0.0	1	left	n/a	n/a	n/a	0	-0.0500797682256	blockFiles/set_20/main_PD/GB_runPatches1.xlsx
166	patches	True	n/a	187	0	n/a	n/a	1.0	1	right	n/a	n/a	n/a	1	0.013586060851799999	blockFiles/set_20/main_PD/GB_runPatches1.xlsx
167	patches	True	n/a	187	0	n/a	n/a	0.0	1	left	n/a	n/a	n/a	0	-0.0529788596742	blockFiles/set_20/main_PD/GB_runPatches1.xlsx
168	patches	True	n/a	187	0	n/a	n/a	1.0	1	right	n/a	n/a	n/a	1	0.057723546121300005	blockFiles/set_20/main_PD/GB_runPatches1.xlsx
169	patches	True	n/a	187	0	n/a	n/a	1.0	1	right	n/a	n/a	n/a	1	0.0384139130637	blockFiles/set_20/main_PD/GB_runPatches1.xlsx
170	patches	True	n/a	187	0	n/a	n/a	1.0	1	right	n/a	n/a	n/a	1	0.026751569379099997	blockFiles/set_20/main_PD/GB_runPatches1.xlsx
171	patches	True	n/a	187	0	n/a	n/a	1.0	1	right	n/a	n/a	n/a	1	0.0258205798641	blockFiles/set_20/main_PD/GB_runPatches1.xlsx
172	patches	True	n/a	187	0	n/a	n/a	1.0	0	right	n/a	n/a	n/a	0	-0.0636196454428	blockFiles/set_20/main_PD/GB_runPatches1.xlsx
173	patches	True	n/a	187	0	n/a	n/a	0.0	1	left	n/a	n/a	n/a	0	-0.021327503696099998	blockFiles/set_20/main_PD/GB_runPatches1.xlsx
174	patches	True	n/a	187	0	n/a	n/a	1.0	1	right	n/a	n/a	n/a	1	0.040524854715900005	blockFiles/set_20/main_PD/GB_runPatches1.xlsx
175	patches	True	n/a	187	0	n/a	n/a	1.0	1	right	n/a	n/a	n/a	1	0.056039208825699995	blockFiles/set_20/main_PD/GB_runPatches1.xlsx
176	patches	True	n/a	187	0	n/a	n/a	1.0	1	right	n/a	n/a	n/a	1	0.00515220915899	blockFiles/set_20/main_PD/GB_runPatches1.xlsx
177	patches	True	n/a	187	0	n/a	n/a	0.0	1	left	n/a	n/a	n/a	0	-0.049957378059599995	blockFiles/set_20/main_PD/GB_runPatches1.xlsx
178	patches	True	n/a	187	0	n/a	n/a	1.0	1	right	n/a	n/a	n/a	1	0.0633262467198	blockFiles/set_20/main_PD/GB_runPatches1.xlsx
179	patches	True	n/a	187	0	n/a	n/a	1.0	0	right	n/a	n/a	n/a	0	-0.0303578843921	blockFiles/set_20/main_PD/GB_runPatches1.xlsx
180	patches	True	n/a	187	0	n/a	n/a	1.0	1	right	n/a	n/a	n/a	1	0.007659169714899999	blockFiles/set_20/main_PD/GB_runPatches1.xlsx
181	patches	True	n/a	187	0	n/a	n/a	1.0	1	right	n/a	n/a	n/a	1	0.0207445212826	blockFiles/set_20/main_PD/GB_runPatches1.xlsx
182	patches	True	n/a	187	0	n/a	n/a	0.0	1	left	n/a	n/a	n/a	0	-0.0695547190867	blockFiles/set_20/main_PD/GB_runPatches1.xlsx
183	patches	True	n/a	187	0	n/a	n/a	0.0	1	left	n/a	n/a	n/a	0	-0.0428573502786	blockFiles/set_20/main_PD/GB_runPatches1.xlsx
184	patches	True	n/a	187	0	n/a	n/a	1.0	1	right	n/a	n/a	n/a	1	0.0217770654894	blockFiles/set_20/main_PD/GB_runPatches1.xlsx
185	patches	True	n/a	187	0	n/a	n/a	0.0	1	left	n/a	n/a	n/a	0	-0.032796823699	blockFiles/set_20/main_PD/GB_runPatches1.xlsx
186	patches	True	n/a	187	0	n/a	n/a	1.0	1	right	n/a	n/a	n/a	1	0.0501939778402	blockFiles/set_20/main_PD/GB_runPatches1.xlsx
187	patches	True	n/a	187	0	n/a	n/a	1.0	1	right	n/a	n/a	n/a	1	0.0502317309193	blockFiles/set_20/main_PD/GB_runPatches1.xlsx
188	patches	True	n/a	187	0	n/a	n/a	1.0	1	right	n/a	n/a	n/a	1	0.0693303880654	blockFiles/set_20/main_PD/GB_runPatches1.xlsx
189	patches	True	n/a	187	0	n/a	n/a	0.0	1	left	n/a	n/a	n/a	0	-0.0323673046008	blockFiles/set_20/main_PD/GB_runPatches1.xlsx
190	patches	True	n/a	187	0	n/a	n/a	1.0	0	right	n/a	n/a	n/a	0	-0.033192845732	blockFiles/set_20/main_PD/GB_runPatches1.xlsx
191	patches	True	n/a	187	0	n/a	n/a	1.0	1	right	n/a	n/a	n/a	1	0.04040356058630001	blockFiles/set_20/main_PD/GB_runPatches1.xlsx
192	patches	True	n/a	187	0	n/a	n/a	0.0	1	left	n/a	n/a	n/a	0	-0.0682947079279	blockFiles/set_20/main_PD/GB_runPatches1.xlsx
193	patches	True	n/a	187	0	n/a	n/a	0.0	1	left	n/a	n/a	n/a	0	-0.0160196804442	blockFiles/set_20/main_PD/GB_runPatches1.xlsx
194	patches	True	n/a	187	0	n/a	n/a	0.0	1	left	n/a	n/a	n/a	0	-0.0454569604434	blockFiles/set_20/main_PD/GB_runPatches1.xlsx
195	patches	True	n/a	187	0	n/a	n/a	0.0	1	left	n/a	n/a	n/a	0	-0.0696705644205	blockFiles/set_20/main_PD/GB_runPatches1.xlsx
196	patches	True	n/a	187	0	n/a	n/a	0.0	0	left	n/a	n/a	n/a	1	0.0166341019981	blockFiles/set_20/main_PD/GB_runPatches1.xlsx
197	patches	True	n/a	187	0	n/a	n/a	1.0	1	right	n/a	n/a	n/a	1	0.0381416690908	blockFiles/set_20/main_PD/GB_runPatches1.xlsx
198	patches	True	n/a	187	0	n/a	n/a	0.0	1	left	n/a	n/a	n/a	0	-0.0517067084275	blockFiles/set_20/main_PD/GB_runPatches1.xlsx
199	patches	True	n/a	187	0	n/a	n/a	1.0	1	right	n/a	n/a	n/a	1	0.0441839466989	blockFiles/set_20/main_PD/GB_runPatches1.xlsx
200	patches	True	n/a	187	0	n/a	n/a	0.0	1	left	n/a	n/a	n/a	0	-0.047783251591	blockFiles/set_20/main_PD/GB_runPatches1.xlsx
201	patches	True	n/a	187	0	n/a	n/a	1.0	1	right	n/a	n/a	n/a	1	0.0037871819361999996	blockFiles/set_20/main_PD/GB_runPatches1.xlsx
202	patches	True	n/a	187	0	n/a	n/a	1.0	1	right	n/a	n/a	n/a	1	0.0341720639542	blockFiles/set_20/main_PD/GB_runPatches1.xlsx
203	patches	True	n/a	187	0	n/a	n/a	0.0	1	left	n/a	n/a	n/a	0	-0.06891767917200001	blockFiles/set_20/main_PD/GB_runPatches1.xlsx
204	patches	True	n/a	187	0	n/a	n/a	1.0	1	right	n/a	n/a	n/a	1	0.0005057056620719999	blockFiles/set_20/main_PD/GB_runPatches1.xlsx
205	patches	True	n/a	187	0	n/a	n/a	0.0	1	left	n/a	n/a	n/a	0	-0.056313378904	blockFiles/set_20/main_PD/GB_runPatches1.xlsx
206	patches	True	n/a	187	0	n/a	n/a	0.0	1	left	n/a	n/a	n/a	0	-0.04329234423119999	blockFiles/set_20/main_PD/GB_runPatches1.xlsx
207	patches	True	n/a	187	0	n/a	n/a	0.0	1	left	n/a	n/a	n/a	0	-0.021734872478999998	blockFiles/set_20/main_PD/GB_runPatches1.xlsx
208	patches	True	n/a	187	0	n/a	n/a	0.0	1	left	n/a	n/a	n/a	0	-0.0559555738419	blockFiles/set_20/main_PD/GB_runPatches1.xlsx
209	patches	True	n/a	187	0	n/a	n/a	0.0	0	left	n/a	n/a	n/a	1	0.00762717088684	blockFiles/set_20/main_PD/GB_runPatches1.xlsx
210	patches	True	n/a	187	0	n/a	n/a	0.0	1	left	n/a	n/a	n/a	0	-0.0549518790469	blockFiles/set_20/main_PD/GB_runPatches1.xlsx
211	patches	True	n/a	187	0	n/a	n/a	1.0	1	right	n/a	n/a	n/a	1	0.029283128119999998	blockFiles/set_20/main_PD/GB_runPatches1.xlsx
212	patches	True	n/a	187	0	n/a	n/a	0.0	1	left	n/a	n/a	n/a	0	-0.0657890722342	blockFiles/set_20/main_PD/GB_runPatches1.xlsx
213	patches	True	n/a	187	0	n/a	n/a	1.0	0	right	n/a	n/a	n/a	0	-0.00682571602985	blockFiles/set_20/main_PD/GB_runPatches1.xlsx
214	patches	True	n/a	187	0	n/a	n/a	1.0	1	right	n/a	n/a	n/a	1	0.0539912483282	blockFiles/set_20/main_PD/GB_runPatches1.xlsx
215	patches	True	n/a	187	0	n/a	n/a	1.0	1	right	n/a	n/a	n/a	1	0.0368693121895	blockFiles/set_20/main_PD/GB_runPatches1.xlsx
216	patches	True	n/a	187	0	n/a	n/a	0.0	1	left	n/a	n/a	n/a	0	-0.012520287782000001	blockFiles/set_20/main_PD/GB_runPatches1.xlsx
217	patches	True	n/a	187	0	n/a	n/a	0.0	1	left	n/a	n/a	n/a	0	-0.07368264693769999	blockFiles/set_20/main_PD/GB_runPatches1.xlsx
218	patches	True	n/a	187	0	n/a	n/a	1.0	1	right	n/a	n/a	n/a	1	0.029006325528	blockFiles/set_20/main_PD/GB_runPatches1.xlsx
219	patches	True	n/a	187	0	n/a	n/a	1.0	1	right	n/a	n/a	n/a	1	0.0170713329501	blockFiles/set_20/main_PD/GB_runPatches1.xlsx
220	patches	True	n/a	187	0	n/a	n/a	1.0	1	right	n/a	n/a	n/a	1	0.044970711004	blockFiles/set_20/main_PD/GB_runPatches1.xlsx
221	patches	True	n/a	187	0	n/a	n/a	0.0	0	left	n/a	n/a	n/a	1	0.0119432594068	blockFiles/set_20/main_PD/GB_runPatches1.xlsx
222	patches	True	n/a	187	0	n/a	n/a	1.0	1	right	n/a	n/a	n/a	1	0.06815131476149999	blockFiles/set_20/main_PD/GB_runPatches1.xlsx
223	patches	True	n/a	187	0	n/a	n/a	1.0	0	right	n/a	n/a	n/a	0	-0.0122144813463	blockFiles/set_20/main_PD/GB_runPatches1.xlsx
224	patches	True	n/a	187	0	n/a	n/a	0.0	1	left	n/a	n/a	n/a	0	-0.0368901351281	blockFiles/set_20/main_PD/GB_runPatches1.xlsx
225	patches	True	n/a	187	0	n/a	n/a	1.0	1	right	n/a	n/a	n/a	1	0.040533107966199994	blockFiles/set_20/main_PD/GB_runPatches1.xlsx
226	patches	True	n/a	187	0	n/a	n/a	0.0	1	left	n/a	n/a	n/a	0	-0.050852779820600005	blockFiles/set_20/main_PD/GB_runPatches1.xlsx
227	patches	True	n/a	187	0	n/a	n/a	0.0	1	left	n/a	n/a	n/a	0	-0.032570605352500004	blockFiles/set_20/main_PD/GB_runPatches1.xlsx
228	patches	True	n/a	187	0	n/a	n/a	0.0	1	left	n/a	n/a	n/a	0	-0.0567197367549	blockFiles/set_20/main_PD/GB_runPatches1.xlsx
229	patches	True	n/a	187	0	n/a	n/a	1.0	1	right	n/a	n/a	n/a	1	0.047861104235100004	blockFiles/set_20/main_PD/GB_runPatches1.xlsx
230	patches	True	n/a	187	0	n/a	n/a	1.0	0	right	n/a	n/a	n/a	0	-0.0149353626184	blockFiles/set_20/main_PD/GB_runPatches1.xlsx
231	patches	True	n/a	187	0	n/a	n/a	1.0	1	right	n/a	n/a	n/a	1	0.030193501710900003	blockFiles/set_20/main_PD/GB_runPatches1.xlsx
232	patches	True	n/a	187	0	n/a	n/a	1.0	1	right	n/a	n/a	n/a	1	0.073509085793	blockFiles/set_20/main_PD/GB_runPatches1.xlsx
233	patches	True	n/a	187	0	n/a	n/a	1.0	0	right	n/a	n/a	n/a	0	-0.00253985539079	blockFiles/set_20/main_PD/GB_runPatches1.xlsx
234	patches	True	n/a	187	0	n/a	n/a	0.0	1	left	n/a	n/a	n/a	0	-0.0202710352838	blockFiles/set_20/main_PD/GB_runPatches1.xlsx
235	patches	True	n/a	187	0	n/a	n/a	1.0	1	right	n/a	n/a	n/a	1	0.00294082757086	blockFiles/set_20/main_PD/GB_runPatches1.xlsx
236	patches	True	n/a	187	0	n/a	n/a	0.0	1	left	n/a	n/a	n/a	0	-0.0767528924346	blockFiles/set_20/main_PD/GB_runPatches1.xlsx
237	patches	True	n/a	187	0	n/a	n/a	1.0	1	right	n/a	n/a	n/a	1	0.0640046175756	blockFiles/set_20/main_PD/GB_runPatches1.xlsx
238	patches	True	n/a	187	0	n/a	n/a	0.0	1	left	n/a	n/a	n/a	0	-0.0671567536704	blockFiles/set_20/main_PD/GB_runPatches1.xlsx
239	patches	True	n/a	187	0	n/a	n/a	1.0	1	right	n/a	n/a	n/a	1	0.0016954635456199998	blockFiles/set_20/main_PD/GB_runPatches1.xlsx
240	patches	True	n/a	187	0	n/a	n/a	1.0	0	right	n/a	n/a	n/a	0	-0.027200902178899998	blockFiles/set_20/main_PD/GB_runPatches1.xlsx
241	patches	True	n/a	187	0	n/a	n/a	0.0	1	left	n/a	n/a	n/a	0	-0.0575676357746	blockFiles/set_20/main_PD/GB_runPatches1.xlsx
242	patches	True	n/a	187	0	n/a	n/a	0.0	1	left	n/a	n/a	n/a	0	-0.0031226156279400004	blockFiles/set_20/main_PD/GB_runPatches1.xlsx
243	patches	True	n/a	187	0	n/a	n/a	1.0	1	right	n/a	n/a	n/a	1	0.040937137715500005	blockFiles/set_20/main_PD/GB_runPatches1.xlsx
244	patches	True	n/a	187	0	n/a	n/a	0.0	1	left	n/a	n/a	n/a	0	-0.0729426233098	blockFiles/set_20/main_PD/GB_runPatches1.xlsx
245	patches	True	n/a	187	0	n/a	n/a	0.0	1	left	n/a	n/a	n/a	0	-0.0312810876034	blockFiles/set_20/main_PD/GB_runPatches1.xlsx
246	patches	True	n/a	187	0	n/a	n/a	0.0	1	left	n/a	n/a	n/a	0	-0.065284851566	blockFiles/set_20/main_PD/GB_runPatches1.xlsx
247	patches	True	n/a	187	0	n/a	n/a	0.0	0	left	n/a	n/a	n/a	1	0.00056455951184	blockFiles/set_20/main_PD/GB_runPatches1.xlsx
248	patches	True	n/a	187	0	n/a	n/a	1.0	1	right	n/a	n/a	n/a	1	0.0426990603283	blockFiles/set_20/main_PD/GB_runPatches1.xlsx
249	patches	True	n/a	187	0	n/a	n/a	1.0	1	right	n/a	n/a	n/a	1	0.0284987772629	blockFiles/set_20/main_PD/GB_runPatches1.xlsx
250	main_unc	True	0.0	187	0	0.0	0.0	0.0	1	left	1.0	1.0	1.0	0	-0.0710424504057	blockFiles/set_20/main_unc/rightBlue\GB_RB_1.xlsx
251	main_unc	True	0.0	187	0	0.0	0.0	1.0	1	right	1.0	0.0	0.0	1	0.0639105165191	blockFiles/set_20/main_unc/rightBlue\GB_RB_1.xlsx
252	main_unc	True	0.0	187	0	0.0	0.0	1.0	1	right	1.0	0.0	0.0	1	0.07112371720369999	blockFiles/set_20/main_unc/rightBlue\GB_RB_1.xlsx
253	main_unc	True	0.0	187	0	0.0	0.0	1.0	1	right	1.0	0.0	0.0	1	0.0215479499288	blockFiles/set_20/main_unc/rightBlue\GB_RB_1.xlsx
254	main_unc	True	0.0	187	0	0.0	0.0	1.0	0	right	2.0	0.0	0.0	0	-0.0104636948928	blockFiles/set_20/main_unc/rightBlue\GB_RB_1.xlsx
255	main_unc	True	0.0	187	0	0.0	0.0	0.0	1	left	2.0	0.0	0.0	0	-0.0501370071992	blockFiles/set_20/main_unc/rightBlue\GB_RB_1.xlsx
256	main_unc	True	0.0	187	0	0.0	0.0	0.0	1	left	2.0	0.0	0.0	0	-0.057418932188300006	blockFiles/set_20/main_unc/rightBlue\GB_RB_1.xlsx
257	main_unc	True	0.0	187	0	0.0	0.0	0.0	0	left	2.0	1.0	1.0	1	0.00457135258242	blockFiles/set_20/main_unc/rightBlue\GB_RB_1.xlsx
258	main_unc	True	0.0	187	0	0.0	0.0	1.0	1	right	2.0	1.0	1.0	1	0.00817113244906	blockFiles/set_20/main_unc/rightBlue\GB_RB_1.xlsx
259	main_unc	True	0.0	187	0	0.0	0.0	1.0	1	right	1.0	0.0	0.0	1	0.0752270143107	blockFiles/set_20/main_unc/rightBlue\GB_RB_1.xlsx
260	main_unc	True	0.0	187	0	0.0	0.0	0.0	1	left	2.0	0.0	0.0	0	-0.0489673947915	blockFiles/set_20/main_unc/rightBlue\GB_RB_1.xlsx
261	main_unc	True	0.0	187	0	0.0	0.0	1.0	1	right	1.0	0.0	0.0	1	0.037638929951900005	blockFiles/set_20/main_unc/rightBlue\GB_RB_1.xlsx
262	main_unc	True	0.0	187	0	0.0	0.0	1.0	1	right	1.0	0.0	0.0	1	0.057597222905599994	blockFiles/set_20/main_unc/rightBlue\GB_RB_1.xlsx
263	main_unc	True	0.0	187	0	0.0	0.0	1.0	1	right	1.0	1.0	0.0	1	0.0101778935455	blockFiles/set_20/main_unc/rightBlue\GB_RB_1.xlsx
264	main_unc	True	0.0	187	0	0.0	0.0	0.0	1	left	1.0	1.0	1.0	0	-0.0442222324759	blockFiles/set_20/main_unc/rightBlue\GB_RB_1.xlsx
265	main_unc	True	0.0	187	0	0.0	0.0	1.0	0	right	2.0	1.0	0.0	0	-0.0268285566755	blockFiles/set_20/main_unc/rightBlue\GB_RB_1.xlsx
266	main_unc	True	0.0	187	0	0.0	0.0	0.0	1	left	1.0	1.0	1.0	0	-0.0353836748376	blockFiles/set_20/main_unc/rightBlue\GB_RB_1.xlsx
267	main_unc	True	0.0	187	0	0.0	0.0	0.0	0	left	1.0	0.0	0.0	1	0.0135850785859	blockFiles/set_20/main_unc/rightBlue\GB_RB_1.xlsx
268	main_unc	True	0.0	187	0	0.0	0.0	1.0	1	right	1.0	0.0	0.0	1	0.07201223675160001	blockFiles/set_20/main_unc/rightBlue\GB_RB_1.xlsx
269	main_unc	True	0.0	187	0	0.0	0.0	1.0	0	right	1.0	0.0	1.0	0	-0.00744629282504	blockFiles/set_20/main_unc/rightBlue\GB_RB_1.xlsx
270	main_unc	True	0.0	187	0	0.0	0.0	1.0	1	right	1.0	0.0	0.0	1	0.05420138668269999	blockFiles/set_20/main_unc/rightBlue\GB_RB_1.xlsx
271	main_unc	True	0.0	187	0	0.0	0.0	1.0	1	right	2.0	1.0	1.0	1	0.0718873581104	blockFiles/set_20/main_unc/rightBlue\GB_RB_1.xlsx
272	main_unc	True	0.0	187	0	0.0	0.0	0.0	1	left	2.0	1.0	0.0	0	-0.0662811998092	blockFiles/set_20/main_unc/rightBlue\GB_RB_1.xlsx
273	main_unc	True	0.0	187	0	0.0	0.0	0.0	1	left	1.0	1.0	1.0	0	-0.0421733218804	blockFiles/set_20/main_unc/rightBlue\GB_RB_1.xlsx
274	main_unc	True	0.0	187	0	0.0	0.0	1.0	1	right	2.0	1.0	1.0	1	0.0677441998757	blockFiles/set_20/main_unc/rightBlue\GB_RB_1.xlsx
275	main_unc	True	0.0	187	0	1.0	1.0	1.0	1	right	2.0	1.0	1.0	1	0.020249099060900003	blockFiles/set_20/main_unc/rightBlue\GB_RB_2.xlsx
276	main_unc	True	0.0	187	0	1.0	1.0	1.0	1	right	2.0	1.0	1.0	1	0.005476596672089999	blockFiles/set_20/main_unc/rightBlue\GB_RB_2.xlsx
277	main_unc	True	0.0	187	0	1.0	1.0	0.0	1	left	2.0	1.0	0.0	0	-0.051588103808500006	blockFiles/set_20/main_unc/rightBlue\GB_RB_2.xlsx
278	main_unc	True	0.0	187	0	1.0	1.0	1.0	1	right	2.0	1.0	1.0	1	0.0423207855038	blockFiles/set_20/main_unc/rightBlue\GB_RB_2.xlsx
279	main_unc	True	0.0	187	0	1.0	1.0	0.0	1	left	2.0	0.0	0.0	0	-0.034336279984599996	blockFiles/set_20/main_unc/rightBlue\GB_RB_2.xlsx
280	main_unc	True	0.0	187	0	1.0	1.0	1.0	1	right	2.0	1.0	1.0	1	0.035885480418800006	blockFiles/set_20/main_unc/rightBlue\GB_RB_2.xlsx
281	main_unc	True	0.0	187	0	1.0	1.0	1.0	1	right	2.0	1.0	1.0	1	0.0450591029041	blockFiles/set_20/main_unc/rightBlue\GB_RB_2.xlsx
282	main_unc	True	0.0	187	0	1.0	1.0	0.0	1	left	2.0	0.0	0.0	0	-0.025526733100400004	blockFiles/set_20/main_unc/rightBlue\GB_RB_2.xlsx
283	main_unc	True	0.0	187	0	1.0	1.0	0.0	1	left	2.0	0.0	0.0	0	-0.0582929173484	blockFiles/set_20/main_unc/rightBlue\GB_RB_2.xlsx
284	main_unc	True	0.0	187	0	1.0	1.0	0.0	0	left	2.0	1.0	1.0	1	0.000463552772999	blockFiles/set_20/main_unc/rightBlue\GB_RB_2.xlsx
285	main_unc	True	0.0	187	0	1.0	1.0	0.0	1	left	2.0	1.0	0.0	0	-0.0628761780076	blockFiles/set_20/main_unc/rightBlue\GB_RB_2.xlsx
286	main_unc	True	0.0	187	0	1.0	1.0	1.0	1	right	2.0	1.0	1.0	1	0.0300071677193	blockFiles/set_20/main_unc/rightBlue\GB_RB_2.xlsx
287	main_unc	True	0.0	187	0	1.0	1.0	1.0	1	right	2.0	1.0	1.0	1	0.0029605383984699996	blockFiles/set_20/main_unc/rightBlue\GB_RB_2.xlsx
288	main_unc	True	0.0	187	0	1.0	1.0	0.0	1	left	2.0	1.0	0.0	0	-0.0755854448862	blockFiles/set_20/main_unc/rightBlue\GB_RB_2.xlsx
289	main_unc	True	0.0	187	0	1.0	1.0	1.0	1	right	2.0	1.0	1.0	1	0.0294437208213	blockFiles/set_20/main_unc/rightBlue\GB_RB_2.xlsx
290	main_unc	True	0.0	187	0	1.0	1.0	0.0	1	left	2.0	0.0	0.0	0	-0.0796478793211	blockFiles/set_20/main_unc/rightBlue\GB_RB_2.xlsx
291	main_unc	True	0.0	187	0	1.0	1.0	1.0	1	right	2.0	0.0	1.0	1	0.0507544506155	blockFiles/set_20/main_unc/rightBlue\GB_RB_2.xlsx
292	main_unc	True	0.0	187	0	1.0	1.0	0.0	1	left	2.0	0.0	0.0	0	-0.0178657661751	blockFiles/set_20/main_unc/rightBlue\GB_RB_2.xlsx
293	main_unc	True	0.0	187	0	1.0	1.0	1.0	1	right	2.0	1.0	1.0	1	0.0176340469718	blockFiles/set_20/main_unc/rightBlue\GB_RB_2.xlsx
294	main_unc	True	0.0	187	0	1.0	1.0	1.0	1	right	2.0	0.0	1.0	1	0.0626345675997	blockFiles/set_20/main_unc/rightBlue\GB_RB_2.xlsx
295	main_unc	True	0.0	187	0	1.0	1.0	0.0	1	left	2.0	0.0	0.0	0	-0.043060520794199995	blockFiles/set_20/main_unc/rightBlue\GB_RB_2.xlsx
296	main_unc	True	0.0	187	0	1.0	1.0	0.0	1	left	2.0	0.0	0.0	0	-0.0653102606535	blockFiles/set_20/main_unc/rightBlue\GB_RB_2.xlsx
297	main_unc	True	0.0	187	0	1.0	1.0	0.0	1	left	2.0	0.0	0.0	0	-0.0597706148587	blockFiles/set_20/main_unc/rightBlue\GB_RB_2.xlsx
298	main_unc	True	0.0	187	0	1.0	1.0	0.0	1	left	2.0	0.0	0.0	0	-0.0556064169109	blockFiles/set_20/main_unc/rightBlue\GB_RB_2.xlsx
299	main_unc	True	0.0	187	0	1.0	1.0	1.0	1	right	2.0	1.0	1.0	1	0.0111441756971	blockFiles/set_20/main_unc/rightBlue\GB_RB_2.xlsx
300	main_unc	True	0.0	187	0	2.0	2.0	1.0	1	right	1.0	1.0	1.0	1	0.0404412338324	blockFiles/set_20/main_unc/leftBlue\GB_LB_4.xlsx
301	main_unc	True	0.0	187	0	2.0	2.0	1.0	1	right	1.0	1.0	1.0	1	0.0492741984129	blockFiles/set_20/main_unc/leftBlue\GB_LB_4.xlsx
302	main_unc	True	0.0	187	0	2.0	2.0	0.0	1	left	1.0	0.0	0.0	0	-0.0209927931242	blockFiles/set_20/main_unc/leftBlue\GB_LB_4.xlsx
303	main_unc	True	0.0	187	0	2.0	2.0	1.0	1	right	1.0	1.0	1.0	1	0.010399003606299998	blockFiles/set_20/main_unc/leftBlue\GB_LB_4.xlsx
304	main_unc	True	0.0	187	0	2.0	2.0	0.0	1	left	1.0	1.0	0.0	0	-0.0332073852606	blockFiles/set_20/main_unc/leftBlue\GB_LB_4.xlsx
305	main_unc	True	0.0	187	0	2.0	2.0	0.0	1	left	1.0	0.0	0.0	0	-0.0659219029546	blockFiles/set_20/main_unc/leftBlue\GB_LB_4.xlsx
306	main_unc	True	0.0	187	0	2.0	2.0	0.0	1	left	1.0	0.0	0.0	0	-0.06705818407240001	blockFiles/set_20/main_unc/leftBlue\GB_LB_4.xlsx
307	main_unc	True	0.0	187	0	2.0	2.0	1.0	1	right	1.0	1.0	1.0	1	0.0476511169225	blockFiles/set_20/main_unc/leftBlue\GB_LB_4.xlsx
308	main_unc	True	0.0	187	0	2.0	2.0	1.0	1	right	1.0	1.0	1.0	1	0.0176845264621	blockFiles/set_20/main_unc/leftBlue\GB_LB_4.xlsx
309	main_unc	True	0.0	187	0	2.0	2.0	1.0	0	right	1.0	0.0	0.0	0	-0.0045347780548	blockFiles/set_20/main_unc/leftBlue\GB_LB_4.xlsx
310	main_unc	True	0.0	187	0	2.0	2.0	1.0	1	right	1.0	1.0	1.0	1	0.041657524574500004	blockFiles/set_20/main_unc/leftBlue\GB_LB_4.xlsx
311	main_unc	True	0.0	187	0	2.0	2.0	0.0	1	left	1.0	0.0	0.0	0	-0.0613858218864	blockFiles/set_20/main_unc/leftBlue\GB_LB_4.xlsx
312	main_unc	True	0.0	187	0	2.0	2.0	0.0	0	left	2.0	0.0	0.0	1	0.022894345372900003	blockFiles/set_20/main_unc/leftBlue\GB_LB_4.xlsx
313	main_unc	True	0.0	187	0	2.0	2.0	1.0	1	right	1.0	1.0	1.0	1	0.0708402771503	blockFiles/set_20/main_unc/leftBlue\GB_LB_4.xlsx
314	main_unc	True	0.0	187	0	2.0	2.0	0.0	1	left	1.0	0.0	0.0	0	-0.07626787897199999	blockFiles/set_20/main_unc/leftBlue\GB_LB_4.xlsx
315	main_unc	True	0.0	187	0	2.0	2.0	0.0	1	left	1.0	0.0	0.0	0	-0.00474526822567	blockFiles/set_20/main_unc/leftBlue\GB_LB_4.xlsx
316	main_unc	True	0.0	187	0	2.0	2.0	1.0	1	right	1.0	1.0	1.0	1	0.0452018502541	blockFiles/set_20/main_unc/leftBlue\GB_LB_4.xlsx
317	main_unc	True	0.0	187	0	2.0	2.0	0.0	0	left	2.0	0.0	0.0	1	0.029610268305999998	blockFiles/set_20/main_unc/leftBlue\GB_LB_4.xlsx
318	main_unc	True	0.0	187	0	2.0	2.0	1.0	1	right	1.0	0.0	1.0	1	0.0361551516876	blockFiles/set_20/main_unc/leftBlue\GB_LB_4.xlsx
319	main_unc	True	0.0	187	0	2.0	2.0	0.0	1	left	1.0	0.0	0.0	0	-0.020842733234200002	blockFiles/set_20/main_unc/leftBlue\GB_LB_4.xlsx
320	main_unc	True	0.0	187	0	2.0	2.0	0.0	1	left	1.0	1.0	0.0	0	-0.0222025381029	blockFiles/set_20/main_unc/leftBlue\GB_LB_4.xlsx
321	main_unc	True	0.0	187	0	2.0	2.0	1.0	1	right	1.0	1.0	1.0	1	0.0519808584824	blockFiles/set_20/main_unc/leftBlue\GB_LB_4.xlsx
322	main_unc	True	0.0	187	0	2.0	2.0	1.0	1	right	1.0	1.0	1.0	1	0.07830641033130001	blockFiles/set_20/main_unc/leftBlue\GB_LB_4.xlsx
323	main_unc	True	0.0	187	0	2.0	2.0	1.0	1	right	1.0	0.0	1.0	1	0.031567099317900006	blockFiles/set_20/main_unc/leftBlue\GB_LB_4.xlsx
324	main_unc	True	0.0	187	0	2.0	2.0	0.0	1	left	1.0	0.0	0.0	0	-0.0729531887732	blockFiles/set_20/main_unc/leftBlue\GB_LB_4.xlsx
325	main_unc	True	0.0	187	0	3.0	3.0	0.0	1	left	1.0	0.0	0.0	0	-0.072855218295	blockFiles/set_20/main_unc/leftBlue\GB_LB_6.xlsx
326	main_unc	True	0.0	187	0	3.0	3.0	0.0	1	left	2.0	1.0	1.0	0	-0.057322865035399996	blockFiles/set_20/main_unc/leftBlue\GB_LB_6.xlsx
327	main_unc	True	0.0	187	0	3.0	3.0	1.0	1	right	2.0	0.0	0.0	1	0.0240830396302	blockFiles/set_20/main_unc/leftBlue\GB_LB_6.xlsx
328	main_unc	True	0.0	187	0	3.0	3.0	1.0	1	right	2.0	0.0	0.0	1	0.029972685687199997	blockFiles/set_20/main_unc/leftBlue\GB_LB_6.xlsx
329	main_unc	True	0.0	187	0	3.0	3.0	1.0	1	right	2.0	0.0	0.0	1	0.0724886503443	blockFiles/set_20/main_unc/leftBlue\GB_LB_6.xlsx
330	main_unc	True	0.0	187	0	3.0	3.0	1.0	1	right	1.0	1.0	1.0	1	0.038662143163400005	blockFiles/set_20/main_unc/leftBlue\GB_LB_6.xlsx
331	main_unc	True	0.0	187	0	3.0	3.0	1.0	0	right	1.0	1.0	0.0	0	-0.000726898889989	blockFiles/set_20/main_unc/leftBlue\GB_LB_6.xlsx
332	main_unc	True	0.0	187	0	3.0	3.0	0.0	1	left	1.0	0.0	0.0	0	-0.0627999052405	blockFiles/set_20/main_unc/leftBlue\GB_LB_6.xlsx
333	main_unc	True	0.0	187	0	3.0	3.0	1.0	1	right	1.0	0.0	1.0	1	0.013285779282500002	blockFiles/set_20/main_unc/leftBlue\GB_LB_6.xlsx
334	main_unc	True	0.0	187	0	3.0	3.0	0.0	1	left	1.0	0.0	0.0	0	-0.0559068985842	blockFiles/set_20/main_unc/leftBlue\GB_LB_6.xlsx
335	main_unc	True	0.0	187	0	3.0	3.0	1.0	1	right	1.0	0.0	1.0	1	0.0509783800505	blockFiles/set_20/main_unc/leftBlue\GB_LB_6.xlsx
336	main_unc	True	0.0	187	0	3.0	3.0	0.0	1	left	1.0	0.0	0.0	0	-0.008737253714350001	blockFiles/set_20/main_unc/leftBlue\GB_LB_6.xlsx
337	main_unc	True	0.0	187	0	3.0	3.0	0.0	1	left	1.0	0.0	0.0	0	-0.0633912589401	blockFiles/set_20/main_unc/leftBlue\GB_LB_6.xlsx
338	main_unc	True	0.0	187	0	3.0	3.0	0.0	1	left	2.0	1.0	1.0	0	-0.0309878718853	blockFiles/set_20/main_unc/leftBlue\GB_LB_6.xlsx
339	main_unc	True	0.0	187	0	3.0	3.0	0.0	1	left	2.0	1.0	1.0	0	-0.053217608761	blockFiles/set_20/main_unc/leftBlue\GB_LB_6.xlsx
340	main_unc	True	0.0	187	0	3.0	3.0	0.0	0	left	1.0	1.0	1.0	1	0.05260283200069999	blockFiles/set_20/main_unc/leftBlue\GB_LB_6.xlsx
341	main_unc	True	0.0	187	0	3.0	3.0	1.0	1	right	2.0	0.0	0.0	1	0.0111797088571	blockFiles/set_20/main_unc/leftBlue\GB_LB_6.xlsx
342	main_unc	True	0.0	187	0	3.0	3.0	0.0	1	left	2.0	0.0	1.0	0	-0.0201613448933	blockFiles/set_20/main_unc/leftBlue\GB_LB_6.xlsx
343	main_unc	True	0.0	187	0	3.0	3.0	1.0	1	right	2.0	0.0	0.0	1	0.05721317198130001	blockFiles/set_20/main_unc/leftBlue\GB_LB_6.xlsx
344	main_unc	True	0.0	187	0	3.0	3.0	1.0	1	right	1.0	1.0	1.0	1	0.0334708483517	blockFiles/set_20/main_unc/leftBlue\GB_LB_6.xlsx
345	main_unc	True	0.0	187	0	3.0	3.0	1.0	0	right	2.0	0.0	1.0	0	-0.04835836818440001	blockFiles/set_20/main_unc/leftBlue\GB_LB_6.xlsx
346	main_unc	True	0.0	187	0	3.0	3.0	1.0	1	right	1.0	1.0	1.0	1	0.037025318257499995	blockFiles/set_20/main_unc/leftBlue\GB_LB_6.xlsx
347	main_unc	True	0.0	187	0	3.0	3.0	1.0	1	right	1.0	1.0	1.0	1	0.034223985951400006	blockFiles/set_20/main_unc/leftBlue\GB_LB_6.xlsx
348	main_unc	True	1.0	187	0	3.0	3.0	n/a	0	None	n/a	0.0	n/a	0	-0.0506078150123	blockFiles/set_20/main_unc/leftBlue\GB_LB_6.xlsx
349	main_unc	True	0.0	187	0	3.0	3.0	1.0	1	right	1.0	1.0	1.0	1	0.07975474385539999	blockFiles/set_20/main_unc/leftBlue\GB_LB_6.xlsx
350	main_unc	True	0.0	187	0	3.0	3.0	0.0	1	left	1.0	0.0	0.0	0	-0.0506078150123	blockFiles/set_20/main_unc/leftBlue\GB_LB_6.xlsx
351	main_unc	True	0.0	187	0	4.0	4.0	0.0	1	left	2.0	0.0	0.0	0	-0.0574028336816	blockFiles/set_20/main_unc/rightBlue\GB_RB_3.xlsx
352	main_unc	True	0.0	187	0	4.0	4.0	1.0	1	right	1.0	0.0	0.0	1	0.0469107913412	blockFiles/set_20/main_unc/rightBlue\GB_RB_3.xlsx
353	main_unc	True	0.0	187	0	4.0	4.0	1.0	1	right	2.0	0.0	1.0	1	0.068543007113	blockFiles/set_20/main_unc/rightBlue\GB_RB_3.xlsx
354	main_unc	True	0.0	187	0	4.0	4.0	1.0	1	right	2.0	1.0	1.0	1	0.0283681666665	blockFiles/set_20/main_unc/rightBlue\GB_RB_3.xlsx
355	main_unc	True	0.0	187	0	4.0	4.0	1.0	1	right	2.0	1.0	1.0	1	0.0331852424331	blockFiles/set_20/main_unc/rightBlue\GB_RB_3.xlsx
356	main_unc	True	0.0	187	0	4.0	4.0	1.0	1	right	2.0	0.0	1.0	1	0.0712309453823	blockFiles/set_20/main_unc/rightBlue\GB_RB_3.xlsx
357	main_unc	True	0.0	187	0	4.0	4.0	0.0	1	left	2.0	0.0	0.0	0	-0.0392310812324	blockFiles/set_20/main_unc/rightBlue\GB_RB_3.xlsx
358	main_unc	True	0.0	187	0	4.0	4.0	0.0	1	left	2.0	0.0	0.0	0	-0.0118832842261	blockFiles/set_20/main_unc/rightBlue\GB_RB_3.xlsx
359	main_unc	True	0.0	187	0	4.0	4.0	0.0	1	left	2.0	0.0	0.0	0	-0.0656599181704	blockFiles/set_20/main_unc/rightBlue\GB_RB_3.xlsx
360	main_unc	True	0.0	187	0	4.0	4.0	0.0	1	left	2.0	1.0	0.0	0	-0.0719301783293	blockFiles/set_20/main_unc/rightBlue\GB_RB_3.xlsx
361	main_unc	True	0.0	187	0	4.0	4.0	0.0	1	left	2.0	0.0	0.0	0	-0.0276462935098	blockFiles/set_20/main_unc/rightBlue\GB_RB_3.xlsx
362	main_unc	True	0.0	187	0	4.0	4.0	0.0	1	left	2.0	0.0	0.0	0	-0.0102096772566	blockFiles/set_20/main_unc/rightBlue\GB_RB_3.xlsx
363	main_unc	True	0.0	187	0	4.0	4.0	1.0	1	right	1.0	1.0	0.0	1	0.042112625893199994	blockFiles/set_20/main_unc/rightBlue\GB_RB_3.xlsx
364	main_unc	True	0.0	187	0	4.0	4.0	1.0	1	right	1.0	0.0	0.0	1	0.010777661930799999	blockFiles/set_20/main_unc/rightBlue\GB_RB_3.xlsx
365	main_unc	True	0.0	187	0	4.0	4.0	0.0	0	left	2.0	1.0	1.0	1	0.00731932412833	blockFiles/set_20/main_unc/rightBlue\GB_RB_3.xlsx
366	main_unc	True	0.0	187	0	4.0	4.0	1.0	1	right	1.0	0.0	0.0	1	0.049145305734099996	blockFiles/set_20/main_unc/rightBlue\GB_RB_3.xlsx
367	main_unc	True	0.0	187	0	4.0	4.0	1.0	1	right	1.0	0.0	0.0	1	0.0336548713967	blockFiles/set_20/main_unc/rightBlue\GB_RB_3.xlsx
368	main_unc	True	0.0	187	0	4.0	4.0	1.0	1	right	2.0	0.0	1.0	1	0.06330816539	blockFiles/set_20/main_unc/rightBlue\GB_RB_3.xlsx
369	main_unc	True	0.0	187	0	4.0	4.0	1.0	0	right	1.0	1.0	1.0	0	-0.0680075531639	blockFiles/set_20/main_unc/rightBlue\GB_RB_3.xlsx
370	main_unc	True	0.0	187	0	4.0	4.0	1.0	1	right	2.0	1.0	1.0	1	0.0563907233067	blockFiles/set_20/main_unc/rightBlue\GB_RB_3.xlsx
371	main_unc	True	0.0	187	0	4.0	4.0	0.0	1	left	2.0	0.0	0.0	0	-0.0256482111476	blockFiles/set_20/main_unc/rightBlue\GB_RB_3.xlsx
372	main_unc	True	0.0	187	0	4.0	4.0	1.0	1	right	2.0	1.0	1.0	1	0.0788068545237	blockFiles/set_20/main_unc/rightBlue\GB_RB_3.xlsx
373	main_unc	True	0.0	187	0	4.0	4.0	0.0	1	left	2.0	0.0	0.0	0	-0.0194259412959	blockFiles/set_20/main_unc/rightBlue\GB_RB_3.xlsx
374	main_unc	True	0.0	187	0	4.0	4.0	0.0	1	left	2.0	0.0	0.0	0	-0.0333248570561	blockFiles/set_20/main_unc/rightBlue\GB_RB_3.xlsx
375	main_unc	True	0.0	187	0	4.0	4.0	0.0	1	left	2.0	0.0	0.0	0	-0.0368358552083	blockFiles/set_20/main_unc/rightBlue\GB_RB_3.xlsx
376	main_unc	True	0.0	187	0	5.0	5.0	0.0	1	left	1.0	1.0	1.0	0	-0.056342197842899996	blockFiles/set_20/main_unc/rightBlue\GB_RB_5.xlsx
377	main_unc	True	0.0	187	0	5.0	5.0	1.0	1	right	1.0	0.0	0.0	1	0.07561848396439999	blockFiles/set_20/main_unc/rightBlue\GB_RB_5.xlsx
378	main_unc	True	0.0	187	0	5.0	5.0	1.0	1	right	1.0	0.0	0.0	1	0.00908352026716	blockFiles/set_20/main_unc/rightBlue\GB_RB_5.xlsx
379	main_unc	True	0.0	187	0	5.0	5.0	1.0	1	right	1.0	0.0	0.0	1	0.058828692026399995	blockFiles/set_20/main_unc/rightBlue\GB_RB_5.xlsx
380	main_unc	True	0.0	187	0	5.0	5.0	0.0	1	left	2.0	0.0	0.0	0	-0.0196131071076	blockFiles/set_20/main_unc/rightBlue\GB_RB_5.xlsx
381	main_unc	True	0.0	187	0	5.0	5.0	0.0	0	left	2.0	1.0	1.0	1	0.0076018060185	blockFiles/set_20/main_unc/rightBlue\GB_RB_5.xlsx
382	main_unc	True	0.0	187	0	5.0	5.0	0.0	1	left	2.0	0.0	0.0	0	-0.0741947806068	blockFiles/set_20/main_unc/rightBlue\GB_RB_5.xlsx
383	main_unc	True	0.0	187	0	5.0	5.0	0.0	1	left	2.0	0.0	0.0	0	-0.020908721461900003	blockFiles/set_20/main_unc/rightBlue\GB_RB_5.xlsx
384	main_unc	True	0.0	187	0	5.0	5.0	0.0	1	left	1.0	1.0	1.0	0	-0.045768121127	blockFiles/set_20/main_unc/rightBlue\GB_RB_5.xlsx
385	main_unc	True	0.0	187	0	5.0	5.0	1.0	1	right	1.0	0.0	0.0	1	0.0146566530131	blockFiles/set_20/main_unc/rightBlue\GB_RB_5.xlsx
386	main_unc	True	0.0	187	0	5.0	5.0	1.0	1	right	1.0	1.0	0.0	1	0.07545900916680001	blockFiles/set_20/main_unc/rightBlue\GB_RB_5.xlsx
387	main_unc	True	0.0	187	0	5.0	5.0	0.0	1	left	1.0	1.0	1.0	0	-0.0321932618693	blockFiles/set_20/main_unc/rightBlue\GB_RB_5.xlsx
388	main_unc	True	0.0	187	0	5.0	5.0	1.0	1	right	1.0	0.0	0.0	1	0.0643455136195	blockFiles/set_20/main_unc/rightBlue\GB_RB_5.xlsx
389	main_unc	True	0.0	187	0	5.0	5.0	1.0	0	right	2.0	0.0	0.0	0	-0.0011340811476099999	blockFiles/set_20/main_unc/rightBlue\GB_RB_5.xlsx
390	main_unc	True	0.0	187	0	5.0	5.0	1.0	1	right	1.0	0.0	0.0	1	0.057754070647099996	blockFiles/set_20/main_unc/rightBlue\GB_RB_5.xlsx
391	main_unc	True	0.0	187	0	5.0	5.0	1.0	0	right	2.0	0.0	0.0	0	-0.0203644661419	blockFiles/set_20/main_unc/rightBlue\GB_RB_5.xlsx
392	main_unc	True	0.0	187	0	5.0	5.0	0.0	1	left	1.0	0.0	1.0	0	-0.013213314432700001	blockFiles/set_20/main_unc/rightBlue\GB_RB_5.xlsx
393	main_unc	True	0.0	187	0	5.0	5.0	0.0	1	left	1.0	1.0	1.0	0	-0.057883056979599994	blockFiles/set_20/main_unc/rightBlue\GB_RB_5.xlsx
394	main_unc	True	0.0	187	0	5.0	5.0	1.0	1	right	1.0	0.0	0.0	1	0.0322379422002	blockFiles/set_20/main_unc/rightBlue\GB_RB_5.xlsx
395	main_unc	True	0.0	187	0	5.0	5.0	0.0	1	left	1.0	1.0	1.0	0	-0.0589942243509	blockFiles/set_20/main_unc/rightBlue\GB_RB_5.xlsx
396	main_unc	True	1.0	187	0	5.0	5.0	n/a	0	None	n/a	0.0	n/a	1	0.0350494454801	blockFiles/set_20/main_unc/rightBlue\GB_RB_5.xlsx
397	main_unc	True	0.0	187	0	5.0	5.0	0.0	1	left	1.0	0.0	1.0	0	-0.0553840013407	blockFiles/set_20/main_unc/rightBlue\GB_RB_5.xlsx
398	main_unc	True	0.0	187	0	5.0	5.0	1.0	1	right	1.0	0.0	0.0	1	0.0493482129648	blockFiles/set_20/main_unc/rightBlue\GB_RB_5.xlsx
399	main_unc	True	0.0	187	0	5.0	5.0	1.0	1	right	1.0	0.0	0.0	1	0.0646947752312	blockFiles/set_20/main_unc/rightBlue\GB_RB_5.xlsx
400	main_unc	True	0.0	187	0	5.0	5.0	1.0	0	right	2.0	1.0	0.0	0	-0.0180997079238	blockFiles/set_20/main_unc/rightBlue\GB_RB_5.xlsx
401	main_unc	True	0.0	187	0	5.0	5.0	1.0	1	right	1.0	0.0	0.0	1	0.0350494454801	blockFiles/set_20/main_unc/rightBlue\GB_RB_5.xlsx
402	main_unc	True	0.0	187	0	6.0	6.0	1.0	1	right	1.0	1.0	1.0	1	0.0676225616969	blockFiles/set_20/main_unc/leftBlue\GB_LB_3.xlsx
403	main_unc	True	0.0	187	0	6.0	6.0	1.0	0	right	2.0	0.0	1.0	0	-0.0253417895362	blockFiles/set_20/main_unc/leftBlue\GB_LB_3.xlsx
404	main_unc	True	0.0	187	0	6.0	6.0	0.0	1	left	1.0	0.0	0.0	0	-0.029429885782300002	blockFiles/set_20/main_unc/leftBlue\GB_LB_3.xlsx
405	main_unc	True	0.0	187	0	6.0	6.0	0.0	1	left	1.0	0.0	0.0	0	-0.0335106272623	blockFiles/set_20/main_unc/leftBlue\GB_LB_3.xlsx
406	main_unc	True	0.0	187	0	6.0	6.0	1.0	1	right	2.0	0.0	0.0	1	0.0740275129117	blockFiles/set_20/main_unc/leftBlue\GB_LB_3.xlsx
407	main_unc	True	0.0	187	0	6.0	6.0	0.0	1	left	2.0	1.0	1.0	0	-0.0755536834523	blockFiles/set_20/main_unc/leftBlue\GB_LB_3.xlsx
408	main_unc	True	0.0	187	0	6.0	6.0	1.0	1	right	2.0	1.0	0.0	1	0.0181614905782	blockFiles/set_20/main_unc/leftBlue\GB_LB_3.xlsx
409	main_unc	True	0.0	187	0	6.0	6.0	0.0	1	left	2.0	1.0	1.0	0	-0.00757103787735	blockFiles/set_20/main_unc/leftBlue\GB_LB_3.xlsx
410	main_unc	True	0.0	187	0	6.0	6.0	0.0	1	left	2.0	1.0	1.0	0	-0.010942542851	blockFiles/set_20/main_unc/leftBlue\GB_LB_3.xlsx
411	main_unc	True	0.0	187	0	6.0	6.0	0.0	1	left	2.0	1.0	1.0	0	-0.055880848784	blockFiles/set_20/main_unc/leftBlue\GB_LB_3.xlsx
412	main_unc	True	0.0	187	0	6.0	6.0	0.0	1	left	2.0	0.0	1.0	0	-0.0768216755241	blockFiles/set_20/main_unc/leftBlue\GB_LB_3.xlsx
413	main_unc	True	0.0	187	0	6.0	6.0	0.0	1	left	2.0	1.0	1.0	0	-0.061858426462900004	blockFiles/set_20/main_unc/leftBlue\GB_LB_3.xlsx
414	main_unc	True	0.0	187	0	6.0	6.0	1.0	1	right	2.0	1.0	0.0	1	0.0328764767013	blockFiles/set_20/main_unc/leftBlue\GB_LB_3.xlsx
415	main_unc	True	0.0	187	0	6.0	6.0	0.0	1	left	2.0	0.0	1.0	0	-0.017948360648	blockFiles/set_20/main_unc/leftBlue\GB_LB_3.xlsx
416	main_unc	True	0.0	187	0	6.0	6.0	1.0	1	right	2.0	0.0	0.0	1	0.0643034913577	blockFiles/set_20/main_unc/leftBlue\GB_LB_3.xlsx
417	main_unc	True	0.0	187	0	6.0	6.0	1.0	1	right	2.0	0.0	0.0	1	0.0442380339652	blockFiles/set_20/main_unc/leftBlue\GB_LB_3.xlsx
418	main_unc	True	0.0	187	0	6.0	6.0	1.0	1	right	2.0	0.0	0.0	1	0.014396026022700001	blockFiles/set_20/main_unc/leftBlue\GB_LB_3.xlsx
419	main_unc	True	0.0	187	0	6.0	6.0	1.0	1	right	2.0	0.0	0.0	1	0.0455846494995	blockFiles/set_20/main_unc/leftBlue\GB_LB_3.xlsx
420	main_unc	True	0.0	187	0	6.0	6.0	0.0	1	left	2.0	1.0	1.0	0	-0.024646851904700003	blockFiles/set_20/main_unc/leftBlue\GB_LB_3.xlsx
421	main_unc	True	0.0	187	0	6.0	6.0	1.0	1	right	2.0	0.0	0.0	1	0.0691992780566	blockFiles/set_20/main_unc/leftBlue\GB_LB_3.xlsx
422	main_unc	True	0.0	187	0	6.0	6.0	1.0	1	right	2.0	1.0	0.0	1	0.0515813235939	blockFiles/set_20/main_unc/leftBlue\GB_LB_3.xlsx
423	main_unc	True	0.0	187	0	6.0	6.0	0.0	1	left	2.0	1.0	1.0	0	-0.028819894008299998	blockFiles/set_20/main_unc/leftBlue\GB_LB_3.xlsx
424	main_unc	True	0.0	187	0	6.0	6.0	1.0	1	right	2.0	0.0	0.0	1	0.0648273588531	blockFiles/set_20/main_unc/leftBlue\GB_LB_3.xlsx
425	main_unc	True	0.0	187	0	6.0	6.0	0.0	1	left	2.0	1.0	1.0	0	-0.039824574515199995	blockFiles/set_20/main_unc/leftBlue\GB_LB_3.xlsx
426	main_unc	True	0.0	187	0	6.0	6.0	0.0	1	left	2.0	1.0	1.0	0	-0.006894102953369999	blockFiles/set_20/main_unc/leftBlue\GB_LB_3.xlsx
427	main_unc	True	0.0	187	0	7.0	7.0	0.0	0	left	2.0	0.0	0.0	1	0.0309471125342	blockFiles/set_20/main_unc/leftBlue\GB_LB_5.xlsx
428	main_unc	True	0.0	187	0	7.0	7.0	0.0	1	left	1.0	0.0	0.0	0	-0.0633080514707	blockFiles/set_20/main_unc/leftBlue\GB_LB_5.xlsx
429	main_unc	True	0.0	187	0	7.0	7.0	1.0	1	right	1.0	1.0	1.0	1	0.0540723482147	blockFiles/set_20/main_unc/leftBlue\GB_LB_5.xlsx
430	main_unc	True	0.0	187	0	7.0	7.0	1.0	1	right	1.0	1.0	1.0	1	0.0035889456048600003	blockFiles/set_20/main_unc/leftBlue\GB_LB_5.xlsx
431	main_unc	True	0.0	187	0	7.0	7.0	1.0	1	right	1.0	1.0	1.0	1	0.0601428656466	blockFiles/set_20/main_unc/leftBlue\GB_LB_5.xlsx
432	main_unc	True	0.0	187	0	7.0	7.0	1.0	1	right	1.0	0.0	1.0	1	0.032303608506900006	blockFiles/set_20/main_unc/leftBlue\GB_LB_5.xlsx
433	main_unc	True	0.0	187	0	7.0	7.0	0.0	1	left	1.0	0.0	0.0	0	-0.0293507598899	blockFiles/set_20/main_unc/leftBlue\GB_LB_5.xlsx
434	main_unc	True	0.0	187	0	7.0	7.0	1.0	1	right	1.0	1.0	1.0	1	0.065508165583	blockFiles/set_20/main_unc/leftBlue\GB_LB_5.xlsx
435	main_unc	True	0.0	187	0	7.0	7.0	1.0	1	right	1.0	1.0	1.0	1	0.05949442824350001	blockFiles/set_20/main_unc/leftBlue\GB_LB_5.xlsx
436	main_unc	True	0.0	187	0	7.0	7.0	1.0	1	right	1.0	0.0	1.0	1	0.023142503406899998	blockFiles/set_20/main_unc/leftBlue\GB_LB_5.xlsx
437	main_unc	True	0.0	187	0	7.0	7.0	0.0	1	left	1.0	0.0	0.0	0	-0.022058498915300002	blockFiles/set_20/main_unc/leftBlue\GB_LB_5.xlsx
438	main_unc	True	0.0	187	0	7.0	7.0	0.0	1	left	1.0	0.0	0.0	0	-0.043695096653000004	blockFiles/set_20/main_unc/leftBlue\GB_LB_5.xlsx
439	main_unc	True	0.0	187	0	7.0	7.0	0.0	1	left	1.0	1.0	0.0	0	-0.04532508187	blockFiles/set_20/main_unc/leftBlue\GB_LB_5.xlsx
440	main_unc	True	0.0	187	0	7.0	7.0	0.0	0	left	2.0	1.0	0.0	1	0.0122669477761	blockFiles/set_20/main_unc/leftBlue\GB_LB_5.xlsx
441	main_unc	True	0.0	187	0	7.0	7.0	0.0	1	left	1.0	0.0	0.0	0	-0.0126650492288	blockFiles/set_20/main_unc/leftBlue\GB_LB_5.xlsx
442	main_unc	True	0.0	187	0	7.0	7.0	1.0	1	right	1.0	1.0	1.0	1	0.0777051082812	blockFiles/set_20/main_unc/leftBlue\GB_LB_5.xlsx
443	main_unc	True	0.0	187	0	7.0	7.0	0.0	0	left	1.0	1.0	1.0	1	0.00601013049483	blockFiles/set_20/main_unc/leftBlue\GB_LB_5.xlsx
444	main_unc	True	0.0	187	0	7.0	7.0	0.0	1	left	1.0	0.0	0.0	0	-0.0721420413814	blockFiles/set_20/main_unc/leftBlue\GB_LB_5.xlsx
445	main_unc	True	0.0	187	0	7.0	7.0	0.0	1	left	1.0	0.0	0.0	0	-0.0025913079828	blockFiles/set_20/main_unc/leftBlue\GB_LB_5.xlsx
446	main_unc	True	0.0	187	0	7.0	7.0	0.0	1	left	1.0	1.0	0.0	0	-0.0478786453605	blockFiles/set_20/main_unc/leftBlue\GB_LB_5.xlsx
447	main_unc	True	0.0	187	0	7.0	7.0	1.0	1	right	1.0	1.0	1.0	1	0.0608663744479	blockFiles/set_20/main_unc/leftBlue\GB_LB_5.xlsx
448	main_unc	True	0.0	187	0	7.0	7.0	0.0	1	left	1.0	1.0	0.0	0	-0.048481525108199995	blockFiles/set_20/main_unc/leftBlue\GB_LB_5.xlsx
449	main_unc	True	0.0	187	0	7.0	7.0	0.0	1	left	1.0	0.0	0.0	0	-0.0323426222429	blockFiles/set_20/main_unc/leftBlue\GB_LB_5.xlsx
450	main_unc	True	0.0	187	0	7.0	7.0	0.0	1	left	1.0	0.0	0.0	0	-0.0207969486527	blockFiles/set_20/main_unc/leftBlue\GB_LB_5.xlsx
451	main_unc	True	0.0	187	0	7.0	7.0	0.0	1	left	1.0	0.0	0.0	0	-0.0699289278127	blockFiles/set_20/main_unc/leftBlue\GB_LB_5.xlsx
452	main_unc	True	0.0	187	0	8.0	8.0	1.0	1	right	2.0	0.0	1.0	1	0.0701044897921	blockFiles/set_20/main_unc/rightBlue\GB_RB_6.xlsx
453	main_unc	True	0.0	187	0	8.0	8.0	1.0	1	right	1.0	0.0	0.0	1	0.039956519343	blockFiles/set_20/main_unc/rightBlue\GB_RB_6.xlsx
454	main_unc	True	0.0	187	0	8.0	8.0	1.0	0	right	1.0	1.0	1.0	0	-0.0391999464668	blockFiles/set_20/main_unc/rightBlue\GB_RB_6.xlsx
455	main_unc	True	0.0	187	0	8.0	8.0	1.0	1	right	2.0	1.0	1.0	1	0.01696521651	blockFiles/set_20/main_unc/rightBlue\GB_RB_6.xlsx
456	main_unc	True	0.0	187	0	8.0	8.0	1.0	1	right	2.0	1.0	1.0	1	0.0639819346182	blockFiles/set_20/main_unc/rightBlue\GB_RB_6.xlsx
457	main_unc	True	0.0	187	0	8.0	8.0	1.0	1	right	2.0	1.0	1.0	1	0.0683570253849	blockFiles/set_20/main_unc/rightBlue\GB_RB_6.xlsx
458	main_unc	True	0.0	187	0	8.0	8.0	0.0	1	left	2.0	0.0	0.0	0	-0.0231259146146	blockFiles/set_20/main_unc/rightBlue\GB_RB_6.xlsx
459	main_unc	True	0.0	187	0	8.0	8.0	1.0	1	right	2.0	1.0	1.0	1	0.017087195944	blockFiles/set_20/main_unc/rightBlue\GB_RB_6.xlsx
460	main_unc	True	0.0	187	0	8.0	8.0	1.0	1	right	2.0	1.0	1.0	1	0.0482956983708	blockFiles/set_20/main_unc/rightBlue\GB_RB_6.xlsx
461	main_unc	True	0.0	187	0	8.0	8.0	1.0	1	right	1.0	0.0	0.0	1	0.014249821621900001	blockFiles/set_20/main_unc/rightBlue\GB_RB_6.xlsx
462	main_unc	True	0.0	187	0	8.0	8.0	1.0	1	right	1.0	0.0	0.0	1	0.051950609386	blockFiles/set_20/main_unc/rightBlue\GB_RB_6.xlsx
463	main_unc	True	0.0	187	0	8.0	8.0	0.0	1	left	1.0	1.0	1.0	0	-0.059627365283699996	blockFiles/set_20/main_unc/rightBlue\GB_RB_6.xlsx
464	main_unc	True	0.0	187	0	8.0	8.0	0.0	1	left	1.0	0.0	1.0	0	-0.060778504963999995	blockFiles/set_20/main_unc/rightBlue\GB_RB_6.xlsx
465	main_unc	True	0.0	187	0	8.0	8.0	0.0	1	left	1.0	1.0	1.0	0	-0.0100634615123	blockFiles/set_20/main_unc/rightBlue\GB_RB_6.xlsx
466	main_unc	True	0.0	187	0	8.0	8.0	0.0	1	left	1.0	1.0	1.0	0	-0.0172743470222	blockFiles/set_20/main_unc/rightBlue\GB_RB_6.xlsx
467	main_unc	True	0.0	187	0	8.0	8.0	1.0	1	right	1.0	0.0	0.0	1	0.0794464802928	blockFiles/set_20/main_unc/rightBlue\GB_RB_6.xlsx
468	main_unc	True	0.0	187	0	8.0	8.0	0.0	1	left	1.0	0.0	1.0	0	-0.028727468587500003	blockFiles/set_20/main_unc/rightBlue\GB_RB_6.xlsx
469	main_unc	True	0.0	187	0	8.0	8.0	1.0	1	right	1.0	0.0	0.0	1	0.055301587004199994	blockFiles/set_20/main_unc/rightBlue\GB_RB_6.xlsx
470	main_unc	True	0.0	187	0	8.0	8.0	0.0	1	left	1.0	1.0	1.0	0	-0.0174460700899	blockFiles/set_20/main_unc/rightBlue\GB_RB_6.xlsx
471	main_unc	True	0.0	187	0	8.0	8.0	0.0	1	left	1.0	1.0	1.0	0	-0.0389153134637	blockFiles/set_20/main_unc/rightBlue\GB_RB_6.xlsx
472	main_unc	True	0.0	187	0	8.0	8.0	0.0	1	left	2.0	0.0	0.0	0	-0.012844483759299998	blockFiles/set_20/main_unc/rightBlue\GB_RB_6.xlsx
473	main_unc	True	0.0	187	0	8.0	8.0	1.0	1	right	1.0	0.0	0.0	1	0.044138944838199995	blockFiles/set_20/main_unc/rightBlue\GB_RB_6.xlsx
474	main_unc	True	0.0	187	0	8.0	8.0	1.0	1	right	1.0	0.0	0.0	1	0.027630297709300002	blockFiles/set_20/main_unc/rightBlue\GB_RB_6.xlsx
475	main_unc	True	0.0	187	0	8.0	8.0	0.0	1	left	1.0	1.0	1.0	0	-0.061126958951399996	blockFiles/set_20/main_unc/rightBlue\GB_RB_6.xlsx
476	main_unc	True	0.0	187	0	8.0	8.0	0.0	1	left	1.0	0.0	1.0	0	-0.0159820739739	blockFiles/set_20/main_unc/rightBlue\GB_RB_6.xlsx
477	main_unc	True	0.0	187	0	9.0	9.0	1.0	1	right	2.0	0.0	0.0	1	0.07005314501	blockFiles/set_20/main_unc/leftBlue\GB_LB_2.xlsx
478	main_unc	True	0.0	187	0	9.0	9.0	1.0	1	right	1.0	1.0	1.0	1	0.0736491898447	blockFiles/set_20/main_unc/leftBlue\GB_LB_2.xlsx
479	main_unc	True	0.0	187	0	9.0	9.0	0.0	1	left	1.0	1.0	0.0	0	-0.056864143312	blockFiles/set_20/main_unc/leftBlue\GB_LB_2.xlsx
480	main_unc	True	0.0	187	0	9.0	9.0	0.0	1	left	1.0	0.0	0.0	0	-0.0574425166287	blockFiles/set_20/main_unc/leftBlue\GB_LB_2.xlsx
481	main_unc	True	0.0	187	0	9.0	9.0	0.0	1	left	1.0	0.0	0.0	0	-0.0030933368205999998	blockFiles/set_20/main_unc/leftBlue\GB_LB_2.xlsx
482	main_unc	True	0.0	187	0	9.0	9.0	0.0	1	left	1.0	1.0	0.0	0	-0.0197363177501	blockFiles/set_20/main_unc/leftBlue\GB_LB_2.xlsx
483	main_unc	True	0.0	187	0	9.0	9.0	0.0	0	left	1.0	1.0	1.0	1	0.00814404232427	blockFiles/set_20/main_unc/leftBlue\GB_LB_2.xlsx
484	main_unc	True	0.0	187	0	9.0	9.0	0.0	1	left	1.0	0.0	0.0	0	-0.060120317023200004	blockFiles/set_20/main_unc/leftBlue\GB_LB_2.xlsx
485	main_unc	True	0.0	187	0	9.0	9.0	1.0	1	right	1.0	1.0	1.0	1	0.0351001172885	blockFiles/set_20/main_unc/leftBlue\GB_LB_2.xlsx
486	main_unc	True	0.0	187	0	9.0	9.0	1.0	1	right	1.0	0.0	1.0	1	0.06598541561509999	blockFiles/set_20/main_unc/leftBlue\GB_LB_2.xlsx
487	main_unc	True	0.0	187	0	9.0	9.0	0.0	1	left	1.0	1.0	0.0	0	-0.0642332178541	blockFiles/set_20/main_unc/leftBlue\GB_LB_2.xlsx
488	main_unc	True	0.0	187	0	9.0	9.0	0.0	0	left	1.0	1.0	1.0	1	0.0171747348458	blockFiles/set_20/main_unc/leftBlue\GB_LB_2.xlsx
489	main_unc	True	0.0	187	0	9.0	9.0	0.0	1	left	1.0	1.0	0.0	0	-0.0116812621802	blockFiles/set_20/main_unc/leftBlue\GB_LB_2.xlsx
490	main_unc	True	0.0	187	0	9.0	9.0	0.0	0	left	1.0	1.0	1.0	1	0.0126111217774	blockFiles/set_20/main_unc/leftBlue\GB_LB_2.xlsx
491	main_unc	True	0.0	187	0	9.0	9.0	0.0	1	left	1.0	0.0	0.0	0	-0.06347170460969999	blockFiles/set_20/main_unc/leftBlue\GB_LB_2.xlsx
492	main_unc	True	0.0	187	0	9.0	9.0	0.0	1	left	1.0	0.0	0.0	0	-0.0456186949462	blockFiles/set_20/main_unc/leftBlue\GB_LB_2.xlsx
493	main_unc	True	0.0	187	0	9.0	9.0	0.0	0	left	1.0	1.0	1.0	1	0.022643132302900004	blockFiles/set_20/main_unc/leftBlue\GB_LB_2.xlsx
494	main_unc	True	0.0	187	0	9.0	9.0	0.0	0	left	2.0	0.0	0.0	1	0.0310540797934	blockFiles/set_20/main_unc/leftBlue\GB_LB_2.xlsx
495	main_unc	True	0.0	187	0	9.0	9.0	1.0	1	right	1.0	1.0	1.0	1	0.0581396390684	blockFiles/set_20/main_unc/leftBlue\GB_LB_2.xlsx
496	main_unc	True	0.0	187	0	9.0	9.0	1.0	1	right	1.0	1.0	1.0	1	0.07007555896420001	blockFiles/set_20/main_unc/leftBlue\GB_LB_2.xlsx
497	main_unc	True	0.0	187	0	9.0	9.0	0.0	1	left	1.0	0.0	0.0	0	-0.0300591283478	blockFiles/set_20/main_unc/leftBlue\GB_LB_2.xlsx
498	main_unc	True	0.0	187	0	9.0	9.0	0.0	1	left	1.0	0.0	0.0	0	-0.0157648396678	blockFiles/set_20/main_unc/leftBlue\GB_LB_2.xlsx
499	main_unc	True	0.0	187	0	9.0	9.0	0.0	1	left	1.0	0.0	0.0	0	-0.0585186236165	blockFiles/set_20/main_unc/leftBlue\GB_LB_2.xlsx
500	main_unc	True	0.0	187	0	9.0	9.0	0.0	0	left	2.0	1.0	0.0	1	0.051846122406400005	blockFiles/set_20/main_unc/leftBlue\GB_LB_2.xlsx
501	main_unc	True	0.0	187	0	9.0	9.0	1.0	1	right	1.0	1.0	1.0	1	0.0748678979091	blockFiles/set_20/main_unc/leftBlue\GB_LB_2.xlsx
502	main_unc	True	0.0	187	0	10.0	10.0	0.0	1	left	2.0	0.0	1.0	0	-0.0280078616366	blockFiles/set_20/main_unc/leftBlue\GB_LB_1.xlsx
503	main_unc	True	0.0	187	0	10.0	10.0	0.0	1	left	1.0	1.0	0.0	0	-0.0193763251975	blockFiles/set_20/main_unc/leftBlue\GB_LB_1.xlsx
504	main_unc	True	0.0	187	0	10.0	10.0	0.0	0	left	2.0	0.0	0.0	1	0.018632611110799998	blockFiles/set_20/main_unc/leftBlue\GB_LB_1.xlsx
505	main_unc	True	0.0	187	0	10.0	10.0	1.0	1	right	1.0	1.0	1.0	1	0.07434545321389999	blockFiles/set_20/main_unc/leftBlue\GB_LB_1.xlsx
506	main_unc	True	0.0	187	0	10.0	10.0	0.0	1	left	1.0	0.0	0.0	0	-0.0508682423458	blockFiles/set_20/main_unc/leftBlue\GB_LB_1.xlsx
507	main_unc	True	0.0	187	0	10.0	10.0	1.0	1	right	1.0	1.0	1.0	1	0.0774416602403	blockFiles/set_20/main_unc/leftBlue\GB_LB_1.xlsx
508	main_unc	True	0.0	187	0	10.0	10.0	1.0	1	right	1.0	1.0	1.0	1	0.061877540499	blockFiles/set_20/main_unc/leftBlue\GB_LB_1.xlsx
509	main_unc	True	0.0	187	0	10.0	10.0	0.0	1	left	2.0	0.0	1.0	0	-0.0084204044193	blockFiles/set_20/main_unc/leftBlue\GB_LB_1.xlsx
510	main_unc	True	0.0	187	0	10.0	10.0	0.0	0	left	2.0	0.0	0.0	1	0.024773633480099998	blockFiles/set_20/main_unc/leftBlue\GB_LB_1.xlsx
511	main_unc	True	0.0	187	0	10.0	10.0	1.0	1	right	1.0	1.0	1.0	1	0.0624128126539	blockFiles/set_20/main_unc/leftBlue\GB_LB_1.xlsx
512	main_unc	True	0.0	187	0	10.0	10.0	0.0	0	left	1.0	0.0	1.0	1	0.012855067700100002	blockFiles/set_20/main_unc/leftBlue\GB_LB_1.xlsx
513	main_unc	True	0.0	187	0	10.0	10.0	0.0	0	left	1.0	1.0	1.0	1	0.0104342708737	blockFiles/set_20/main_unc/leftBlue\GB_LB_1.xlsx
514	main_unc	True	0.0	187	0	10.0	10.0	1.0	1	right	1.0	1.0	1.0	1	0.0601400224492	blockFiles/set_20/main_unc/leftBlue\GB_LB_1.xlsx
515	main_unc	True	0.0	187	0	10.0	10.0	0.0	1	left	1.0	0.0	0.0	0	-0.0552458808944	blockFiles/set_20/main_unc/leftBlue\GB_LB_1.xlsx
516	main_unc	True	0.0	187	0	10.0	10.0	1.0	1	right	1.0	1.0	1.0	1	0.06299470126630001	blockFiles/set_20/main_unc/leftBlue\GB_LB_1.xlsx
517	main_unc	True	0.0	187	0	10.0	10.0	1.0	1	right	1.0	1.0	1.0	1	0.07527258599179999	blockFiles/set_20/main_unc/leftBlue\GB_LB_1.xlsx
518	main_unc	True	0.0	187	0	10.0	10.0	1.0	0	right	1.0	0.0	0.0	0	-0.0042206049338	blockFiles/set_20/main_unc/leftBlue\GB_LB_1.xlsx
519	main_unc	True	0.0	187	0	10.0	10.0	0.0	1	left	1.0	0.0	0.0	0	-0.05803301207719999	blockFiles/set_20/main_unc/leftBlue\GB_LB_1.xlsx
520	main_unc	True	0.0	187	0	10.0	10.0	1.0	1	right	1.0	1.0	1.0	1	0.057233954481800006	blockFiles/set_20/main_unc/leftBlue\GB_LB_1.xlsx
521	main_unc	True	0.0	187	0	10.0	10.0	1.0	1	right	1.0	1.0	1.0	1	0.0218802360259	blockFiles/set_20/main_unc/leftBlue\GB_LB_1.xlsx
522	main_unc	True	0.0	187	0	10.0	10.0	0.0	1	left	1.0	0.0	0.0	0	-0.043172651846000006	blockFiles/set_20/main_unc/leftBlue\GB_LB_1.xlsx
523	main_unc	True	0.0	187	0	10.0	10.0	0.0	1	left	1.0	0.0	0.0	0	-0.06498902399090001	blockFiles/set_20/main_unc/leftBlue\GB_LB_1.xlsx
524	main_unc	True	0.0	187	0	10.0	10.0	1.0	1	right	1.0	1.0	1.0	1	0.0484895434603	blockFiles/set_20/main_unc/leftBlue\GB_LB_1.xlsx
525	main_unc	True	0.0	187	0	10.0	10.0	0.0	1	left	1.0	0.0	0.0	0	-0.0466150941513	blockFiles/set_20/main_unc/leftBlue\GB_LB_1.xlsx
526	main_unc	True	0.0	187	0	10.0	10.0	0.0	1	left	1.0	1.0	0.0	0	-0.036163986418400004	blockFiles/set_20/main_unc/leftBlue\GB_LB_1.xlsx
527	main_unc	True	0.0	187	0	11.0	11.0	0.0	1	left	1.0	1.0	1.0	0	-0.00629053860903	blockFiles/set_20/main_unc/rightBlue\GB_RB_4.xlsx
528	main_unc	True	0.0	187	0	11.0	11.0	0.0	1	left	1.0	1.0	1.0	0	-0.0193675890937	blockFiles/set_20/main_unc/rightBlue\GB_RB_4.xlsx
529	main_unc	True	0.0	187	0	11.0	11.0	1.0	1	right	1.0	0.0	0.0	1	0.045381444171099995	blockFiles/set_20/main_unc/rightBlue\GB_RB_4.xlsx
530	main_unc	True	0.0	187	0	11.0	11.0	1.0	0	right	1.0	1.0	1.0	0	-0.000778640396893	blockFiles/set_20/main_unc/rightBlue\GB_RB_4.xlsx
531	main_unc	True	0.0	187	0	11.0	11.0	0.0	1	left	1.0	1.0	1.0	0	-0.062847820539	blockFiles/set_20/main_unc/rightBlue\GB_RB_4.xlsx
532	main_unc	True	0.0	187	0	11.0	11.0	1.0	1	right	1.0	0.0	0.0	1	0.0696937577613	blockFiles/set_20/main_unc/rightBlue\GB_RB_4.xlsx
533	main_unc	True	0.0	187	0	11.0	11.0	0.0	1	left	1.0	1.0	1.0	0	-0.0039314786531	blockFiles/set_20/main_unc/rightBlue\GB_RB_4.xlsx
534	main_unc	True	0.0	187	0	11.0	11.0	1.0	1	right	1.0	0.0	0.0	1	0.0417836505175	blockFiles/set_20/main_unc/rightBlue\GB_RB_4.xlsx
535	main_unc	True	0.0	187	0	11.0	11.0	1.0	1	right	1.0	1.0	0.0	1	0.046840457189800004	blockFiles/set_20/main_unc/rightBlue\GB_RB_4.xlsx
536	main_unc	True	0.0	187	0	11.0	11.0	0.0	1	left	1.0	1.0	1.0	0	-0.0075310506112900005	blockFiles/set_20/main_unc/rightBlue\GB_RB_4.xlsx
537	main_unc	True	0.0	187	0	11.0	11.0	0.0	1	left	1.0	0.0	1.0	0	-0.0404878281988	blockFiles/set_20/main_unc/rightBlue\GB_RB_4.xlsx
538	main_unc	True	0.0	187	0	11.0	11.0	0.0	1	left	1.0	1.0	1.0	0	-0.011208779532500001	blockFiles/set_20/main_unc/rightBlue\GB_RB_4.xlsx
539	main_unc	True	0.0	187	0	11.0	11.0	1.0	1	right	1.0	1.0	0.0	1	0.0632775284722	blockFiles/set_20/main_unc/rightBlue\GB_RB_4.xlsx
540	main_unc	True	0.0	187	0	11.0	11.0	0.0	1	left	1.0	1.0	1.0	0	-0.0455298756994	blockFiles/set_20/main_unc/rightBlue\GB_RB_4.xlsx
541	main_unc	True	0.0	187	0	11.0	11.0	0.0	0	left	2.0	1.0	1.0	1	0.029639369528700003	blockFiles/set_20/main_unc/rightBlue\GB_RB_4.xlsx
542	main_unc	True	0.0	187	0	11.0	11.0	1.0	1	right	1.0	0.0	0.0	1	0.0399995811284	blockFiles/set_20/main_unc/rightBlue\GB_RB_4.xlsx
543	main_unc	True	0.0	187	0	11.0	11.0	0.0	1	left	1.0	1.0	1.0	0	-0.0680104864575	blockFiles/set_20/main_unc/rightBlue\GB_RB_4.xlsx
544	main_unc	True	0.0	187	0	11.0	11.0	0.0	1	left	1.0	1.0	1.0	0	-0.023295921720599997	blockFiles/set_20/main_unc/rightBlue\GB_RB_4.xlsx
545	main_unc	True	0.0	187	0	11.0	11.0	0.0	1	left	1.0	1.0	1.0	0	-0.07600337302310001	blockFiles/set_20/main_unc/rightBlue\GB_RB_4.xlsx
546	main_unc	True	0.0	187	0	11.0	11.0	1.0	1	right	1.0	0.0	0.0	1	0.009854895230379999	blockFiles/set_20/main_unc/rightBlue\GB_RB_4.xlsx
547	main_unc	True	0.0	187	0	11.0	11.0	1.0	1	right	1.0	0.0	0.0	1	0.0525888113119	blockFiles/set_20/main_unc/rightBlue\GB_RB_4.xlsx
548	main_unc	True	0.0	187	0	11.0	11.0	0.0	1	left	1.0	1.0	1.0	0	-0.00042768502607900004	blockFiles/set_20/main_unc/rightBlue\GB_RB_4.xlsx
549	main_unc	True	0.0	187	0	11.0	11.0	1.0	1	right	1.0	1.0	0.0	1	0.0722837896086	blockFiles/set_20/main_unc/rightBlue\GB_RB_4.xlsx
550	main_unc	True	0.0	187	0	11.0	11.0	1.0	1	right	1.0	0.0	0.0	1	0.0152828509174	blockFiles/set_20/main_unc/rightBlue\GB_RB_4.xlsx
551	main_unc	True	0.0	187	0	11.0	11.0	1.0	1	right	1.0	0.0	0.0	1	0.0621060442738	blockFiles/set_20/main_unc/rightBlue\GB_RB_4.xlsx
