	trial_type	complete	missIndex	participant	id	blockNumber	b_t	d_t	decision1.corr	decision1.keys	a_t	r_t	decision2.corr	s_t	u_t	block_file
0	main_safe	True	0.0	766	0	0.0	0.0	0.0	1	left	2.0	1.0	1.0	0	-0.08	blockFiles/set_18/main_safe/leftBlue\GB_LB_2.xlsx
1	main_safe	True	0.0	766	0	0.0	0.0	0.0	1	left	2.0	1.0	1.0	0	-0.08	blockFiles/set_18/main_safe/leftBlue\GB_LB_2.xlsx
2	main_safe	True	0.0	766	0	0.0	0.0	0.0	1	left	2.0	0.0	1.0	0	-0.08	blockFiles/set_18/main_safe/leftBlue\GB_LB_2.xlsx
3	main_safe	True	0.0	766	0	0.0	0.0	0.0	1	left	2.0	1.0	1.0	0	-0.08	blockFiles/set_18/main_safe/leftBlue\GB_LB_2.xlsx
4	main_safe	True	0.0	766	0	0.0	0.0	1.0	1	right	1.0	0.0	1.0	1	0.08	blockFiles/set_18/main_safe/leftBlue\GB_LB_2.xlsx
5	main_safe	True	0.0	766	0	0.0	0.0	1.0	1	right	1.0	0.0	1.0	1	0.08	blockFiles/set_18/main_safe/leftBlue\GB_LB_2.xlsx
6	main_safe	True	0.0	766	0	0.0	0.0	1.0	1	right	1.0	1.0	1.0	1	0.08	blockFiles/set_18/main_safe/leftBlue\GB_LB_2.xlsx
7	main_safe	True	0.0	766	0	0.0	0.0	1.0	1	right	1.0	1.0	1.0	1	0.08	blockFiles/set_18/main_safe/leftBlue\GB_LB_2.xlsx
8	main_safe	True	0.0	766	0	0.0	0.0	1.0	1	right	1.0	1.0	1.0	1	0.08	blockFiles/set_18/main_safe/leftBlue\GB_LB_2.xlsx
9	main_safe	True	0.0	766	0	0.0	0.0	1.0	1	right	1.0	1.0	1.0	1	0.08	blockFiles/set_18/main_safe/leftBlue\GB_LB_2.xlsx
10	main_safe	True	0.0	766	0	0.0	0.0	1.0	1	right	1.0	1.0	1.0	1	0.08	blockFiles/set_18/main_safe/leftBlue\GB_LB_2.xlsx
11	main_safe	True	0.0	766	0	0.0	0.0	1.0	1	right	1.0	1.0	1.0	1	0.08	blockFiles/set_18/main_safe/leftBlue\GB_LB_2.xlsx
12	main_safe	True	0.0	766	0	0.0	0.0	0.0	1	left	2.0	0.0	1.0	0	-0.08	blockFiles/set_18/main_safe/leftBlue\GB_LB_2.xlsx
13	main_safe	True	0.0	766	0	0.0	0.0	1.0	1	right	1.0	1.0	1.0	1	0.08	blockFiles/set_18/main_safe/leftBlue\GB_LB_2.xlsx
14	main_safe	True	0.0	766	0	0.0	0.0	0.0	1	left	2.0	0.0	1.0	0	-0.08	blockFiles/set_18/main_safe/leftBlue\GB_LB_2.xlsx
15	main_safe	True	0.0	766	0	0.0	0.0	0.0	1	left	2.0	1.0	1.0	0	-0.08	blockFiles/set_18/main_safe/leftBlue\GB_LB_2.xlsx
16	main_safe	True	0.0	766	0	0.0	0.0	0.0	1	left	2.0	1.0	1.0	0	-0.08	blockFiles/set_18/main_safe/leftBlue\GB_LB_2.xlsx
17	main_safe	True	0.0	766	0	0.0	0.0	0.0	1	left	2.0	1.0	1.0	0	-0.08	blockFiles/set_18/main_safe/leftBlue\GB_LB_2.xlsx
18	main_safe	True	0.0	766	0	0.0	0.0	1.0	1	right	1.0	0.0	1.0	1	0.08	blockFiles/set_18/main_safe/leftBlue\GB_LB_2.xlsx
19	main_safe	True	0.0	766	0	0.0	0.0	0.0	1	left	2.0	1.0	1.0	0	-0.08	blockFiles/set_18/main_safe/leftBlue\GB_LB_2.xlsx
20	main_safe	True	0.0	766	0	0.0	0.0	0.0	1	left	2.0	1.0	1.0	0	-0.08	blockFiles/set_18/main_safe/leftBlue\GB_LB_2.xlsx
21	main_safe	True	0.0	766	0	0.0	0.0	1.0	1	right	1.0	1.0	1.0	1	0.08	blockFiles/set_18/main_safe/leftBlue\GB_LB_2.xlsx
22	main_safe	True	0.0	766	0	0.0	0.0	1.0	1	right	1.0	1.0	1.0	1	0.08	blockFiles/set_18/main_safe/leftBlue\GB_LB_2.xlsx
23	main_safe	True	0.0	766	0	0.0	0.0	0.0	1	left	2.0	1.0	1.0	0	-0.08	blockFiles/set_18/main_safe/leftBlue\GB_LB_2.xlsx
24	main_safe	True	0.0	766	0	0.0	0.0	1.0	1	right	1.0	1.0	1.0	1	0.08	blockFiles/set_18/main_safe/leftBlue\GB_LB_2.xlsx
25	main_safe	True	0.0	766	0	1.0	1.0	1.0	1	right	2.0	1.0	1.0	1	0.08	blockFiles/set_18/main_safe/rightBlue\GB_RB_2.xlsx
26	main_safe	True	0.0	766	0	1.0	1.0	1.0	1	right	2.0	0.0	1.0	1	0.08	blockFiles/set_18/main_safe/rightBlue\GB_RB_2.xlsx
27	main_safe	True	0.0	766	0	1.0	1.0	0.0	1	left	1.0	0.0	1.0	0	-0.08	blockFiles/set_18/main_safe/rightBlue\GB_RB_2.xlsx
28	main_safe	True	0.0	766	0	1.0	1.0	1.0	1	right	1.0	0.0	0.0	1	0.08	blockFiles/set_18/main_safe/rightBlue\GB_RB_2.xlsx
29	main_safe	True	1.0	766	0	1.0	1.0	n/a	0	None	n/a	0.0	n/a	0	-0.08	blockFiles/set_18/main_safe/rightBlue\GB_RB_2.xlsx
30	main_safe	True	0.0	766	0	1.0	1.0	1.0	1	right	1.0	0.0	0.0	1	0.08	blockFiles/set_18/main_safe/rightBlue\GB_RB_2.xlsx
31	main_safe	True	0.0	766	0	1.0	1.0	1.0	1	right	2.0	1.0	1.0	1	0.08	blockFiles/set_18/main_safe/rightBlue\GB_RB_2.xlsx
32	main_safe	True	0.0	766	0	1.0	1.0	0.0	1	left	1.0	1.0	1.0	0	-0.08	blockFiles/set_18/main_safe/rightBlue\GB_RB_2.xlsx
33	main_safe	True	0.0	766	0	1.0	1.0	1.0	1	right	2.0	1.0	1.0	1	0.08	blockFiles/set_18/main_safe/rightBlue\GB_RB_2.xlsx
34	main_safe	True	0.0	766	0	1.0	1.0	1.0	1	right	2.0	1.0	1.0	1	0.08	blockFiles/set_18/main_safe/rightBlue\GB_RB_2.xlsx
35	main_safe	True	0.0	766	0	1.0	1.0	0.0	1	left	1.0	1.0	1.0	0	-0.08	blockFiles/set_18/main_safe/rightBlue\GB_RB_2.xlsx
36	main_safe	True	0.0	766	0	1.0	1.0	0.0	1	left	1.0	1.0	1.0	0	-0.08	blockFiles/set_18/main_safe/rightBlue\GB_RB_2.xlsx
37	main_safe	True	0.0	766	0	1.0	1.0	0.0	1	left	1.0	1.0	1.0	0	-0.08	blockFiles/set_18/main_safe/rightBlue\GB_RB_2.xlsx
38	main_safe	True	0.0	766	0	1.0	1.0	0.0	1	left	1.0	0.0	1.0	0	-0.08	blockFiles/set_18/main_safe/rightBlue\GB_RB_2.xlsx
39	main_safe	True	0.0	766	0	1.0	1.0	0.0	1	left	1.0	1.0	1.0	0	-0.08	blockFiles/set_18/main_safe/rightBlue\GB_RB_2.xlsx
40	main_safe	True	0.0	766	0	1.0	1.0	1.0	1	right	2.0	1.0	1.0	1	0.08	blockFiles/set_18/main_safe/rightBlue\GB_RB_2.xlsx
41	main_safe	True	0.0	766	0	1.0	1.0	0.0	1	left	1.0	1.0	1.0	0	-0.08	blockFiles/set_18/main_safe/rightBlue\GB_RB_2.xlsx
42	main_safe	True	0.0	766	0	1.0	1.0	0.0	1	left	1.0	1.0	1.0	0	-0.08	blockFiles/set_18/main_safe/rightBlue\GB_RB_2.xlsx
43	main_safe	True	0.0	766	0	1.0	1.0	1.0	1	right	2.0	1.0	1.0	1	0.08	blockFiles/set_18/main_safe/rightBlue\GB_RB_2.xlsx
44	main_safe	True	0.0	766	0	1.0	1.0	1.0	1	right	1.0	1.0	0.0	1	0.08	blockFiles/set_18/main_safe/rightBlue\GB_RB_2.xlsx
45	main_safe	True	0.0	766	0	1.0	1.0	0.0	1	left	2.0	0.0	0.0	0	-0.08	blockFiles/set_18/main_safe/rightBlue\GB_RB_2.xlsx
46	main_safe	True	0.0	766	0	1.0	1.0	0.0	1	left	2.0	0.0	0.0	0	-0.08	blockFiles/set_18/main_safe/rightBlue\GB_RB_2.xlsx
47	main_safe	True	0.0	766	0	1.0	1.0	1.0	1	right	2.0	1.0	1.0	1	0.08	blockFiles/set_18/main_safe/rightBlue\GB_RB_2.xlsx
48	main_safe	True	0.0	766	0	1.0	1.0	0.0	1	left	1.0	0.0	1.0	0	-0.08	blockFiles/set_18/main_safe/rightBlue\GB_RB_2.xlsx
49	main_safe	True	0.0	766	0	1.0	1.0	1.0	1	right	2.0	1.0	1.0	1	0.08	blockFiles/set_18/main_safe/rightBlue\GB_RB_2.xlsx
50	main_safe	True	0.0	766	0	1.0	1.0	0.0	1	left	1.0	1.0	1.0	0	-0.08	blockFiles/set_18/main_safe/rightBlue\GB_RB_2.xlsx
51	main_safe	True	0.0	766	0	2.0	2.0	1.0	1	right	1.0	0.0	0.0	1	0.08	blockFiles/set_18/main_safe/rightBlue\GB_RB_1.xlsx
52	main_safe	True	0.0	766	0	2.0	2.0	0.0	1	left	1.0	1.0	1.0	0	-0.08	blockFiles/set_18/main_safe/rightBlue\GB_RB_1.xlsx
53	main_safe	True	0.0	766	0	2.0	2.0	1.0	1	right	2.0	1.0	1.0	1	0.08	blockFiles/set_18/main_safe/rightBlue\GB_RB_1.xlsx
54	main_safe	True	0.0	766	0	2.0	2.0	1.0	1	right	2.0	1.0	1.0	1	0.08	blockFiles/set_18/main_safe/rightBlue\GB_RB_1.xlsx
55	main_safe	True	0.0	766	0	2.0	2.0	0.0	1	left	1.0	1.0	1.0	0	-0.08	blockFiles/set_18/main_safe/rightBlue\GB_RB_1.xlsx
56	main_safe	True	0.0	766	0	2.0	2.0	1.0	1	right	2.0	0.0	1.0	1	0.08	blockFiles/set_18/main_safe/rightBlue\GB_RB_1.xlsx
57	main_safe	True	0.0	766	0	2.0	2.0	1.0	1	right	2.0	1.0	1.0	1	0.08	blockFiles/set_18/main_safe/rightBlue\GB_RB_1.xlsx
58	main_safe	True	0.0	766	0	2.0	2.0	0.0	1	left	1.0	1.0	1.0	0	-0.08	blockFiles/set_18/main_safe/rightBlue\GB_RB_1.xlsx
59	main_safe	True	0.0	766	0	2.0	2.0	0.0	1	left	1.0	1.0	1.0	0	-0.08	blockFiles/set_18/main_safe/rightBlue\GB_RB_1.xlsx
60	main_safe	True	0.0	766	0	2.0	2.0	1.0	1	right	2.0	1.0	1.0	1	0.08	blockFiles/set_18/main_safe/rightBlue\GB_RB_1.xlsx
61	main_safe	True	0.0	766	0	2.0	2.0	0.0	1	left	2.0	0.0	0.0	0	-0.08	blockFiles/set_18/main_safe/rightBlue\GB_RB_1.xlsx
62	main_safe	True	0.0	766	0	2.0	2.0	1.0	1	right	2.0	0.0	1.0	1	0.08	blockFiles/set_18/main_safe/rightBlue\GB_RB_1.xlsx
63	main_safe	True	0.0	766	0	2.0	2.0	1.0	1	right	2.0	1.0	1.0	1	0.08	blockFiles/set_18/main_safe/rightBlue\GB_RB_1.xlsx
64	main_safe	True	0.0	766	0	2.0	2.0	0.0	1	left	1.0	1.0	1.0	0	-0.08	blockFiles/set_18/main_safe/rightBlue\GB_RB_1.xlsx
65	main_safe	True	0.0	766	0	2.0	2.0	1.0	1	right	2.0	0.0	1.0	1	0.08	blockFiles/set_18/main_safe/rightBlue\GB_RB_1.xlsx
66	main_safe	True	0.0	766	0	2.0	2.0	1.0	1	right	2.0	1.0	1.0	1	0.08	blockFiles/set_18/main_safe/rightBlue\GB_RB_1.xlsx
67	main_safe	True	0.0	766	0	2.0	2.0	1.0	1	right	2.0	0.0	1.0	1	0.08	blockFiles/set_18/main_safe/rightBlue\GB_RB_1.xlsx
68	main_safe	True	0.0	766	0	2.0	2.0	0.0	1	left	1.0	1.0	1.0	0	-0.08	blockFiles/set_18/main_safe/rightBlue\GB_RB_1.xlsx
69	main_safe	True	0.0	766	0	2.0	2.0	0.0	1	left	1.0	1.0	1.0	0	-0.08	blockFiles/set_18/main_safe/rightBlue\GB_RB_1.xlsx
70	main_safe	True	0.0	766	0	2.0	2.0	0.0	1	left	1.0	1.0	1.0	0	-0.08	blockFiles/set_18/main_safe/rightBlue\GB_RB_1.xlsx
71	main_safe	True	0.0	766	0	2.0	2.0	1.0	1	right	2.0	1.0	1.0	1	0.08	blockFiles/set_18/main_safe/rightBlue\GB_RB_1.xlsx
72	main_safe	True	0.0	766	0	2.0	2.0	0.0	1	left	1.0	1.0	1.0	0	-0.08	blockFiles/set_18/main_safe/rightBlue\GB_RB_1.xlsx
73	main_safe	True	0.0	766	0	2.0	2.0	1.0	1	right	2.0	1.0	1.0	1	0.08	blockFiles/set_18/main_safe/rightBlue\GB_RB_1.xlsx
74	main_safe	True	0.0	766	0	2.0	2.0	0.0	1	left	1.0	1.0	1.0	0	-0.08	blockFiles/set_18/main_safe/rightBlue\GB_RB_1.xlsx
75	main_safe	True	0.0	766	0	2.0	2.0	0.0	1	left	1.0	1.0	1.0	0	-0.08	blockFiles/set_18/main_safe/rightBlue\GB_RB_1.xlsx
76	main_safe	True	0.0	766	0	3.0	3.0	0.0	1	left	2.0	0.0	0.0	0	-0.08	blockFiles/set_18/main_safe/rightBlue\GB_RB_3.xlsx
77	main_safe	True	0.0	766	0	3.0	3.0	1.0	1	right	2.0	1.0	1.0	1	0.08	blockFiles/set_18/main_safe/rightBlue\GB_RB_3.xlsx
78	main_safe	True	1.0	766	0	3.0	3.0	1.0	1	right	n/a	0.0	n/a	1	0.08	blockFiles/set_18/main_safe/rightBlue\GB_RB_3.xlsx
79	main_safe	True	0.0	766	0	3.0	3.0	0.0	1	left	1.0	1.0	1.0	0	-0.08	blockFiles/set_18/main_safe/rightBlue\GB_RB_3.xlsx
80	main_safe	True	0.0	766	0	3.0	3.0	0.0	1	left	1.0	1.0	1.0	0	-0.08	blockFiles/set_18/main_safe/rightBlue\GB_RB_3.xlsx
81	main_safe	True	0.0	766	0	3.0	3.0	1.0	1	right	2.0	1.0	1.0	1	0.08	blockFiles/set_18/main_safe/rightBlue\GB_RB_3.xlsx
82	main_safe	True	0.0	766	0	3.0	3.0	1.0	1	right	2.0	1.0	1.0	1	0.08	blockFiles/set_18/main_safe/rightBlue\GB_RB_3.xlsx
83	main_safe	True	0.0	766	0	3.0	3.0	1.0	1	right	2.0	0.0	1.0	1	0.08	blockFiles/set_18/main_safe/rightBlue\GB_RB_3.xlsx
84	main_safe	True	0.0	766	0	3.0	3.0	0.0	1	left	1.0	1.0	1.0	0	-0.08	blockFiles/set_18/main_safe/rightBlue\GB_RB_3.xlsx
85	main_safe	True	0.0	766	0	3.0	3.0	1.0	1	right	2.0	0.0	1.0	1	0.08	blockFiles/set_18/main_safe/rightBlue\GB_RB_3.xlsx
86	main_safe	True	0.0	766	0	3.0	3.0	0.0	1	left	1.0	1.0	1.0	0	-0.08	blockFiles/set_18/main_safe/rightBlue\GB_RB_3.xlsx
87	main_safe	True	0.0	766	0	3.0	3.0	1.0	1	right	2.0	0.0	1.0	1	0.08	blockFiles/set_18/main_safe/rightBlue\GB_RB_3.xlsx
88	main_safe	True	0.0	766	0	3.0	3.0	1.0	1	right	2.0	0.0	1.0	1	0.08	blockFiles/set_18/main_safe/rightBlue\GB_RB_3.xlsx
89	main_safe	True	0.0	766	0	3.0	3.0	1.0	1	right	2.0	1.0	1.0	1	0.08	blockFiles/set_18/main_safe/rightBlue\GB_RB_3.xlsx
90	main_safe	True	0.0	766	0	3.0	3.0	0.0	1	left	1.0	1.0	1.0	0	-0.08	blockFiles/set_18/main_safe/rightBlue\GB_RB_3.xlsx
91	main_safe	True	0.0	766	0	3.0	3.0	0.0	1	left	1.0	1.0	1.0	0	-0.08	blockFiles/set_18/main_safe/rightBlue\GB_RB_3.xlsx
92	main_safe	True	0.0	766	0	3.0	3.0	1.0	1	right	2.0	1.0	1.0	1	0.08	blockFiles/set_18/main_safe/rightBlue\GB_RB_3.xlsx
93	main_safe	True	0.0	766	0	3.0	3.0	0.0	1	left	1.0	1.0	1.0	0	-0.08	blockFiles/set_18/main_safe/rightBlue\GB_RB_3.xlsx
94	main_safe	True	0.0	766	0	3.0	3.0	0.0	1	left	1.0	1.0	1.0	0	-0.08	blockFiles/set_18/main_safe/rightBlue\GB_RB_3.xlsx
95	main_safe	True	0.0	766	0	3.0	3.0	0.0	1	left	1.0	1.0	1.0	0	-0.08	blockFiles/set_18/main_safe/rightBlue\GB_RB_3.xlsx
96	main_safe	True	0.0	766	0	3.0	3.0	1.0	1	right	2.0	1.0	1.0	1	0.08	blockFiles/set_18/main_safe/rightBlue\GB_RB_3.xlsx
97	main_safe	True	0.0	766	0	3.0	3.0	0.0	1	left	1.0	1.0	1.0	0	-0.08	blockFiles/set_18/main_safe/rightBlue\GB_RB_3.xlsx
98	main_safe	True	0.0	766	0	3.0	3.0	0.0	1	left	1.0	1.0	1.0	0	-0.08	blockFiles/set_18/main_safe/rightBlue\GB_RB_3.xlsx
99	main_safe	True	0.0	766	0	3.0	3.0	0.0	1	left	1.0	1.0	1.0	0	-0.08	blockFiles/set_18/main_safe/rightBlue\GB_RB_3.xlsx
100	main_safe	True	1.0	766	0	3.0	3.0	n/a	0	None	n/a	0.0	n/a	0	-0.08	blockFiles/set_18/main_safe/rightBlue\GB_RB_3.xlsx
101	main_safe	True	0.0	766	0	3.0	3.0	1.0	1	right	2.0	1.0	1.0	1	0.08	blockFiles/set_18/main_safe/rightBlue\GB_RB_3.xlsx
102	main_safe	True	0.0	766	0	3.0	3.0	0.0	1	left	1.0	0.0	1.0	0	-0.08	blockFiles/set_18/main_safe/rightBlue\GB_RB_3.xlsx
103	main_safe	True	0.0	766	0	4.0	4.0	0.0	1	left	2.0	1.0	1.0	0	-0.08	blockFiles/set_18/main_safe/leftBlue\GB_LB_1.xlsx
104	main_safe	True	0.0	766	0	4.0	4.0	1.0	1	right	1.0	1.0	1.0	1	0.08	blockFiles/set_18/main_safe/leftBlue\GB_LB_1.xlsx
105	main_safe	True	0.0	766	0	4.0	4.0	1.0	1	right	1.0	1.0	1.0	1	0.08	blockFiles/set_18/main_safe/leftBlue\GB_LB_1.xlsx
106	main_safe	True	0.0	766	0	4.0	4.0	0.0	1	left	2.0	1.0	1.0	0	-0.08	blockFiles/set_18/main_safe/leftBlue\GB_LB_1.xlsx
107	main_safe	True	0.0	766	0	4.0	4.0	1.0	1	right	1.0	0.0	1.0	1	0.08	blockFiles/set_18/main_safe/leftBlue\GB_LB_1.xlsx
108	main_safe	True	0.0	766	0	4.0	4.0	1.0	1	right	1.0	1.0	1.0	1	0.08	blockFiles/set_18/main_safe/leftBlue\GB_LB_1.xlsx
109	main_safe	True	0.0	766	0	4.0	4.0	0.0	1	left	2.0	1.0	1.0	0	-0.08	blockFiles/set_18/main_safe/leftBlue\GB_LB_1.xlsx
110	main_safe	True	0.0	766	0	4.0	4.0	0.0	1	left	1.0	0.0	0.0	0	-0.08	blockFiles/set_18/main_safe/leftBlue\GB_LB_1.xlsx
111	main_safe	True	0.0	766	0	4.0	4.0	1.0	1	right	1.0	1.0	1.0	1	0.08	blockFiles/set_18/main_safe/leftBlue\GB_LB_1.xlsx
112	main_safe	True	0.0	766	0	4.0	4.0	1.0	1	right	1.0	0.0	1.0	1	0.08	blockFiles/set_18/main_safe/leftBlue\GB_LB_1.xlsx
113	main_safe	True	0.0	766	0	4.0	4.0	1.0	1	right	1.0	1.0	1.0	1	0.08	blockFiles/set_18/main_safe/leftBlue\GB_LB_1.xlsx
114	main_safe	True	0.0	766	0	4.0	4.0	0.0	1	left	2.0	1.0	1.0	0	-0.08	blockFiles/set_18/main_safe/leftBlue\GB_LB_1.xlsx
115	main_safe	True	0.0	766	0	4.0	4.0	0.0	1	left	2.0	1.0	1.0	0	-0.08	blockFiles/set_18/main_safe/leftBlue\GB_LB_1.xlsx
116	main_safe	True	0.0	766	0	4.0	4.0	1.0	1	right	1.0	1.0	1.0	1	0.08	blockFiles/set_18/main_safe/leftBlue\GB_LB_1.xlsx
117	main_safe	True	0.0	766	0	4.0	4.0	0.0	1	left	1.0	0.0	0.0	0	-0.08	blockFiles/set_18/main_safe/leftBlue\GB_LB_1.xlsx
118	main_safe	True	0.0	766	0	4.0	4.0	0.0	1	left	1.0	1.0	0.0	0	-0.08	blockFiles/set_18/main_safe/leftBlue\GB_LB_1.xlsx
119	main_safe	True	0.0	766	0	4.0	4.0	1.0	1	right	2.0	0.0	0.0	1	0.08	blockFiles/set_18/main_safe/leftBlue\GB_LB_1.xlsx
120	main_safe	True	0.0	766	0	4.0	4.0	1.0	1	right	2.0	0.0	0.0	1	0.08	blockFiles/set_18/main_safe/leftBlue\GB_LB_1.xlsx
121	main_safe	True	0.0	766	0	4.0	4.0	0.0	1	left	2.0	1.0	1.0	0	-0.08	blockFiles/set_18/main_safe/leftBlue\GB_LB_1.xlsx
122	main_safe	True	0.0	766	0	4.0	4.0	0.0	1	left	2.0	1.0	1.0	0	-0.08	blockFiles/set_18/main_safe/leftBlue\GB_LB_1.xlsx
123	main_safe	True	0.0	766	0	4.0	4.0	0.0	1	left	2.0	0.0	1.0	0	-0.08	blockFiles/set_18/main_safe/leftBlue\GB_LB_1.xlsx
124	main_safe	True	0.0	766	0	4.0	4.0	1.0	1	right	1.0	0.0	1.0	1	0.08	blockFiles/set_18/main_safe/leftBlue\GB_LB_1.xlsx
125	main_safe	True	0.0	766	0	4.0	4.0	1.0	1	right	1.0	1.0	1.0	1	0.08	blockFiles/set_18/main_safe/leftBlue\GB_LB_1.xlsx
126	main_safe	True	0.0	766	0	4.0	4.0	0.0	1	left	2.0	1.0	1.0	0	-0.08	blockFiles/set_18/main_safe/leftBlue\GB_LB_1.xlsx
127	main_safe	True	0.0	766	0	4.0	4.0	0.0	1	left	2.0	1.0	1.0	0	-0.08	blockFiles/set_18/main_safe/leftBlue\GB_LB_1.xlsx
128	main_safe	True	0.0	766	0	5.0	5.0	1.0	1	right	2.0	0.0	0.0	1	0.08	blockFiles/set_18/main_safe/leftBlue\GB_LB_3.xlsx
129	main_safe	True	0.0	766	0	5.0	5.0	1.0	1	right	1.0	1.0	1.0	1	0.08	blockFiles/set_18/main_safe/leftBlue\GB_LB_3.xlsx
130	main_safe	True	0.0	766	0	5.0	5.0	0.0	1	left	2.0	1.0	1.0	0	-0.08	blockFiles/set_18/main_safe/leftBlue\GB_LB_3.xlsx
131	main_safe	True	0.0	766	0	5.0	5.0	1.0	1	right	1.0	0.0	1.0	1	0.08	blockFiles/set_18/main_safe/leftBlue\GB_LB_3.xlsx
132	main_safe	True	0.0	766	0	5.0	5.0	1.0	1	right	1.0	1.0	1.0	1	0.08	blockFiles/set_18/main_safe/leftBlue\GB_LB_3.xlsx
133	main_safe	True	0.0	766	0	5.0	5.0	0.0	1	left	2.0	1.0	1.0	0	-0.08	blockFiles/set_18/main_safe/leftBlue\GB_LB_3.xlsx
134	main_safe	True	0.0	766	0	5.0	5.0	0.0	1	left	1.0	0.0	0.0	0	-0.08	blockFiles/set_18/main_safe/leftBlue\GB_LB_3.xlsx
135	main_safe	True	0.0	766	0	5.0	5.0	1.0	1	right	1.0	1.0	1.0	1	0.08	blockFiles/set_18/main_safe/leftBlue\GB_LB_3.xlsx
136	main_safe	True	0.0	766	0	5.0	5.0	0.0	1	left	2.0	1.0	1.0	0	-0.08	blockFiles/set_18/main_safe/leftBlue\GB_LB_3.xlsx
137	main_safe	True	1.0	766	0	5.0	5.0	0.0	1	left	n/a	0.0	n/a	0	-0.08	blockFiles/set_18/main_safe/leftBlue\GB_LB_3.xlsx
138	main_safe	True	0.0	766	0	5.0	5.0	0.0	1	left	2.0	1.0	1.0	0	-0.08	blockFiles/set_18/main_safe/leftBlue\GB_LB_3.xlsx
139	main_safe	True	0.0	766	0	5.0	5.0	1.0	1	right	1.0	1.0	1.0	1	0.08	blockFiles/set_18/main_safe/leftBlue\GB_LB_3.xlsx
140	main_safe	True	1.0	766	0	5.0	5.0	0.0	1	left	n/a	0.0	n/a	0	-0.08	blockFiles/set_18/main_safe/leftBlue\GB_LB_3.xlsx
141	main_safe	True	0.0	766	0	5.0	5.0	0.0	1	left	2.0	0.0	1.0	0	-0.08	blockFiles/set_18/main_safe/leftBlue\GB_LB_3.xlsx
142	main_safe	True	0.0	766	0	5.0	5.0	1.0	1	right	1.0	1.0	1.0	1	0.08	blockFiles/set_18/main_safe/leftBlue\GB_LB_3.xlsx
143	main_safe	True	0.0	766	0	5.0	5.0	0.0	1	left	2.0	1.0	1.0	0	-0.08	blockFiles/set_18/main_safe/leftBlue\GB_LB_3.xlsx
144	main_safe	True	0.0	766	0	5.0	5.0	1.0	1	right	1.0	0.0	1.0	1	0.08	blockFiles/set_18/main_safe/leftBlue\GB_LB_3.xlsx
145	main_safe	True	0.0	766	0	5.0	5.0	1.0	1	right	1.0	1.0	1.0	1	0.08	blockFiles/set_18/main_safe/leftBlue\GB_LB_3.xlsx
146	main_safe	True	0.0	766	0	5.0	5.0	0.0	1	left	2.0	1.0	1.0	0	-0.08	blockFiles/set_18/main_safe/leftBlue\GB_LB_3.xlsx
147	main_safe	True	0.0	766	0	5.0	5.0	1.0	1	right	1.0	0.0	1.0	1	0.08	blockFiles/set_18/main_safe/leftBlue\GB_LB_3.xlsx
148	main_safe	True	0.0	766	0	5.0	5.0	1.0	1	right	1.0	1.0	1.0	1	0.08	blockFiles/set_18/main_safe/leftBlue\GB_LB_3.xlsx
149	main_safe	True	0.0	766	0	5.0	5.0	0.0	1	left	2.0	1.0	1.0	0	-0.08	blockFiles/set_18/main_safe/leftBlue\GB_LB_3.xlsx
150	main_safe	True	0.0	766	0	5.0	5.0	1.0	1	right	1.0	1.0	1.0	1	0.08	blockFiles/set_18/main_safe/leftBlue\GB_LB_3.xlsx
151	main_safe	True	0.0	766	0	5.0	5.0	1.0	1	right	1.0	1.0	1.0	1	0.08	blockFiles/set_18/main_safe/leftBlue\GB_LB_3.xlsx
152	main_safe	True	0.0	766	0	5.0	5.0	0.0	1	left	2.0	1.0	1.0	0	-0.08	blockFiles/set_18/main_safe/leftBlue\GB_LB_3.xlsx
153	main_safe	True	0.0	766	0	5.0	5.0	0.0	1	left	n/a	0.0	n/a	0	-0.08	blockFiles/set_18/main_safe/leftBlue\GB_LB_3.xlsx
154	main_safe	True	0.0	766	0	5.0	5.0	0.0	1	left	2.0	1.0	1.0	0	-0.08	blockFiles/set_18/main_safe/leftBlue\GB_LB_3.xlsx
155	main_safe	True	0.0	766	0	5.0	5.0	0.0	1	left	2.0	0.0	1.0	0	-0.08	blockFiles/set_18/main_safe/leftBlue\GB_LB_3.xlsx
156	patches	True	n/a	766	0	n/a	n/a	1.0	1	right	n/a	n/a	n/a	1	0.04010447409	blockFiles/set_18/main_PD/GB_runPatches1.xlsx
157	patches	True	n/a	766	0	n/a	n/a	0.0	1	left	n/a	n/a	n/a	0	-0.015581989921600002	blockFiles/set_18/main_PD/GB_runPatches1.xlsx
158	patches	True	n/a	766	0	n/a	n/a	1.0	0	right	n/a	n/a	n/a	0	-0.0774997309223	blockFiles/set_18/main_PD/GB_runPatches1.xlsx
159	patches	True	n/a	766	0	n/a	n/a	0.0	1	left	n/a	n/a	n/a	0	-0.0328375727311	blockFiles/set_18/main_PD/GB_runPatches1.xlsx
160	patches	True	n/a	766	0	n/a	n/a	1.0	1	right	n/a	n/a	n/a	1	0.059708723519	blockFiles/set_18/main_PD/GB_runPatches1.xlsx
161	patches	True	n/a	766	0	n/a	n/a	1.0	1	right	n/a	n/a	n/a	1	0.0274483544007	blockFiles/set_18/main_PD/GB_runPatches1.xlsx
162	patches	True	n/a	766	0	n/a	n/a	1.0	1	right	n/a	n/a	n/a	1	0.0110561939143	blockFiles/set_18/main_PD/GB_runPatches1.xlsx
163	patches	True	n/a	766	0	n/a	n/a	1.0	0	right	n/a	n/a	n/a	0	-0.07183534488080001	blockFiles/set_18/main_PD/GB_runPatches1.xlsx
164	patches	True	n/a	766	0	n/a	n/a	0.0	1	left	n/a	n/a	n/a	0	-0.0023224573582399997	blockFiles/set_18/main_PD/GB_runPatches1.xlsx
165	patches	True	n/a	766	0	n/a	n/a	0.0	0	left	n/a	n/a	n/a	1	0.06649394098669999	blockFiles/set_18/main_PD/GB_runPatches1.xlsx
166	patches	True	n/a	766	0	n/a	n/a	1.0	1	right	n/a	n/a	n/a	1	0.06009097578	blockFiles/set_18/main_PD/GB_runPatches1.xlsx
167	patches	True	n/a	766	0	n/a	n/a	1.0	0	right	n/a	n/a	n/a	0	-0.00430267821997	blockFiles/set_18/main_PD/GB_runPatches1.xlsx
168	patches	True	n/a	766	0	n/a	n/a	0.0	1	left	n/a	n/a	n/a	0	-0.0608620234206	blockFiles/set_18/main_PD/GB_runPatches1.xlsx
169	patches	True	n/a	766	0	n/a	n/a	0.0	1	left	n/a	n/a	n/a	0	-0.0179015963897	blockFiles/set_18/main_PD/GB_runPatches1.xlsx
170	patches	True	n/a	766	0	n/a	n/a	0.0	0	left	n/a	n/a	n/a	1	0.00172467680648	blockFiles/set_18/main_PD/GB_runPatches1.xlsx
171	patches	True	n/a	766	0	n/a	n/a	0.0	0	left	n/a	n/a	n/a	1	0.027148519474999997	blockFiles/set_18/main_PD/GB_runPatches1.xlsx
172	patches	True	n/a	766	0	n/a	n/a	0.0	1	left	n/a	n/a	n/a	0	-0.0599675202556	blockFiles/set_18/main_PD/GB_runPatches1.xlsx
173	patches	True	n/a	766	0	n/a	n/a	0.0	0	left	n/a	n/a	n/a	1	0.0580575402267	blockFiles/set_18/main_PD/GB_runPatches1.xlsx
174	patches	True	n/a	766	0	n/a	n/a	0.0	0	left	n/a	n/a	n/a	1	0.0211544746906	blockFiles/set_18/main_PD/GB_runPatches1.xlsx
175	patches	True	n/a	766	0	n/a	n/a	0.0	0	left	n/a	n/a	n/a	1	0.024707037285	blockFiles/set_18/main_PD/GB_runPatches1.xlsx
176	patches	True	n/a	766	0	n/a	n/a	0.0	1	left	n/a	n/a	n/a	0	-0.0578870682605	blockFiles/set_18/main_PD/GB_runPatches1.xlsx
177	patches	True	n/a	766	0	n/a	n/a	0.0	0	left	n/a	n/a	n/a	1	0.046954374518200004	blockFiles/set_18/main_PD/GB_runPatches1.xlsx
178	patches	True	n/a	766	0	n/a	n/a	1.0	0	right	n/a	n/a	n/a	0	-0.0181775452197	blockFiles/set_18/main_PD/GB_runPatches1.xlsx
179	patches	True	n/a	766	0	n/a	n/a	n/a	0	None	n/a	n/a	n/a	1	0.0478748823144	blockFiles/set_18/main_PD/GB_runPatches1.xlsx
180	patches	True	n/a	766	0	n/a	n/a	0.0	1	left	n/a	n/a	n/a	0	-0.0549118519016	blockFiles/set_18/main_PD/GB_runPatches1.xlsx
181	patches	True	n/a	766	0	n/a	n/a	0.0	1	left	n/a	n/a	n/a	0	-0.035594047140300004	blockFiles/set_18/main_PD/GB_runPatches1.xlsx
182	patches	True	n/a	766	0	n/a	n/a	1.0	1	right	n/a	n/a	n/a	1	0.045841326341	blockFiles/set_18/main_PD/GB_runPatches1.xlsx
183	patches	True	n/a	766	0	n/a	n/a	0.0	1	left	n/a	n/a	n/a	0	-0.0600906733237	blockFiles/set_18/main_PD/GB_runPatches1.xlsx
184	patches	True	n/a	766	0	n/a	n/a	1.0	1	right	n/a	n/a	n/a	1	0.027293241228900002	blockFiles/set_18/main_PD/GB_runPatches1.xlsx
185	patches	True	n/a	766	0	n/a	n/a	0.0	1	left	n/a	n/a	n/a	0	-0.0120866344869	blockFiles/set_18/main_PD/GB_runPatches1.xlsx
186	patches	True	n/a	766	0	n/a	n/a	0.0	1	left	n/a	n/a	n/a	0	-0.0373613949679	blockFiles/set_18/main_PD/GB_runPatches1.xlsx
187	patches	True	n/a	766	0	n/a	n/a	1.0	0	right	n/a	n/a	n/a	0	-0.0431031752378	blockFiles/set_18/main_PD/GB_runPatches1.xlsx
188	patches	True	n/a	766	0	n/a	n/a	0.0	1	left	n/a	n/a	n/a	0	-0.0702072091773	blockFiles/set_18/main_PD/GB_runPatches1.xlsx
189	patches	True	n/a	766	0	n/a	n/a	0.0	1	left	n/a	n/a	n/a	0	-0.031904527712599995	blockFiles/set_18/main_PD/GB_runPatches1.xlsx
190	patches	True	n/a	766	0	n/a	n/a	0.0	0	left	n/a	n/a	n/a	1	0.0485173896886	blockFiles/set_18/main_PD/GB_runPatches1.xlsx
191	patches	True	n/a	766	0	n/a	n/a	1.0	1	right	n/a	n/a	n/a	1	0.0175459664501	blockFiles/set_18/main_PD/GB_runPatches1.xlsx
192	patches	True	n/a	766	0	n/a	n/a	1.0	1	right	n/a	n/a	n/a	1	0.0712247929163	blockFiles/set_18/main_PD/GB_runPatches1.xlsx
193	patches	True	n/a	766	0	n/a	n/a	0.0	1	left	n/a	n/a	n/a	0	-0.0695471824892	blockFiles/set_18/main_PD/GB_runPatches1.xlsx
194	patches	True	n/a	766	0	n/a	n/a	1.0	1	right	n/a	n/a	n/a	1	0.028267858643099997	blockFiles/set_18/main_PD/GB_runPatches1.xlsx
195	patches	True	n/a	766	0	n/a	n/a	1.0	1	right	n/a	n/a	n/a	1	0.0433005584031	blockFiles/set_18/main_PD/GB_runPatches1.xlsx
196	patches	True	n/a	766	0	n/a	n/a	1.0	1	right	n/a	n/a	n/a	1	0.059173247125	blockFiles/set_18/main_PD/GB_runPatches1.xlsx
197	patches	True	n/a	766	0	n/a	n/a	0.0	1	left	n/a	n/a	n/a	0	-0.00584345012903	blockFiles/set_18/main_PD/GB_runPatches1.xlsx
198	patches	True	n/a	766	0	n/a	n/a	0.0	1	left	n/a	n/a	n/a	0	-0.049790722783699996	blockFiles/set_18/main_PD/GB_runPatches1.xlsx
199	patches	True	n/a	766	0	n/a	n/a	0.0	1	left	n/a	n/a	n/a	0	-0.0432049796358	blockFiles/set_18/main_PD/GB_runPatches1.xlsx
200	patches	True	n/a	766	0	n/a	n/a	0.0	1	left	n/a	n/a	n/a	0	-0.062460801098499996	blockFiles/set_18/main_PD/GB_runPatches1.xlsx
201	patches	True	n/a	766	0	n/a	n/a	0.0	1	left	n/a	n/a	n/a	0	-0.010760907568000001	blockFiles/set_18/main_PD/GB_runPatches1.xlsx
202	patches	True	n/a	766	0	n/a	n/a	1.0	1	right	n/a	n/a	n/a	1	0.044142032247	blockFiles/set_18/main_PD/GB_runPatches1.xlsx
203	patches	True	n/a	766	0	n/a	n/a	0.0	1	left	n/a	n/a	n/a	0	-0.0414734757319	blockFiles/set_18/main_PD/GB_runPatches1.xlsx
204	patches	True	n/a	766	0	n/a	n/a	0.0	0	left	n/a	n/a	n/a	1	0.0131378895603	blockFiles/set_18/main_PD/GB_runPatches1.xlsx
205	patches	True	n/a	766	0	n/a	n/a	1.0	1	right	n/a	n/a	n/a	1	0.0446682307124	blockFiles/set_18/main_PD/GB_runPatches1.xlsx
206	patches	True	n/a	766	0	n/a	n/a	0.0	1	left	n/a	n/a	n/a	0	-0.058584320377599995	blockFiles/set_18/main_PD/GB_runPatches1.xlsx
207	patches	True	n/a	766	0	n/a	n/a	1.0	1	right	n/a	n/a	n/a	1	0.0746420976333	blockFiles/set_18/main_PD/GB_runPatches1.xlsx
208	patches	True	n/a	766	0	n/a	n/a	1.0	0	right	n/a	n/a	n/a	0	-0.00251925531775	blockFiles/set_18/main_PD/GB_runPatches1.xlsx
209	patches	True	n/a	766	0	n/a	n/a	1.0	1	right	n/a	n/a	n/a	1	0.0639145256579	blockFiles/set_18/main_PD/GB_runPatches1.xlsx
210	patches	True	n/a	766	0	n/a	n/a	1.0	0	right	n/a	n/a	n/a	0	-0.0385798469931	blockFiles/set_18/main_PD/GB_runPatches1.xlsx
211	patches	True	n/a	766	0	n/a	n/a	0.0	1	left	n/a	n/a	n/a	0	-0.0381237564981	blockFiles/set_18/main_PD/GB_runPatches1.xlsx
212	patches	True	n/a	766	0	n/a	n/a	n/a	0	None	n/a	n/a	n/a	1	0.053914406113300006	blockFiles/set_18/main_PD/GB_runPatches1.xlsx
213	patches	True	n/a	766	0	n/a	n/a	1.0	1	right	n/a	n/a	n/a	1	0.044373944886	blockFiles/set_18/main_PD/GB_runPatches1.xlsx
214	patches	True	n/a	766	0	n/a	n/a	1.0	0	right	n/a	n/a	n/a	0	-0.0544142637961	blockFiles/set_18/main_PD/GB_runPatches1.xlsx
215	patches	True	n/a	766	0	n/a	n/a	0.0	1	left	n/a	n/a	n/a	0	-0.00353184266016	blockFiles/set_18/main_PD/GB_runPatches1.xlsx
216	patches	True	n/a	766	0	n/a	n/a	1.0	1	right	n/a	n/a	n/a	1	0.00242102475837	blockFiles/set_18/main_PD/GB_runPatches1.xlsx
217	patches	True	n/a	766	0	n/a	n/a	0.0	1	left	n/a	n/a	n/a	0	-0.0688070804998	blockFiles/set_18/main_PD/GB_runPatches1.xlsx
218	patches	True	n/a	766	0	n/a	n/a	1.0	1	right	n/a	n/a	n/a	1	0.06683051442730001	blockFiles/set_18/main_PD/GB_runPatches1.xlsx
219	patches	True	n/a	766	0	n/a	n/a	1.0	1	right	n/a	n/a	n/a	1	0.0573877573013	blockFiles/set_18/main_PD/GB_runPatches1.xlsx
220	patches	True	n/a	766	0	n/a	n/a	0.0	1	left	n/a	n/a	n/a	0	-0.07706708481539999	blockFiles/set_18/main_PD/GB_runPatches1.xlsx
221	patches	True	n/a	766	0	n/a	n/a	0.0	0	left	n/a	n/a	n/a	1	0.0090671713464	blockFiles/set_18/main_PD/GB_runPatches1.xlsx
222	patches	True	n/a	766	0	n/a	n/a	0.0	1	left	n/a	n/a	n/a	0	-0.0404217660055	blockFiles/set_18/main_PD/GB_runPatches1.xlsx
223	patches	True	n/a	766	0	n/a	n/a	n/a	0	None	n/a	n/a	n/a	0	-0.0407277048938	blockFiles/set_18/main_PD/GB_runPatches1.xlsx
224	patches	True	n/a	766	0	n/a	n/a	0.0	1	left	n/a	n/a	n/a	0	-0.0182996342145	blockFiles/set_18/main_PD/GB_runPatches1.xlsx
225	patches	True	n/a	766	0	n/a	n/a	0.0	1	left	n/a	n/a	n/a	0	-0.0404219757207	blockFiles/set_18/main_PD/GB_runPatches1.xlsx
226	patches	True	n/a	766	0	n/a	n/a	1.0	1	right	n/a	n/a	n/a	1	0.06794326599690001	blockFiles/set_18/main_PD/GB_runPatches1.xlsx
227	patches	True	n/a	766	0	n/a	n/a	0.0	1	left	n/a	n/a	n/a	0	-0.0756772996299	blockFiles/set_18/main_PD/GB_runPatches1.xlsx
228	patches	True	n/a	766	0	n/a	n/a	1.0	0	right	n/a	n/a	n/a	0	-0.042682402655499996	blockFiles/set_18/main_PD/GB_runPatches1.xlsx
229	patches	True	n/a	766	0	n/a	n/a	0.0	1	left	n/a	n/a	n/a	0	-0.0360175447352	blockFiles/set_18/main_PD/GB_runPatches1.xlsx
230	patches	True	n/a	766	0	n/a	n/a	1.0	0	right	n/a	n/a	n/a	0	-0.021900896765299997	blockFiles/set_18/main_PD/GB_runPatches1.xlsx
231	patches	True	n/a	766	0	n/a	n/a	0.0	0	left	n/a	n/a	n/a	1	0.0168954507448	blockFiles/set_18/main_PD/GB_runPatches1.xlsx
232	patches	True	n/a	766	0	n/a	n/a	1.0	1	right	n/a	n/a	n/a	1	0.021888123527199998	blockFiles/set_18/main_PD/GB_runPatches1.xlsx
233	patches	True	n/a	766	0	n/a	n/a	0.0	1	left	n/a	n/a	n/a	0	-0.0388016805984	blockFiles/set_18/main_PD/GB_runPatches1.xlsx
234	patches	True	n/a	766	0	n/a	n/a	0.0	1	left	n/a	n/a	n/a	0	-0.0687650351971	blockFiles/set_18/main_PD/GB_runPatches1.xlsx
235	patches	True	n/a	766	0	n/a	n/a	0.0	0	left	n/a	n/a	n/a	1	0.05953350000080001	blockFiles/set_18/main_PD/GB_runPatches1.xlsx
236	patches	True	n/a	766	0	n/a	n/a	1.0	1	right	n/a	n/a	n/a	1	0.0618336278386	blockFiles/set_18/main_PD/GB_runPatches1.xlsx
237	patches	True	n/a	766	0	n/a	n/a	1.0	1	right	n/a	n/a	n/a	1	0.060827082935699994	blockFiles/set_18/main_PD/GB_runPatches1.xlsx
238	patches	True	n/a	766	0	n/a	n/a	1.0	1	right	n/a	n/a	n/a	1	0.00809551523998	blockFiles/set_18/main_PD/GB_runPatches1.xlsx
239	patches	True	n/a	766	0	n/a	n/a	0.0	0	left	n/a	n/a	n/a	1	0.026016618832900004	blockFiles/set_18/main_PD/GB_runPatches1.xlsx
240	patches	True	n/a	766	0	n/a	n/a	1.0	1	right	n/a	n/a	n/a	1	0.058371800612699996	blockFiles/set_18/main_PD/GB_runPatches1.xlsx
241	patches	True	n/a	766	0	n/a	n/a	1.0	0	right	n/a	n/a	n/a	0	-0.00928879462183	blockFiles/set_18/main_PD/GB_runPatches1.xlsx
242	patches	True	n/a	766	0	n/a	n/a	0.0	1	left	n/a	n/a	n/a	0	-0.0375392587669	blockFiles/set_18/main_PD/GB_runPatches1.xlsx
243	patches	True	n/a	766	0	n/a	n/a	n/a	0	None	n/a	n/a	n/a	0	-0.0346125173755	blockFiles/set_18/main_PD/GB_runPatches1.xlsx
244	patches	True	n/a	766	0	n/a	n/a	1.0	1	right	n/a	n/a	n/a	1	0.041935109272599996	blockFiles/set_18/main_PD/GB_runPatches1.xlsx
245	patches	True	n/a	766	0	n/a	n/a	n/a	0	None	n/a	n/a	n/a	1	0.0786922090687	blockFiles/set_18/main_PD/GB_runPatches1.xlsx
246	patches	True	n/a	766	0	n/a	n/a	0.0	1	left	n/a	n/a	n/a	0	-0.0005102383904160001	blockFiles/set_18/main_PD/GB_runPatches1.xlsx
247	patches	True	n/a	766	0	n/a	n/a	1.0	1	right	n/a	n/a	n/a	1	0.0492726930976	blockFiles/set_18/main_PD/GB_runPatches1.xlsx
248	patches	True	n/a	766	0	n/a	n/a	1.0	1	right	n/a	n/a	n/a	1	0.0139579300582	blockFiles/set_18/main_PD/GB_runPatches1.xlsx
249	patches	True	n/a	766	0	n/a	n/a	0.0	1	left	n/a	n/a	n/a	0	-0.0668576436304	blockFiles/set_18/main_PD/GB_runPatches1.xlsx
250	patches	True	n/a	766	0	n/a	n/a	n/a	0	None	n/a	n/a	n/a	1	0.0492438049614	blockFiles/set_18/main_PD/GB_runPatches1.xlsx
251	patches	True	n/a	766	0	n/a	n/a	1.0	1	right	n/a	n/a	n/a	1	0.048327492903899996	blockFiles/set_18/main_PD/GB_runPatches1.xlsx
252	patches	True	n/a	766	0	n/a	n/a	0.0	1	left	n/a	n/a	n/a	0	-0.00682816721499	blockFiles/set_18/main_PD/GB_runPatches1.xlsx
253	patches	True	n/a	766	0	n/a	n/a	0.0	0	left	n/a	n/a	n/a	1	0.009812893345950001	blockFiles/set_18/main_PD/GB_runPatches1.xlsx
254	patches	True	n/a	766	0	n/a	n/a	0.0	0	left	n/a	n/a	n/a	1	0.0241789635457	blockFiles/set_18/main_PD/GB_runPatches1.xlsx
255	patches	True	n/a	766	0	n/a	n/a	1.0	1	right	n/a	n/a	n/a	1	0.021913161035599996	blockFiles/set_18/main_PD/GB_runPatches1.xlsx
256	main_unc	True	0.0	766	0	0.0	0.0	0.0	1	left	2.0	1.0	1.0	0	-0.0352940186486	blockFiles/set_18/main_unc/leftBlue\GB_LB_2.xlsx
257	main_unc	True	0.0	766	0	0.0	0.0	0.0	1	left	2.0	1.0	1.0	0	-0.0711499316618	blockFiles/set_18/main_unc/leftBlue\GB_LB_2.xlsx
258	main_unc	True	0.0	766	0	0.0	0.0	1.0	1	right	1.0	1.0	1.0	1	0.0307607562654	blockFiles/set_18/main_unc/leftBlue\GB_LB_2.xlsx
259	main_unc	True	0.0	766	0	0.0	0.0	1.0	1	right	1.0	0.0	1.0	1	0.0116663985513	blockFiles/set_18/main_unc/leftBlue\GB_LB_2.xlsx
260	main_unc	True	1.0	766	0	0.0	0.0	1.0	0	right	n/a	0.0	n/a	0	-0.039815378226300005	blockFiles/set_18/main_unc/leftBlue\GB_LB_2.xlsx
261	main_unc	True	0.0	766	0	0.0	0.0	1.0	0	right	2.0	1.0	1.0	0	-0.0181510476582	blockFiles/set_18/main_unc/leftBlue\GB_LB_2.xlsx
262	main_unc	True	0.0	766	0	0.0	0.0	0.0	1	left	2.0	1.0	1.0	0	-0.04930705068630001	blockFiles/set_18/main_unc/leftBlue\GB_LB_2.xlsx
263	main_unc	True	0.0	766	0	0.0	0.0	1.0	1	right	1.0	0.0	1.0	1	0.07438766939569999	blockFiles/set_18/main_unc/leftBlue\GB_LB_2.xlsx
264	main_unc	True	0.0	766	0	0.0	0.0	0.0	1	left	2.0	1.0	1.0	0	-0.040605085771499995	blockFiles/set_18/main_unc/leftBlue\GB_LB_2.xlsx
265	main_unc	True	0.0	766	0	0.0	0.0	1.0	1	right	1.0	0.0	1.0	1	0.04842215854669999	blockFiles/set_18/main_unc/leftBlue\GB_LB_2.xlsx
266	main_unc	True	0.0	766	0	0.0	0.0	0.0	1	left	2.0	1.0	1.0	0	-0.07553626623	blockFiles/set_18/main_unc/leftBlue\GB_LB_2.xlsx
267	main_unc	True	0.0	766	0	0.0	0.0	1.0	1	right	1.0	1.0	1.0	1	0.0238638226129	blockFiles/set_18/main_unc/leftBlue\GB_LB_2.xlsx
268	main_unc	True	0.0	766	0	0.0	0.0	1.0	1	right	1.0	1.0	1.0	1	0.0557075371593	blockFiles/set_18/main_unc/leftBlue\GB_LB_2.xlsx
269	main_unc	True	0.0	766	0	0.0	0.0	1.0	0	right	2.0	0.0	1.0	0	-0.023370907865499998	blockFiles/set_18/main_unc/leftBlue\GB_LB_2.xlsx
270	main_unc	True	0.0	766	0	0.0	0.0	1.0	0	right	1.0	0.0	0.0	0	-0.00246483385563	blockFiles/set_18/main_unc/leftBlue\GB_LB_2.xlsx
271	main_unc	True	0.0	766	0	0.0	0.0	1.0	1	right	1.0	1.0	1.0	1	0.0563972349651	blockFiles/set_18/main_unc/leftBlue\GB_LB_2.xlsx
272	main_unc	True	0.0	766	0	0.0	0.0	1.0	1	right	1.0	1.0	1.0	1	0.0553004097939	blockFiles/set_18/main_unc/leftBlue\GB_LB_2.xlsx
273	main_unc	True	0.0	766	0	0.0	0.0	1.0	1	right	1.0	1.0	1.0	1	0.00320739027113	blockFiles/set_18/main_unc/leftBlue\GB_LB_2.xlsx
274	main_unc	True	0.0	766	0	0.0	0.0	1.0	0	right	1.0	1.0	0.0	0	-0.0246493531577	blockFiles/set_18/main_unc/leftBlue\GB_LB_2.xlsx
275	main_unc	True	0.0	766	0	0.0	0.0	0.0	1	left	2.0	1.0	1.0	0	-0.0666696658358	blockFiles/set_18/main_unc/leftBlue\GB_LB_2.xlsx
276	main_unc	True	0.0	766	0	0.0	0.0	0.0	1	left	2.0	1.0	1.0	0	-0.048619724251300005	blockFiles/set_18/main_unc/leftBlue\GB_LB_2.xlsx
277	main_unc	True	0.0	766	0	0.0	0.0	1.0	0	right	1.0	0.0	0.0	0	-0.005007627587770001	blockFiles/set_18/main_unc/leftBlue\GB_LB_2.xlsx
278	main_unc	True	0.0	766	0	0.0	0.0	1.0	1	right	1.0	1.0	1.0	1	0.03781714752319999	blockFiles/set_18/main_unc/leftBlue\GB_LB_2.xlsx
279	main_unc	True	0.0	766	0	0.0	0.0	1.0	1	right	1.0	1.0	1.0	1	0.0388242206536	blockFiles/set_18/main_unc/leftBlue\GB_LB_2.xlsx
280	main_unc	True	0.0	766	0	0.0	0.0	1.0	1	right	1.0	1.0	1.0	1	0.0705289503559	blockFiles/set_18/main_unc/leftBlue\GB_LB_2.xlsx
281	main_unc	True	0.0	766	0	0.0	0.0	0.0	1	left	2.0	0.0	1.0	0	-0.039815378226300005	blockFiles/set_18/main_unc/leftBlue\GB_LB_2.xlsx
282	main_unc	True	0.0	766	0	1.0	1.0	0.0	0	left	1.0	1.0	1.0	1	0.014608799777899998	blockFiles/set_18/main_unc/leftBlue\GB_LB_1.xlsx
283	main_unc	True	0.0	766	0	1.0	1.0	0.0	1	left	1.0	0.0	0.0	0	-0.0582538515888	blockFiles/set_18/main_unc/leftBlue\GB_LB_1.xlsx
284	main_unc	True	0.0	766	0	1.0	1.0	0.0	1	left	1.0	0.0	0.0	0	-0.0321487651579	blockFiles/set_18/main_unc/leftBlue\GB_LB_1.xlsx
285	main_unc	True	0.0	766	0	1.0	1.0	0.0	1	left	2.0	1.0	1.0	0	-0.020013373624499998	blockFiles/set_18/main_unc/leftBlue\GB_LB_1.xlsx
286	main_unc	True	0.0	766	0	1.0	1.0	1.0	1	right	1.0	0.0	1.0	1	0.0706545420364	blockFiles/set_18/main_unc/leftBlue\GB_LB_1.xlsx
287	main_unc	True	0.0	766	0	1.0	1.0	0.0	1	left	2.0	1.0	1.0	0	-0.0621219476685	blockFiles/set_18/main_unc/leftBlue\GB_LB_1.xlsx
288	main_unc	True	0.0	766	0	1.0	1.0	1.0	1	right	1.0	1.0	1.0	1	0.0182699124701	blockFiles/set_18/main_unc/leftBlue\GB_LB_1.xlsx
289	main_unc	True	0.0	766	0	1.0	1.0	1.0	1	right	1.0	1.0	1.0	1	0.0360184485279	blockFiles/set_18/main_unc/leftBlue\GB_LB_1.xlsx
290	main_unc	True	0.0	766	0	1.0	1.0	1.0	1	right	1.0	1.0	1.0	1	0.00652421830222	blockFiles/set_18/main_unc/leftBlue\GB_LB_1.xlsx
291	main_unc	True	1.0	766	0	1.0	1.0	1.0	0	right	n/a	0.0	n/a	0	-0.025057316273500004	blockFiles/set_18/main_unc/leftBlue\GB_LB_1.xlsx
292	main_unc	True	0.0	766	0	1.0	1.0	1.0	0	right	1.0	0.0	0.0	0	-0.00451803129166	blockFiles/set_18/main_unc/leftBlue\GB_LB_1.xlsx
293	main_unc	True	0.0	766	0	1.0	1.0	1.0	1	right	1.0	0.0	1.0	1	0.0625660568476	blockFiles/set_18/main_unc/leftBlue\GB_LB_1.xlsx
294	main_unc	True	0.0	766	0	1.0	1.0	0.0	1	left	2.0	1.0	1.0	0	-0.058169174790400006	blockFiles/set_18/main_unc/leftBlue\GB_LB_1.xlsx
295	main_unc	True	0.0	766	0	1.0	1.0	0.0	1	left	2.0	1.0	1.0	0	-0.042404821775900006	blockFiles/set_18/main_unc/leftBlue\GB_LB_1.xlsx
296	main_unc	True	0.0	766	0	1.0	1.0	1.0	1	right	1.0	0.0	1.0	1	0.0722547016293	blockFiles/set_18/main_unc/leftBlue\GB_LB_1.xlsx
297	main_unc	True	0.0	766	0	1.0	1.0	1.0	1	right	1.0	0.0	1.0	1	0.0236489125155	blockFiles/set_18/main_unc/leftBlue\GB_LB_1.xlsx
298	main_unc	True	0.0	766	0	1.0	1.0	0.0	1	left	2.0	1.0	1.0	0	-0.0119308078475	blockFiles/set_18/main_unc/leftBlue\GB_LB_1.xlsx
299	main_unc	True	0.0	766	0	1.0	1.0	1.0	1	right	1.0	1.0	1.0	1	0.056192781981100004	blockFiles/set_18/main_unc/leftBlue\GB_LB_1.xlsx
300	main_unc	True	0.0	766	0	1.0	1.0	0.0	1	left	2.0	1.0	1.0	0	-0.0441587805189	blockFiles/set_18/main_unc/leftBlue\GB_LB_1.xlsx
301	main_unc	True	0.0	766	0	1.0	1.0	0.0	1	left	2.0	1.0	1.0	0	-0.0566764534265	blockFiles/set_18/main_unc/leftBlue\GB_LB_1.xlsx
302	main_unc	True	0.0	766	0	1.0	1.0	1.0	1	right	1.0	1.0	1.0	1	0.050257477611300005	blockFiles/set_18/main_unc/leftBlue\GB_LB_1.xlsx
303	main_unc	True	0.0	766	0	1.0	1.0	0.0	1	left	2.0	1.0	1.0	0	-0.016993357949	blockFiles/set_18/main_unc/leftBlue\GB_LB_1.xlsx
304	main_unc	True	0.0	766	0	1.0	1.0	1.0	0	right	1.0	0.0	0.0	0	-0.00864065119997	blockFiles/set_18/main_unc/leftBlue\GB_LB_1.xlsx
305	main_unc	True	1.0	766	0	1.0	1.0	n/a	0	None	n/a	0.0	n/a	1	0.0599408060499	blockFiles/set_18/main_unc/leftBlue\GB_LB_1.xlsx
306	main_unc	True	0.0	766	0	1.0	1.0	1.0	1	right	1.0	1.0	1.0	1	0.07427885722369999	blockFiles/set_18/main_unc/leftBlue\GB_LB_1.xlsx
307	main_unc	True	0.0	766	0	1.0	1.0	0.0	1	left	2.0	1.0	1.0	0	-0.025057316273500004	blockFiles/set_18/main_unc/leftBlue\GB_LB_1.xlsx
308	main_unc	True	0.0	766	0	1.0	1.0	1.0	1	right	1.0	1.0	1.0	1	0.0599408060499	blockFiles/set_18/main_unc/leftBlue\GB_LB_1.xlsx
309	main_unc	True	0.0	766	0	2.0	2.0	1.0	1	right	1.0	0.0	0.0	1	0.019883083459	blockFiles/set_18/main_unc/rightBlue\GB_RB_5.xlsx
310	main_unc	True	1.0	766	0	2.0	2.0	n/a	0	None	n/a	0.0	n/a	0	-0.0659564588405	blockFiles/set_18/main_unc/rightBlue\GB_RB_5.xlsx
311	main_unc	True	0.0	766	0	2.0	2.0	1.0	1	right	2.0	1.0	1.0	1	0.0673963518254	blockFiles/set_18/main_unc/rightBlue\GB_RB_5.xlsx
312	main_unc	True	0.0	766	0	2.0	2.0	0.0	1	left	1.0	0.0	1.0	0	-0.0505230518058	blockFiles/set_18/main_unc/rightBlue\GB_RB_5.xlsx
313	main_unc	True	0.0	766	0	2.0	2.0	0.0	1	left	1.0	1.0	1.0	0	-0.00914285626262	blockFiles/set_18/main_unc/rightBlue\GB_RB_5.xlsx
314	main_unc	True	0.0	766	0	2.0	2.0	1.0	1	right	2.0	1.0	1.0	1	0.0356651546247	blockFiles/set_18/main_unc/rightBlue\GB_RB_5.xlsx
315	main_unc	True	1.0	766	0	2.0	2.0	n/a	0	None	n/a	0.0	n/a	1	0.051673779059199995	blockFiles/set_18/main_unc/rightBlue\GB_RB_5.xlsx
316	main_unc	True	0.0	766	0	2.0	2.0	1.0	1	right	1.0	0.0	0.0	1	0.0008534145355219999	blockFiles/set_18/main_unc/rightBlue\GB_RB_5.xlsx
317	main_unc	True	0.0	766	0	2.0	2.0	0.0	1	left	1.0	0.0	1.0	0	-0.0553361728974	blockFiles/set_18/main_unc/rightBlue\GB_RB_5.xlsx
318	main_unc	True	0.0	766	0	2.0	2.0	1.0	0	right	1.0	1.0	1.0	0	-0.0167109530792	blockFiles/set_18/main_unc/rightBlue\GB_RB_5.xlsx
319	main_unc	True	0.0	766	0	2.0	2.0	0.0	1	left	1.0	1.0	1.0	0	-0.04461434517059999	blockFiles/set_18/main_unc/rightBlue\GB_RB_5.xlsx
320	main_unc	True	0.0	766	0	2.0	2.0	0.0	1	left	1.0	1.0	1.0	0	-0.07759828841310001	blockFiles/set_18/main_unc/rightBlue\GB_RB_5.xlsx
321	main_unc	True	0.0	766	0	2.0	2.0	1.0	1	right	2.0	1.0	1.0	1	0.03748573891819999	blockFiles/set_18/main_unc/rightBlue\GB_RB_5.xlsx
322	main_unc	True	0.0	766	0	2.0	2.0	1.0	1	right	2.0	0.0	1.0	1	0.024564147461200003	blockFiles/set_18/main_unc/rightBlue\GB_RB_5.xlsx
323	main_unc	True	0.0	766	0	2.0	2.0	1.0	1	right	2.0	1.0	1.0	1	0.0499373932928	blockFiles/set_18/main_unc/rightBlue\GB_RB_5.xlsx
324	main_unc	True	0.0	766	0	2.0	2.0	1.0	0	right	1.0	0.0	1.0	0	-0.00654391888529	blockFiles/set_18/main_unc/rightBlue\GB_RB_5.xlsx
325	main_unc	True	0.0	766	0	2.0	2.0	0.0	1	left	1.0	1.0	1.0	0	-0.00850701613352	blockFiles/set_18/main_unc/rightBlue\GB_RB_5.xlsx
326	main_unc	True	1.0	766	0	2.0	2.0	n/a	0	None	n/a	0.0	n/a	1	0.051230178419500005	blockFiles/set_18/main_unc/rightBlue\GB_RB_5.xlsx
327	main_unc	True	0.0	766	0	2.0	2.0	1.0	1	right	2.0	0.0	1.0	1	0.0286693582125	blockFiles/set_18/main_unc/rightBlue\GB_RB_5.xlsx
328	main_unc	True	0.0	766	0	2.0	2.0	0.0	1	left	1.0	1.0	1.0	0	-0.0555366322026	blockFiles/set_18/main_unc/rightBlue\GB_RB_5.xlsx
329	main_unc	True	0.0	766	0	2.0	2.0	1.0	1	right	2.0	1.0	1.0	1	0.0409272970632	blockFiles/set_18/main_unc/rightBlue\GB_RB_5.xlsx
330	main_unc	True	0.0	766	0	2.0	2.0	0.0	1	left	1.0	1.0	1.0	0	-0.025990574248099998	blockFiles/set_18/main_unc/rightBlue\GB_RB_5.xlsx
331	main_unc	True	0.0	766	0	2.0	2.0	1.0	1	right	2.0	1.0	1.0	1	0.027835623454299997	blockFiles/set_18/main_unc/rightBlue\GB_RB_5.xlsx
332	main_unc	True	0.0	766	0	2.0	2.0	1.0	1	right	2.0	1.0	1.0	1	0.00830981407315	blockFiles/set_18/main_unc/rightBlue\GB_RB_5.xlsx
333	main_unc	True	0.0	766	0	2.0	2.0	1.0	1	right	2.0	1.0	1.0	1	0.0673114953563	blockFiles/set_18/main_unc/rightBlue\GB_RB_5.xlsx
334	main_unc	True	0.0	766	0	2.0	2.0	0.0	1	left	2.0	0.0	0.0	0	-0.0659564588405	blockFiles/set_18/main_unc/rightBlue\GB_RB_5.xlsx
335	main_unc	True	0.0	766	0	2.0	2.0	1.0	1	right	2.0	1.0	1.0	1	0.051673779059199995	blockFiles/set_18/main_unc/rightBlue\GB_RB_5.xlsx
336	main_unc	True	0.0	766	0	2.0	2.0	1.0	1	right	2.0	1.0	1.0	1	0.051230178419500005	blockFiles/set_18/main_unc/rightBlue\GB_RB_5.xlsx
337	main_unc	True	0.0	766	0	3.0	3.0	1.0	1	right	2.0	0.0	0.0	1	0.0740900947899	blockFiles/set_18/main_unc/leftBlue\GB_LB_4.xlsx
338	main_unc	True	0.0	766	0	3.0	3.0	0.0	1	left	2.0	1.0	1.0	0	-0.00691003724933	blockFiles/set_18/main_unc/leftBlue\GB_LB_4.xlsx
339	main_unc	True	0.0	766	0	3.0	3.0	0.0	1	left	2.0	1.0	1.0	0	-0.0210875818133	blockFiles/set_18/main_unc/leftBlue\GB_LB_4.xlsx
340	main_unc	True	1.0	766	0	3.0	3.0	n/a	0	None	n/a	0.0	n/a	0	-0.0368338585645	blockFiles/set_18/main_unc/leftBlue\GB_LB_4.xlsx
341	main_unc	True	0.0	766	0	3.0	3.0	0.0	0	left	2.0	0.0	0.0	1	0.0010459041595499998	blockFiles/set_18/main_unc/leftBlue\GB_LB_4.xlsx
342	main_unc	True	0.0	766	0	3.0	3.0	0.0	1	left	2.0	1.0	1.0	0	-0.0526941130869	blockFiles/set_18/main_unc/leftBlue\GB_LB_4.xlsx
343	main_unc	True	0.0	766	0	3.0	3.0	1.0	1	right	1.0	0.0	1.0	1	0.07155061423780001	blockFiles/set_18/main_unc/leftBlue\GB_LB_4.xlsx
344	main_unc	True	0.0	766	0	3.0	3.0	1.0	1	right	1.0	0.0	1.0	1	0.0628089253046	blockFiles/set_18/main_unc/leftBlue\GB_LB_4.xlsx
345	main_unc	True	0.0	766	0	3.0	3.0	1.0	1	right	1.0	1.0	1.0	1	0.0391771904379	blockFiles/set_18/main_unc/leftBlue\GB_LB_4.xlsx
346	main_unc	True	0.0	766	0	3.0	3.0	1.0	1	right	1.0	1.0	1.0	1	0.0391878503934	blockFiles/set_18/main_unc/leftBlue\GB_LB_4.xlsx
347	main_unc	True	0.0	766	0	3.0	3.0	1.0	0	right	1.0	1.0	0.0	0	-0.0136562209763	blockFiles/set_18/main_unc/leftBlue\GB_LB_4.xlsx
348	main_unc	True	0.0	766	0	3.0	3.0	0.0	1	left	2.0	1.0	1.0	0	-0.0485223834775	blockFiles/set_18/main_unc/leftBlue\GB_LB_4.xlsx
349	main_unc	True	0.0	766	0	3.0	3.0	1.0	1	right	1.0	1.0	1.0	1	0.0224878009968	blockFiles/set_18/main_unc/leftBlue\GB_LB_4.xlsx
350	main_unc	True	0.0	766	0	3.0	3.0	1.0	1	right	1.0	1.0	1.0	1	0.05323035368700001	blockFiles/set_18/main_unc/leftBlue\GB_LB_4.xlsx
351	main_unc	True	0.0	766	0	3.0	3.0	1.0	1	right	1.0	1.0	1.0	1	0.0616414139047	blockFiles/set_18/main_unc/leftBlue\GB_LB_4.xlsx
352	main_unc	True	0.0	766	0	3.0	3.0	0.0	1	left	2.0	1.0	1.0	0	-0.00608492344618	blockFiles/set_18/main_unc/leftBlue\GB_LB_4.xlsx
353	main_unc	True	0.0	766	0	3.0	3.0	1.0	1	right	1.0	1.0	1.0	1	0.0207806367427	blockFiles/set_18/main_unc/leftBlue\GB_LB_4.xlsx
354	main_unc	True	0.0	766	0	3.0	3.0	0.0	1	left	2.0	0.0	1.0	0	-0.0507105334476	blockFiles/set_18/main_unc/leftBlue\GB_LB_4.xlsx
355	main_unc	True	0.0	766	0	3.0	3.0	1.0	0	right	2.0	1.0	1.0	0	-0.0494819637015	blockFiles/set_18/main_unc/leftBlue\GB_LB_4.xlsx
356	main_unc	True	0.0	766	0	3.0	3.0	1.0	1	right	1.0	0.0	1.0	1	0.01589360971	blockFiles/set_18/main_unc/leftBlue\GB_LB_4.xlsx
357	main_unc	True	0.0	766	0	3.0	3.0	1.0	1	right	1.0	1.0	1.0	1	0.017128556054100002	blockFiles/set_18/main_unc/leftBlue\GB_LB_4.xlsx
358	main_unc	True	0.0	766	0	3.0	3.0	0.0	1	left	2.0	1.0	1.0	0	-0.0588005132973	blockFiles/set_18/main_unc/leftBlue\GB_LB_4.xlsx
359	main_unc	True	0.0	766	0	3.0	3.0	1.0	1	right	1.0	1.0	1.0	1	0.05576426938180001	blockFiles/set_18/main_unc/leftBlue\GB_LB_4.xlsx
360	main_unc	True	0.0	766	0	3.0	3.0	0.0	1	left	2.0	1.0	1.0	0	-0.0668626642227	blockFiles/set_18/main_unc/leftBlue\GB_LB_4.xlsx
361	main_unc	True	0.0	766	0	3.0	3.0	0.0	1	left	2.0	1.0	1.0	0	-0.0559433352016	blockFiles/set_18/main_unc/leftBlue\GB_LB_4.xlsx
362	main_unc	True	0.0	766	0	3.0	3.0	1.0	0	right	1.0	0.0	0.0	0	-0.0368338585645	blockFiles/set_18/main_unc/leftBlue\GB_LB_4.xlsx
363	main_unc	True	1.0	766	0	4.0	4.0	n/a	0	None	n/a	0.0	n/a	0	-0.0156764180586	blockFiles/set_18/main_unc/leftBlue\GB_LB_3.xlsx
364	main_unc	True	0.0	766	0	4.0	4.0	1.0	1	right	1.0	1.0	1.0	1	0.0473139680177	blockFiles/set_18/main_unc/leftBlue\GB_LB_3.xlsx
365	main_unc	True	0.0	766	0	4.0	4.0	1.0	1	right	1.0	0.0	1.0	1	0.0338700219244	blockFiles/set_18/main_unc/leftBlue\GB_LB_3.xlsx
366	main_unc	True	0.0	766	0	4.0	4.0	0.0	1	left	2.0	1.0	1.0	0	-0.0213183291629	blockFiles/set_18/main_unc/leftBlue\GB_LB_3.xlsx
367	main_unc	True	0.0	766	0	4.0	4.0	1.0	1	right	1.0	1.0	1.0	1	0.040402888488	blockFiles/set_18/main_unc/leftBlue\GB_LB_3.xlsx
368	main_unc	True	0.0	766	0	4.0	4.0	1.0	1	right	1.0	1.0	1.0	1	0.0615014993399	blockFiles/set_18/main_unc/leftBlue\GB_LB_3.xlsx
369	main_unc	True	0.0	766	0	4.0	4.0	0.0	1	left	2.0	0.0	1.0	0	-0.0300426002778	blockFiles/set_18/main_unc/leftBlue\GB_LB_3.xlsx
370	main_unc	True	0.0	766	0	4.0	4.0	0.0	1	left	2.0	1.0	1.0	0	-0.0157131733745	blockFiles/set_18/main_unc/leftBlue\GB_LB_3.xlsx
371	main_unc	True	0.0	766	0	4.0	4.0	0.0	1	left	2.0	1.0	1.0	0	-0.0420549825765	blockFiles/set_18/main_unc/leftBlue\GB_LB_3.xlsx
372	main_unc	True	0.0	766	0	4.0	4.0	0.0	0	left	2.0	0.0	0.0	1	0.0243818044476	blockFiles/set_18/main_unc/leftBlue\GB_LB_3.xlsx
373	main_unc	True	0.0	766	0	4.0	4.0	0.0	1	left	2.0	1.0	1.0	0	-0.053525794148399995	blockFiles/set_18/main_unc/leftBlue\GB_LB_3.xlsx
374	main_unc	True	0.0	766	0	4.0	4.0	0.0	1	left	2.0	1.0	1.0	0	-0.0197230861895	blockFiles/set_18/main_unc/leftBlue\GB_LB_3.xlsx
375	main_unc	True	0.0	766	0	4.0	4.0	1.0	1	right	1.0	1.0	1.0	1	0.0787346666306	blockFiles/set_18/main_unc/leftBlue\GB_LB_3.xlsx
376	main_unc	True	0.0	766	0	4.0	4.0	1.0	1	right	1.0	1.0	1.0	1	0.0604501092993	blockFiles/set_18/main_unc/leftBlue\GB_LB_3.xlsx
377	main_unc	True	0.0	766	0	4.0	4.0	1.0	1	right	1.0	0.0	1.0	1	0.040359913986199994	blockFiles/set_18/main_unc/leftBlue\GB_LB_3.xlsx
378	main_unc	True	1.0	766	0	4.0	4.0	n/a	0	None	n/a	0.0	n/a	0	-0.012729755807700001	blockFiles/set_18/main_unc/leftBlue\GB_LB_3.xlsx
379	main_unc	True	0.0	766	0	4.0	4.0	0.0	1	left	2.0	1.0	1.0	0	-0.04612531520430001	blockFiles/set_18/main_unc/leftBlue\GB_LB_3.xlsx
380	main_unc	True	0.0	766	0	4.0	4.0	0.0	1	left	2.0	0.0	1.0	0	-0.0683743850142	blockFiles/set_18/main_unc/leftBlue\GB_LB_3.xlsx
381	main_unc	True	1.0	766	0	4.0	4.0	n/a	0	None	n/a	0.0	n/a	0	-0.0202189066075	blockFiles/set_18/main_unc/leftBlue\GB_LB_3.xlsx
382	main_unc	True	0.0	766	0	4.0	4.0	1.0	1	right	1.0	0.0	1.0	1	0.07226131333039999	blockFiles/set_18/main_unc/leftBlue\GB_LB_3.xlsx
383	main_unc	True	0.0	766	0	4.0	4.0	1.0	1	right	1.0	0.0	1.0	1	0.023175900448099997	blockFiles/set_18/main_unc/leftBlue\GB_LB_3.xlsx
384	main_unc	True	0.0	766	0	4.0	4.0	1.0	1	right	1.0	1.0	1.0	1	0.079330894798	blockFiles/set_18/main_unc/leftBlue\GB_LB_3.xlsx
385	main_unc	True	0.0	766	0	4.0	4.0	0.0	1	left	1.0	0.0	0.0	0	-0.00206781603396	blockFiles/set_18/main_unc/leftBlue\GB_LB_3.xlsx
386	main_unc	True	0.0	766	0	4.0	4.0	1.0	0	right	1.0	0.0	0.0	0	-0.0152475691959	blockFiles/set_18/main_unc/leftBlue\GB_LB_3.xlsx
387	main_unc	True	1.0	766	0	4.0	4.0	n/a	0	None	n/a	0.0	n/a	1	0.0101839840226	blockFiles/set_18/main_unc/leftBlue\GB_LB_3.xlsx
388	main_unc	True	0.0	766	0	4.0	4.0	1.0	0	right	2.0	1.0	1.0	0	-0.0156764180586	blockFiles/set_18/main_unc/leftBlue\GB_LB_3.xlsx
389	main_unc	True	0.0	766	0	4.0	4.0	n/a	0	None	n/a	0.0	n/a	0	-0.012729755807700001	blockFiles/set_18/main_unc/leftBlue\GB_LB_3.xlsx
390	main_unc	True	0.0	766	0	4.0	4.0	1.0	0	right	1.0	0.0	0.0	0	-0.012729755807700001	blockFiles/set_18/main_unc/leftBlue\GB_LB_3.xlsx
391	main_unc	True	0.0	766	0	4.0	4.0	0.0	1	left	1.0	0.0	0.0	0	-0.0202189066075	blockFiles/set_18/main_unc/leftBlue\GB_LB_3.xlsx
392	main_unc	True	0.0	766	0	4.0	4.0	1.0	1	right	2.0	0.0	0.0	1	0.0101839840226	blockFiles/set_18/main_unc/leftBlue\GB_LB_3.xlsx
393	main_unc	True	1.0	766	0	5.0	5.0	n/a	0	None	n/a	0.0	n/a	1	0.0190573884174	blockFiles/set_18/main_unc/leftBlue\GB_LB_6.xlsx
394	main_unc	True	0.0	766	0	5.0	5.0	0.0	1	left	2.0	1.0	1.0	0	-0.020789527799900002	blockFiles/set_18/main_unc/leftBlue\GB_LB_6.xlsx
395	main_unc	True	0.0	766	0	5.0	5.0	0.0	1	left	2.0	1.0	1.0	0	-0.054747694730799996	blockFiles/set_18/main_unc/leftBlue\GB_LB_6.xlsx
396	main_unc	True	0.0	766	0	5.0	5.0	1.0	1	right	1.0	1.0	1.0	1	0.0336626635306	blockFiles/set_18/main_unc/leftBlue\GB_LB_6.xlsx
397	main_unc	True	0.0	766	0	5.0	5.0	1.0	1	right	1.0	0.0	1.0	1	0.0643096612394	blockFiles/set_18/main_unc/leftBlue\GB_LB_6.xlsx
398	main_unc	True	0.0	766	0	5.0	5.0	0.0	1	left	2.0	1.0	1.0	0	-0.0260649945587	blockFiles/set_18/main_unc/leftBlue\GB_LB_6.xlsx
399	main_unc	True	0.0	766	0	5.0	5.0	0.0	1	left	2.0	1.0	1.0	0	-0.0544817775115	blockFiles/set_18/main_unc/leftBlue\GB_LB_6.xlsx
400	main_unc	True	0.0	766	0	5.0	5.0	0.0	1	left	2.0	0.0	1.0	0	-0.0483454176784	blockFiles/set_18/main_unc/leftBlue\GB_LB_6.xlsx
401	main_unc	True	0.0	766	0	5.0	5.0	1.0	1	right	1.0	0.0	1.0	1	0.0487765370496	blockFiles/set_18/main_unc/leftBlue\GB_LB_6.xlsx
402	main_unc	True	0.0	766	0	5.0	5.0	0.0	1	left	2.0	1.0	1.0	0	-0.018956035561900002	blockFiles/set_18/main_unc/leftBlue\GB_LB_6.xlsx
403	main_unc	True	0.0	766	0	5.0	5.0	1.0	1	right	1.0	1.0	1.0	1	0.0763409442827	blockFiles/set_18/main_unc/leftBlue\GB_LB_6.xlsx
404	main_unc	True	0.0	766	0	5.0	5.0	0.0	0	left	1.0	1.0	1.0	1	0.0071600725501800005	blockFiles/set_18/main_unc/leftBlue\GB_LB_6.xlsx
405	main_unc	True	0.0	766	0	5.0	5.0	0.0	1	left	1.0	1.0	0.0	0	-0.07873557221139998	blockFiles/set_18/main_unc/leftBlue\GB_LB_6.xlsx
406	main_unc	True	0.0	766	0	5.0	5.0	0.0	1	left	2.0	1.0	1.0	0	-0.0298802235164	blockFiles/set_18/main_unc/leftBlue\GB_LB_6.xlsx
407	main_unc	True	0.0	766	0	5.0	5.0	1.0	1	right	1.0	1.0	1.0	1	0.0798031702451	blockFiles/set_18/main_unc/leftBlue\GB_LB_6.xlsx
408	main_unc	True	0.0	766	0	5.0	5.0	0.0	0	left	1.0	1.0	1.0	1	0.0239311495796	blockFiles/set_18/main_unc/leftBlue\GB_LB_6.xlsx
409	main_unc	True	0.0	766	0	5.0	5.0	1.0	1	right	1.0	1.0	1.0	1	0.0310678194277	blockFiles/set_18/main_unc/leftBlue\GB_LB_6.xlsx
410	main_unc	True	0.0	766	0	5.0	5.0	1.0	1	right	1.0	1.0	1.0	1	0.053982856757899995	blockFiles/set_18/main_unc/leftBlue\GB_LB_6.xlsx
411	main_unc	True	1.0	766	0	5.0	5.0	n/a	0	None	n/a	0.0	n/a	0	-0.022588619571199998	blockFiles/set_18/main_unc/leftBlue\GB_LB_6.xlsx
412	main_unc	True	0.0	766	0	5.0	5.0	1.0	0	right	2.0	1.0	1.0	0	-0.036211126018300004	blockFiles/set_18/main_unc/leftBlue\GB_LB_6.xlsx
413	main_unc	True	0.0	766	0	5.0	5.0	0.0	1	left	2.0	1.0	1.0	0	-0.053908640313900004	blockFiles/set_18/main_unc/leftBlue\GB_LB_6.xlsx
414	main_unc	True	0.0	766	0	5.0	5.0	0.0	0	left	2.0	0.0	0.0	1	0.014183097668000001	blockFiles/set_18/main_unc/leftBlue\GB_LB_6.xlsx
415	main_unc	True	0.0	766	0	5.0	5.0	0.0	0	left	1.0	1.0	1.0	1	0.024934761356599996	blockFiles/set_18/main_unc/leftBlue\GB_LB_6.xlsx
416	main_unc	True	0.0	766	0	5.0	5.0	1.0	1	right	1.0	1.0	1.0	1	0.0288618865423	blockFiles/set_18/main_unc/leftBlue\GB_LB_6.xlsx
417	main_unc	True	0.0	766	0	5.0	5.0	0.0	1	left	2.0	1.0	1.0	0	-0.04428782273080001	blockFiles/set_18/main_unc/leftBlue\GB_LB_6.xlsx
418	main_unc	True	0.0	766	0	5.0	5.0	1.0	1	right	1.0	1.0	1.0	1	0.0190573884174	blockFiles/set_18/main_unc/leftBlue\GB_LB_6.xlsx
419	main_unc	True	0.0	766	0	5.0	5.0	1.0	0	right	2.0	0.0	1.0	0	-0.022588619571199998	blockFiles/set_18/main_unc/leftBlue\GB_LB_6.xlsx
420	main_unc	True	0.0	766	0	6.0	6.0	0.0	1	left	1.0	1.0	1.0	0	-0.0600443429314	blockFiles/set_18/main_unc/rightBlue\GB_RB_1.xlsx
421	main_unc	True	1.0	766	0	6.0	6.0	n/a	0	None	n/a	0.0	n/a	0	-0.0335064874031	blockFiles/set_18/main_unc/rightBlue\GB_RB_1.xlsx
422	main_unc	True	0.0	766	0	6.0	6.0	0.0	1	left	1.0	1.0	1.0	0	-0.0725540598854	blockFiles/set_18/main_unc/rightBlue\GB_RB_1.xlsx
423	main_unc	True	0.0	766	0	6.0	6.0	0.0	1	left	2.0	0.0	0.0	0	-0.00302022635937	blockFiles/set_18/main_unc/rightBlue\GB_RB_1.xlsx
424	main_unc	True	0.0	766	0	6.0	6.0	1.0	1	right	2.0	1.0	1.0	1	0.0445582423359	blockFiles/set_18/main_unc/rightBlue\GB_RB_1.xlsx
425	main_unc	True	0.0	766	0	6.0	6.0	1.0	1	right	2.0	1.0	1.0	1	0.027256742958	blockFiles/set_18/main_unc/rightBlue\GB_RB_1.xlsx
426	main_unc	True	0.0	766	0	6.0	6.0	0.0	1	left	1.0	1.0	1.0	0	-0.0719697683118	blockFiles/set_18/main_unc/rightBlue\GB_RB_1.xlsx
427	main_unc	True	0.0	766	0	6.0	6.0	1.0	1	right	2.0	0.0	1.0	1	0.0340067568608	blockFiles/set_18/main_unc/rightBlue\GB_RB_1.xlsx
428	main_unc	True	0.0	766	0	6.0	6.0	1.0	1	right	2.0	1.0	1.0	1	0.067706558872	blockFiles/set_18/main_unc/rightBlue\GB_RB_1.xlsx
429	main_unc	True	0.0	766	0	6.0	6.0	0.0	0	left	1.0	0.0	0.0	1	0.00419776190072	blockFiles/set_18/main_unc/rightBlue\GB_RB_1.xlsx
430	main_unc	True	0.0	766	0	6.0	6.0	1.0	1	right	2.0	0.0	1.0	1	0.046290553621899995	blockFiles/set_18/main_unc/rightBlue\GB_RB_1.xlsx
431	main_unc	True	0.0	766	0	6.0	6.0	1.0	1	right	2.0	1.0	1.0	1	0.0291847652756	blockFiles/set_18/main_unc/rightBlue\GB_RB_1.xlsx
432	main_unc	True	0.0	766	0	6.0	6.0	1.0	1	right	2.0	1.0	1.0	1	0.04271435163919999	blockFiles/set_18/main_unc/rightBlue\GB_RB_1.xlsx
433	main_unc	True	0.0	766	0	6.0	6.0	1.0	1	right	2.0	1.0	1.0	1	0.058655095752300004	blockFiles/set_18/main_unc/rightBlue\GB_RB_1.xlsx
434	main_unc	True	0.0	766	0	6.0	6.0	0.0	1	left	1.0	1.0	1.0	0	-0.040292896032300005	blockFiles/set_18/main_unc/rightBlue\GB_RB_1.xlsx
435	main_unc	True	0.0	766	0	6.0	6.0	0.0	1	left	1.0	0.0	1.0	0	-0.029097916576999998	blockFiles/set_18/main_unc/rightBlue\GB_RB_1.xlsx
436	main_unc	True	0.0	766	0	6.0	6.0	1.0	1	right	2.0	1.0	1.0	1	0.0561802324466	blockFiles/set_18/main_unc/rightBlue\GB_RB_1.xlsx
437	main_unc	True	0.0	766	0	6.0	6.0	0.0	1	left	1.0	1.0	1.0	0	-0.0338167408109	blockFiles/set_18/main_unc/rightBlue\GB_RB_1.xlsx
438	main_unc	True	0.0	766	0	6.0	6.0	0.0	1	left	1.0	1.0	1.0	0	-0.0519641293585	blockFiles/set_18/main_unc/rightBlue\GB_RB_1.xlsx
439	main_unc	True	1.0	766	0	6.0	6.0	n/a	0	None	n/a	0.0	n/a	0	-0.0466865698434	blockFiles/set_18/main_unc/rightBlue\GB_RB_1.xlsx
440	main_unc	True	0.0	766	0	6.0	6.0	0.0	1	left	1.0	1.0	1.0	0	-0.059420775007499996	blockFiles/set_18/main_unc/rightBlue\GB_RB_1.xlsx
441	main_unc	True	0.0	766	0	6.0	6.0	0.0	0	left	2.0	1.0	1.0	1	0.0319959434122	blockFiles/set_18/main_unc/rightBlue\GB_RB_1.xlsx
442	main_unc	True	0.0	766	0	6.0	6.0	0.0	0	left	1.0	1.0	0.0	1	0.0018404729291800002	blockFiles/set_18/main_unc/rightBlue\GB_RB_1.xlsx
443	main_unc	True	1.0	766	0	6.0	6.0	1.0	1	right	n/a	0.0	n/a	1	0.061042813491099995	blockFiles/set_18/main_unc/rightBlue\GB_RB_1.xlsx
444	main_unc	True	0.0	766	0	6.0	6.0	0.0	1	left	2.0	0.0	0.0	0	-0.0709290722199	blockFiles/set_18/main_unc/rightBlue\GB_RB_1.xlsx
445	main_unc	True	0.0	766	0	6.0	6.0	0.0	1	left	1.0	1.0	1.0	0	-0.0335064874031	blockFiles/set_18/main_unc/rightBlue\GB_RB_1.xlsx
446	main_unc	True	0.0	766	0	6.0	6.0	n/a	0	None	n/a	0.0	n/a	0	-0.0466865698434	blockFiles/set_18/main_unc/rightBlue\GB_RB_1.xlsx
447	main_unc	True	0.0	766	0	6.0	6.0	0.0	1	left	1.0	1.0	1.0	0	-0.0466865698434	blockFiles/set_18/main_unc/rightBlue\GB_RB_1.xlsx
448	main_unc	True	0.0	766	0	6.0	6.0	1.0	1	right	2.0	1.0	1.0	1	0.061042813491099995	blockFiles/set_18/main_unc/rightBlue\GB_RB_1.xlsx
449	main_unc	True	0.0	766	0	7.0	7.0	1.0	1	right	2.0	1.0	1.0	1	0.0476097356901	blockFiles/set_18/main_unc/rightBlue\GB_RB_3.xlsx
450	main_unc	True	0.0	766	0	7.0	7.0	0.0	1	left	1.0	0.0	1.0	0	-0.07985891798510002	blockFiles/set_18/main_unc/rightBlue\GB_RB_3.xlsx
451	main_unc	True	0.0	766	0	7.0	7.0	1.0	1	right	2.0	1.0	1.0	1	0.006316249221560001	blockFiles/set_18/main_unc/rightBlue\GB_RB_3.xlsx
452	main_unc	True	0.0	766	0	7.0	7.0	1.0	0	right	1.0	1.0	1.0	0	-0.030126586239800003	blockFiles/set_18/main_unc/rightBlue\GB_RB_3.xlsx
453	main_unc	True	0.0	766	0	7.0	7.0	1.0	1	right	2.0	1.0	1.0	1	0.044877255000200005	blockFiles/set_18/main_unc/rightBlue\GB_RB_3.xlsx
454	main_unc	True	0.0	766	0	7.0	7.0	1.0	1	right	2.0	0.0	1.0	1	0.0314800456353	blockFiles/set_18/main_unc/rightBlue\GB_RB_3.xlsx
455	main_unc	True	0.0	766	0	7.0	7.0	0.0	1	left	1.0	0.0	1.0	0	-0.04067252326759999	blockFiles/set_18/main_unc/rightBlue\GB_RB_3.xlsx
456	main_unc	True	0.0	766	0	7.0	7.0	1.0	1	right	2.0	1.0	1.0	1	0.0109697820619	blockFiles/set_18/main_unc/rightBlue\GB_RB_3.xlsx
457	main_unc	True	1.0	766	0	7.0	7.0	1.0	1	right	n/a	0.0	n/a	1	0.068578707166	blockFiles/set_18/main_unc/rightBlue\GB_RB_3.xlsx
458	main_unc	True	0.0	766	0	7.0	7.0	0.0	1	left	1.0	1.0	1.0	0	-0.00951030693948	blockFiles/set_18/main_unc/rightBlue\GB_RB_3.xlsx
459	main_unc	True	0.0	766	0	7.0	7.0	0.0	1	left	1.0	0.0	1.0	0	-0.06500125437969999	blockFiles/set_18/main_unc/rightBlue\GB_RB_3.xlsx
460	main_unc	True	0.0	766	0	7.0	7.0	0.0	0	left	1.0	0.0	0.0	1	0.0494335287251	blockFiles/set_18/main_unc/rightBlue\GB_RB_3.xlsx
461	main_unc	True	0.0	766	0	7.0	7.0	1.0	0	right	2.0	0.0	0.0	0	-0.0068159712851000006	blockFiles/set_18/main_unc/rightBlue\GB_RB_3.xlsx
462	main_unc	True	0.0	766	0	7.0	7.0	1.0	1	right	2.0	1.0	1.0	1	0.0167485943437	blockFiles/set_18/main_unc/rightBlue\GB_RB_3.xlsx
463	main_unc	True	0.0	766	0	7.0	7.0	0.0	1	left	1.0	0.0	1.0	0	-0.0219467224739	blockFiles/set_18/main_unc/rightBlue\GB_RB_3.xlsx
464	main_unc	True	0.0	766	0	7.0	7.0	1.0	1	right	2.0	1.0	1.0	1	0.0578644127958	blockFiles/set_18/main_unc/rightBlue\GB_RB_3.xlsx
465	main_unc	True	0.0	766	0	7.0	7.0	1.0	1	right	2.0	1.0	1.0	1	0.0369244318828	blockFiles/set_18/main_unc/rightBlue\GB_RB_3.xlsx
466	main_unc	True	0.0	766	0	7.0	7.0	0.0	1	left	1.0	1.0	1.0	0	-0.0608688090928	blockFiles/set_18/main_unc/rightBlue\GB_RB_3.xlsx
467	main_unc	True	0.0	766	0	7.0	7.0	0.0	1	left	1.0	1.0	1.0	0	-0.0274804611318	blockFiles/set_18/main_unc/rightBlue\GB_RB_3.xlsx
468	main_unc	True	0.0	766	0	7.0	7.0	1.0	0	right	2.0	0.0	0.0	0	-0.0168076423369	blockFiles/set_18/main_unc/rightBlue\GB_RB_3.xlsx
469	main_unc	True	0.0	766	0	7.0	7.0	0.0	1	left	1.0	1.0	1.0	0	-0.07519968669860001	blockFiles/set_18/main_unc/rightBlue\GB_RB_3.xlsx
470	main_unc	True	0.0	766	0	7.0	7.0	0.0	1	left	1.0	1.0	1.0	0	-0.0643847338483	blockFiles/set_18/main_unc/rightBlue\GB_RB_3.xlsx
471	main_unc	True	0.0	766	0	7.0	7.0	1.0	1	right	2.0	1.0	1.0	1	0.0390406103805	blockFiles/set_18/main_unc/rightBlue\GB_RB_3.xlsx
472	main_unc	True	1.0	766	0	7.0	7.0	n/a	0	None	n/a	0.0	n/a	1	0.0115142734721	blockFiles/set_18/main_unc/rightBlue\GB_RB_3.xlsx
473	main_unc	True	0.0	766	0	7.0	7.0	1.0	0	right	2.0	1.0	0.0	0	-0.0005773250386119999	blockFiles/set_18/main_unc/rightBlue\GB_RB_3.xlsx
474	main_unc	True	0.0	766	0	7.0	7.0	1.0	1	right	2.0	1.0	1.0	1	0.068578707166	blockFiles/set_18/main_unc/rightBlue\GB_RB_3.xlsx
475	main_unc	True	0.0	766	0	7.0	7.0	1.0	1	right	2.0	1.0	1.0	1	0.0115142734721	blockFiles/set_18/main_unc/rightBlue\GB_RB_3.xlsx
476	main_unc	True	0.0	766	0	8.0	8.0	1.0	1	right	2.0	1.0	1.0	1	0.043213528692699996	blockFiles/set_18/main_unc/rightBlue\GB_RB_2.xlsx
477	main_unc	True	0.0	766	0	8.0	8.0	1.0	1	right	2.0	0.0	1.0	1	0.0735896927305	blockFiles/set_18/main_unc/rightBlue\GB_RB_2.xlsx
478	main_unc	True	0.0	766	0	8.0	8.0	1.0	1	right	2.0	1.0	1.0	1	0.0468580690585	blockFiles/set_18/main_unc/rightBlue\GB_RB_2.xlsx
479	main_unc	True	0.0	766	0	8.0	8.0	0.0	1	left	1.0	1.0	1.0	0	-0.05140847759319999	blockFiles/set_18/main_unc/rightBlue\GB_RB_2.xlsx
480	main_unc	True	0.0	766	0	8.0	8.0	1.0	1	right	2.0	1.0	1.0	1	0.0175818790123	blockFiles/set_18/main_unc/rightBlue\GB_RB_2.xlsx
481	main_unc	True	0.0	766	0	8.0	8.0	1.0	1	right	2.0	1.0	1.0	1	0.032627593334800004	blockFiles/set_18/main_unc/rightBlue\GB_RB_2.xlsx
482	main_unc	True	0.0	766	0	8.0	8.0	0.0	1	left	2.0	0.0	0.0	0	-0.0018729106150599999	blockFiles/set_18/main_unc/rightBlue\GB_RB_2.xlsx
483	main_unc	True	0.0	766	0	8.0	8.0	0.0	1	left	1.0	1.0	1.0	0	-0.0458427801542	blockFiles/set_18/main_unc/rightBlue\GB_RB_2.xlsx
484	main_unc	True	0.0	766	0	8.0	8.0	0.0	1	left	1.0	1.0	1.0	0	-0.0511236918531	blockFiles/set_18/main_unc/rightBlue\GB_RB_2.xlsx
485	main_unc	True	0.0	766	0	8.0	8.0	1.0	0	right	1.0	1.0	1.0	0	-0.026326888855499997	blockFiles/set_18/main_unc/rightBlue\GB_RB_2.xlsx
486	main_unc	True	0.0	766	0	8.0	8.0	1.0	1	right	2.0	0.0	1.0	1	0.0788682715967	blockFiles/set_18/main_unc/rightBlue\GB_RB_2.xlsx
487	main_unc	True	0.0	766	0	8.0	8.0	0.0	0	left	1.0	0.0	0.0	1	0.0024402093328499998	blockFiles/set_18/main_unc/rightBlue\GB_RB_2.xlsx
488	main_unc	True	0.0	766	0	8.0	8.0	0.0	1	left	1.0	1.0	1.0	0	-0.0625756869651	blockFiles/set_18/main_unc/rightBlue\GB_RB_2.xlsx
489	main_unc	True	0.0	766	0	8.0	8.0	0.0	1	left	1.0	1.0	1.0	0	-0.050797538422	blockFiles/set_18/main_unc/rightBlue\GB_RB_2.xlsx
490	main_unc	True	0.0	766	0	8.0	8.0	0.0	1	left	1.0	1.0	1.0	0	-0.0457752662152	blockFiles/set_18/main_unc/rightBlue\GB_RB_2.xlsx
491	main_unc	True	0.0	766	0	8.0	8.0	0.0	1	left	1.0	1.0	1.0	0	-0.0510344628431	blockFiles/set_18/main_unc/rightBlue\GB_RB_2.xlsx
492	main_unc	True	0.0	766	0	8.0	8.0	1.0	1	right	2.0	1.0	1.0	1	0.0224679174647	blockFiles/set_18/main_unc/rightBlue\GB_RB_2.xlsx
493	main_unc	True	0.0	766	0	8.0	8.0	1.0	1	right	2.0	0.0	1.0	1	0.047141788564599996	blockFiles/set_18/main_unc/rightBlue\GB_RB_2.xlsx
494	main_unc	True	0.0	766	0	8.0	8.0	1.0	1	right	2.0	1.0	1.0	1	0.020515235140900003	blockFiles/set_18/main_unc/rightBlue\GB_RB_2.xlsx
495	main_unc	True	0.0	766	0	8.0	8.0	1.0	1	right	2.0	1.0	1.0	1	0.0132121983916	blockFiles/set_18/main_unc/rightBlue\GB_RB_2.xlsx
496	main_unc	True	0.0	766	0	8.0	8.0	1.0	1	right	2.0	0.0	1.0	1	0.021015893314	blockFiles/set_18/main_unc/rightBlue\GB_RB_2.xlsx
497	main_unc	True	0.0	766	0	8.0	8.0	1.0	1	right	2.0	0.0	1.0	1	0.0653457447886	blockFiles/set_18/main_unc/rightBlue\GB_RB_2.xlsx
498	main_unc	True	0.0	766	0	8.0	8.0	0.0	1	left	1.0	1.0	1.0	0	-0.00538084723055	blockFiles/set_18/main_unc/rightBlue\GB_RB_2.xlsx
499	main_unc	True	0.0	766	0	8.0	8.0	0.0	1	left	1.0	1.0	1.0	0	-0.058184692971400005	blockFiles/set_18/main_unc/rightBlue\GB_RB_2.xlsx
500	main_unc	True	0.0	766	0	8.0	8.0	0.0	1	left	1.0	1.0	1.0	0	-0.046527060885	blockFiles/set_18/main_unc/rightBlue\GB_RB_2.xlsx
501	main_unc	True	0.0	766	0	9.0	9.0	0.0	1	left	1.0	0.0	0.0	0	-0.000780484378338	blockFiles/set_18/main_unc/leftBlue\GB_LB_5.xlsx
502	main_unc	True	0.0	766	0	9.0	9.0	0.0	1	left	2.0	0.0	1.0	0	-0.0442528352514	blockFiles/set_18/main_unc/leftBlue\GB_LB_5.xlsx
503	main_unc	True	0.0	766	0	9.0	9.0	1.0	1	right	2.0	0.0	0.0	1	0.0490971990488	blockFiles/set_18/main_unc/leftBlue\GB_LB_5.xlsx
504	main_unc	True	0.0	766	0	9.0	9.0	1.0	1	right	1.0	1.0	1.0	1	0.0344339670427	blockFiles/set_18/main_unc/leftBlue\GB_LB_5.xlsx
505	main_unc	True	1.0	766	0	9.0	9.0	1.0	1	right	n/a	0.0	n/a	1	0.0158102520183	blockFiles/set_18/main_unc/leftBlue\GB_LB_5.xlsx
506	main_unc	True	0.0	766	0	9.0	9.0	0.0	1	left	2.0	1.0	1.0	0	-0.0757937324978	blockFiles/set_18/main_unc/leftBlue\GB_LB_5.xlsx
507	main_unc	True	0.0	766	0	9.0	9.0	1.0	1	right	1.0	1.0	1.0	1	0.028212076444200002	blockFiles/set_18/main_unc/leftBlue\GB_LB_5.xlsx
508	main_unc	True	0.0	766	0	9.0	9.0	1.0	1	right	1.0	1.0	1.0	1	0.017298330776400004	blockFiles/set_18/main_unc/leftBlue\GB_LB_5.xlsx
509	main_unc	True	0.0	766	0	9.0	9.0	1.0	1	right	1.0	1.0	1.0	1	0.0667329045944	blockFiles/set_18/main_unc/leftBlue\GB_LB_5.xlsx
510	main_unc	True	0.0	766	0	9.0	9.0	1.0	1	right	1.0	1.0	1.0	1	0.048857150729700004	blockFiles/set_18/main_unc/leftBlue\GB_LB_5.xlsx
511	main_unc	True	0.0	766	0	9.0	9.0	0.0	1	left	2.0	1.0	1.0	0	-0.024031498618400003	blockFiles/set_18/main_unc/leftBlue\GB_LB_5.xlsx
512	main_unc	True	0.0	766	0	9.0	9.0	1.0	1	right	1.0	1.0	1.0	1	0.0708716898412	blockFiles/set_18/main_unc/leftBlue\GB_LB_5.xlsx
513	main_unc	True	0.0	766	0	9.0	9.0	0.0	1	left	2.0	0.0	1.0	0	-0.0452240014635	blockFiles/set_18/main_unc/leftBlue\GB_LB_5.xlsx
514	main_unc	True	0.0	766	0	9.0	9.0	1.0	1	right	1.0	1.0	1.0	1	0.0142973212898	blockFiles/set_18/main_unc/leftBlue\GB_LB_5.xlsx
515	main_unc	True	0.0	766	0	9.0	9.0	0.0	1	left	1.0	0.0	0.0	0	-0.0104794540629	blockFiles/set_18/main_unc/leftBlue\GB_LB_5.xlsx
516	main_unc	True	0.0	766	0	9.0	9.0	0.0	1	left	2.0	1.0	1.0	0	-0.0666377021745	blockFiles/set_18/main_unc/leftBlue\GB_LB_5.xlsx
517	main_unc	True	0.0	766	0	9.0	9.0	1.0	1	right	1.0	1.0	1.0	1	0.0321847071312	blockFiles/set_18/main_unc/leftBlue\GB_LB_5.xlsx
518	main_unc	True	0.0	766	0	9.0	9.0	0.0	1	left	2.0	1.0	1.0	0	-0.0287793780118	blockFiles/set_18/main_unc/leftBlue\GB_LB_5.xlsx
519	main_unc	True	0.0	766	0	9.0	9.0	1.0	1	right	1.0	0.0	1.0	1	0.021709579713599998	blockFiles/set_18/main_unc/leftBlue\GB_LB_5.xlsx
520	main_unc	True	0.0	766	0	9.0	9.0	0.0	1	left	2.0	1.0	1.0	0	-0.0582238821499	blockFiles/set_18/main_unc/leftBlue\GB_LB_5.xlsx
521	main_unc	True	0.0	766	0	9.0	9.0	0.0	1	left	2.0	1.0	1.0	0	-0.0461488412134	blockFiles/set_18/main_unc/leftBlue\GB_LB_5.xlsx
522	main_unc	True	0.0	766	0	9.0	9.0	0.0	1	left	2.0	1.0	1.0	0	-0.0717395749688	blockFiles/set_18/main_unc/leftBlue\GB_LB_5.xlsx
523	main_unc	True	0.0	766	0	9.0	9.0	1.0	1	right	1.0	1.0	1.0	1	0.0090673353523	blockFiles/set_18/main_unc/leftBlue\GB_LB_5.xlsx
524	main_unc	True	0.0	766	0	9.0	9.0	1.0	1	right	1.0	1.0	1.0	1	0.0510959859751	blockFiles/set_18/main_unc/leftBlue\GB_LB_5.xlsx
525	main_unc	True	0.0	766	0	9.0	9.0	0.0	1	left	2.0	1.0	1.0	0	-0.0496508143283	blockFiles/set_18/main_unc/leftBlue\GB_LB_5.xlsx
526	main_unc	True	0.0	766	0	9.0	9.0	1.0	1	right	1.0	0.0	1.0	1	0.0158102520183	blockFiles/set_18/main_unc/leftBlue\GB_LB_5.xlsx
527	main_unc	True	1.0	766	0	10.0	10.0	n/a	0	None	n/a	0.0	n/a	1	0.047096072044199994	blockFiles/set_18/main_unc/rightBlue\GB_RB_4.xlsx
528	main_unc	True	0.0	766	0	10.0	10.0	1.0	1	right	1.0	1.0	0.0	1	0.00314337655902	blockFiles/set_18/main_unc/rightBlue\GB_RB_4.xlsx
529	main_unc	True	0.0	766	0	10.0	10.0	0.0	1	left	1.0	1.0	1.0	0	-0.0627607333846	blockFiles/set_18/main_unc/rightBlue\GB_RB_4.xlsx
530	main_unc	True	0.0	766	0	10.0	10.0	0.0	1	left	1.0	1.0	1.0	0	-0.0192471914366	blockFiles/set_18/main_unc/rightBlue\GB_RB_4.xlsx
531	main_unc	True	0.0	766	0	10.0	10.0	1.0	1	right	2.0	1.0	1.0	1	0.00978624777868	blockFiles/set_18/main_unc/rightBlue\GB_RB_4.xlsx
532	main_unc	True	0.0	766	0	10.0	10.0	1.0	1	right	2.0	0.0	1.0	1	0.0563458610326	blockFiles/set_18/main_unc/rightBlue\GB_RB_4.xlsx
533	main_unc	True	0.0	766	0	10.0	10.0	1.0	1	right	2.0	0.0	1.0	1	0.011663769651200001	blockFiles/set_18/main_unc/rightBlue\GB_RB_4.xlsx
534	main_unc	True	0.0	766	0	10.0	10.0	0.0	1	left	1.0	1.0	1.0	0	-0.0522006013244	blockFiles/set_18/main_unc/rightBlue\GB_RB_4.xlsx
535	main_unc	True	0.0	766	0	10.0	10.0	0.0	1	left	1.0	1.0	1.0	0	-0.062867760323	blockFiles/set_18/main_unc/rightBlue\GB_RB_4.xlsx
536	main_unc	True	1.0	766	0	10.0	10.0	n/a	0	None	n/a	0.0	n/a	1	0.0512908196822	blockFiles/set_18/main_unc/rightBlue\GB_RB_4.xlsx
537	main_unc	True	1.0	766	0	10.0	10.0	0.0	1	left	n/a	0.0	n/a	0	-0.040483088865900005	blockFiles/set_18/main_unc/rightBlue\GB_RB_4.xlsx
538	main_unc	True	0.0	766	0	10.0	10.0	1.0	1	right	2.0	1.0	1.0	1	0.039114320948699995	blockFiles/set_18/main_unc/rightBlue\GB_RB_4.xlsx
539	main_unc	True	0.0	766	0	10.0	10.0	1.0	1	right	2.0	1.0	1.0	1	0.07056017488239999	blockFiles/set_18/main_unc/rightBlue\GB_RB_4.xlsx
540	main_unc	True	0.0	766	0	10.0	10.0	1.0	1	right	2.0	1.0	1.0	1	0.0048032001592200006	blockFiles/set_18/main_unc/rightBlue\GB_RB_4.xlsx
541	main_unc	True	1.0	766	0	10.0	10.0	n/a	0	None	n/a	0.0	n/a	1	0.011742900572699999	blockFiles/set_18/main_unc/rightBlue\GB_RB_4.xlsx
542	main_unc	True	0.0	766	0	10.0	10.0	1.0	1	right	2.0	1.0	1.0	1	0.0204973545484	blockFiles/set_18/main_unc/rightBlue\GB_RB_4.xlsx
543	main_unc	True	0.0	766	0	10.0	10.0	0.0	1	left	1.0	0.0	1.0	0	-0.050131449457300005	blockFiles/set_18/main_unc/rightBlue\GB_RB_4.xlsx
544	main_unc	True	0.0	766	0	10.0	10.0	1.0	0	right	1.0	1.0	1.0	0	-0.029204467535	blockFiles/set_18/main_unc/rightBlue\GB_RB_4.xlsx
545	main_unc	True	0.0	766	0	10.0	10.0	1.0	1	right	2.0	1.0	1.0	1	0.042890281602699996	blockFiles/set_18/main_unc/rightBlue\GB_RB_4.xlsx
546	main_unc	True	0.0	766	0	10.0	10.0	0.0	1	left	1.0	1.0	1.0	0	-0.0776466538012	blockFiles/set_18/main_unc/rightBlue\GB_RB_4.xlsx
547	main_unc	True	0.0	766	0	10.0	10.0	0.0	1	left	1.0	1.0	1.0	0	-0.023751502670299997	blockFiles/set_18/main_unc/rightBlue\GB_RB_4.xlsx
548	main_unc	True	0.0	766	0	10.0	10.0	1.0	0	right	1.0	1.0	1.0	0	-0.0275291514024	blockFiles/set_18/main_unc/rightBlue\GB_RB_4.xlsx
549	main_unc	True	0.0	766	0	10.0	10.0	0.0	1	left	1.0	0.0	1.0	0	-0.042664825916300005	blockFiles/set_18/main_unc/rightBlue\GB_RB_4.xlsx
550	main_unc	True	0.0	766	0	10.0	10.0	1.0	1	right	2.0	1.0	1.0	1	0.057154785022099995	blockFiles/set_18/main_unc/rightBlue\GB_RB_4.xlsx
551	main_unc	True	0.0	766	0	10.0	10.0	1.0	1	right	2.0	1.0	1.0	1	0.00933823710307	blockFiles/set_18/main_unc/rightBlue\GB_RB_4.xlsx
552	main_unc	True	0.0	766	0	10.0	10.0	1.0	1	right	2.0	1.0	1.0	1	0.047096072044199994	blockFiles/set_18/main_unc/rightBlue\GB_RB_4.xlsx
553	main_unc	True	0.0	766	0	10.0	10.0	1.0	1	right	2.0	1.0	1.0	1	0.0512908196822	blockFiles/set_18/main_unc/rightBlue\GB_RB_4.xlsx
554	main_unc	True	0.0	766	0	10.0	10.0	n/a	0	None	n/a	0.0	n/a	0	-0.040483088865900005	blockFiles/set_18/main_unc/rightBlue\GB_RB_4.xlsx
555	main_unc	True	0.0	766	0	10.0	10.0	0.0	1	left	2.0	0.0	0.0	0	-0.040483088865900005	blockFiles/set_18/main_unc/rightBlue\GB_RB_4.xlsx
556	main_unc	True	0.0	766	0	10.0	10.0	1.0	1	right	2.0	1.0	1.0	1	0.011742900572699999	blockFiles/set_18/main_unc/rightBlue\GB_RB_4.xlsx
557	main_unc	True	0.0	766	0	11.0	11.0	1.0	1	right	2.0	1.0	1.0	1	0.0359375875816	blockFiles/set_18/main_unc/rightBlue\GB_RB_6.xlsx
558	main_unc	True	1.0	766	0	11.0	11.0	n/a	0	None	n/a	0.0	n/a	1	0.027722065113499998	blockFiles/set_18/main_unc/rightBlue\GB_RB_6.xlsx
559	main_unc	True	0.0	766	0	11.0	11.0	1.0	1	right	2.0	0.0	1.0	1	0.0787695868127	blockFiles/set_18/main_unc/rightBlue\GB_RB_6.xlsx
560	main_unc	True	0.0	766	0	11.0	11.0	1.0	0	right	1.0	1.0	1.0	0	-0.023404195457700002	blockFiles/set_18/main_unc/rightBlue\GB_RB_6.xlsx
561	main_unc	True	0.0	766	0	11.0	11.0	0.0	1	left	1.0	1.0	1.0	0	-0.0395267608576	blockFiles/set_18/main_unc/rightBlue\GB_RB_6.xlsx
562	main_unc	True	1.0	766	0	11.0	11.0	n/a	0	None	n/a	0.0	n/a	0	-0.000422292202711	blockFiles/set_18/main_unc/rightBlue\GB_RB_6.xlsx
563	main_unc	True	1.0	766	0	11.0	11.0	1.0	1	right	n/a	0.0	n/a	1	0.04403276748959999	blockFiles/set_18/main_unc/rightBlue\GB_RB_6.xlsx
564	main_unc	True	0.0	766	0	11.0	11.0	0.0	1	left	1.0	1.0	1.0	0	-0.0353649706952	blockFiles/set_18/main_unc/rightBlue\GB_RB_6.xlsx
565	main_unc	True	0.0	766	0	11.0	11.0	0.0	1	left	1.0	1.0	1.0	0	-0.051458359528299996	blockFiles/set_18/main_unc/rightBlue\GB_RB_6.xlsx
566	main_unc	True	0.0	766	0	11.0	11.0	0.0	1	left	1.0	1.0	1.0	0	-0.04766375884409999	blockFiles/set_18/main_unc/rightBlue\GB_RB_6.xlsx
567	main_unc	True	0.0	766	0	11.0	11.0	0.0	1	left	1.0	1.0	1.0	0	-0.0014445683918900003	blockFiles/set_18/main_unc/rightBlue\GB_RB_6.xlsx
568	main_unc	True	0.0	766	0	11.0	11.0	1.0	1	right	2.0	0.0	1.0	1	0.0656191563793	blockFiles/set_18/main_unc/rightBlue\GB_RB_6.xlsx
569	main_unc	True	0.0	766	0	11.0	11.0	0.0	1	left	1.0	1.0	1.0	0	-0.0559936226346	blockFiles/set_18/main_unc/rightBlue\GB_RB_6.xlsx
570	main_unc	True	0.0	766	0	11.0	11.0	1.0	1	right	2.0	1.0	1.0	1	0.00612290283665	blockFiles/set_18/main_unc/rightBlue\GB_RB_6.xlsx
571	main_unc	True	0.0	766	0	11.0	11.0	0.0	1	left	1.0	1.0	1.0	0	-0.0205436163209	blockFiles/set_18/main_unc/rightBlue\GB_RB_6.xlsx
572	main_unc	True	0.0	766	0	11.0	11.0	0.0	1	left	1.0	1.0	1.0	0	-0.0509483386576	blockFiles/set_18/main_unc/rightBlue\GB_RB_6.xlsx
573	main_unc	True	0.0	766	0	11.0	11.0	1.0	1	right	2.0	1.0	1.0	1	0.0298336068727	blockFiles/set_18/main_unc/rightBlue\GB_RB_6.xlsx
574	main_unc	True	0.0	766	0	11.0	11.0	1.0	1	right	2.0	1.0	1.0	1	0.0470440119505	blockFiles/set_18/main_unc/rightBlue\GB_RB_6.xlsx
575	main_unc	True	0.0	766	0	11.0	11.0	1.0	1	right	2.0	0.0	1.0	1	0.0593723068386	blockFiles/set_18/main_unc/rightBlue\GB_RB_6.xlsx
576	main_unc	True	0.0	766	0	11.0	11.0	1.0	1	right	2.0	1.0	1.0	1	0.0170022743568	blockFiles/set_18/main_unc/rightBlue\GB_RB_6.xlsx
577	main_unc	True	0.0	766	0	11.0	11.0	1.0	1	right	2.0	1.0	1.0	1	0.07063938833769999	blockFiles/set_18/main_unc/rightBlue\GB_RB_6.xlsx
578	main_unc	True	0.0	766	0	11.0	11.0	1.0	1	right	2.0	1.0	1.0	1	0.0227991437353	blockFiles/set_18/main_unc/rightBlue\GB_RB_6.xlsx
579	main_unc	True	0.0	766	0	11.0	11.0	0.0	1	left	1.0	1.0	1.0	0	-0.0208337097801	blockFiles/set_18/main_unc/rightBlue\GB_RB_6.xlsx
580	main_unc	True	0.0	766	0	11.0	11.0	1.0	1	right	2.0	1.0	1.0	1	0.0687396189198	blockFiles/set_18/main_unc/rightBlue\GB_RB_6.xlsx
581	main_unc	True	0.0	766	0	11.0	11.0	0.0	1	left	1.0	0.0	1.0	0	-0.0237949695997	blockFiles/set_18/main_unc/rightBlue\GB_RB_6.xlsx
582	main_unc	True	0.0	766	0	11.0	11.0	1.0	1	right	2.0	1.0	1.0	1	0.027722065113499998	blockFiles/set_18/main_unc/rightBlue\GB_RB_6.xlsx
583	main_unc	True	0.0	766	0	11.0	11.0	1.0	0	right	2.0	0.0	0.0	0	-0.000422292202711	blockFiles/set_18/main_unc/rightBlue\GB_RB_6.xlsx
584	main_unc	True	0.0	766	0	11.0	11.0	1.0	1	right	n/a	0.0	n/a	1	0.04403276748959999	blockFiles/set_18/main_unc/rightBlue\GB_RB_6.xlsx
585	main_unc	True	0.0	766	0	11.0	11.0	1.0	1	right	1.0	0.0	0.0	1	0.04403276748959999	blockFiles/set_18/main_unc/rightBlue\GB_RB_6.xlsx
