	trial_type	complete	missIndex	participant	id	blockNumber	b_t	d_t	decision1.corr	decision1.keys	a_t	r_t	decision2.corr	s_t	u_t	block_file
0	main_safe	True	0.0	950	0	0.0	0.0	0.0	1	left	1.0	1.0	1.0	0	-0.08	blockFiles/set_15/main_safe/rightBlue\GB_RB_2.xlsx
1	main_safe	True	0.0	950	0	0.0	0.0	1.0	1	right	2.0	1.0	1.0	1	0.08	blockFiles/set_15/main_safe/rightBlue\GB_RB_2.xlsx
2	main_safe	True	0.0	950	0	0.0	0.0	1.0	1	right	2.0	1.0	1.0	1	0.08	blockFiles/set_15/main_safe/rightBlue\GB_RB_2.xlsx
3	main_safe	True	0.0	950	0	0.0	0.0	0.0	1	left	1.0	1.0	1.0	0	-0.08	blockFiles/set_15/main_safe/rightBlue\GB_RB_2.xlsx
4	main_safe	True	0.0	950	0	0.0	0.0	0.0	1	left	1.0	1.0	1.0	0	-0.08	blockFiles/set_15/main_safe/rightBlue\GB_RB_2.xlsx
5	main_safe	True	0.0	950	0	0.0	0.0	0.0	1	left	1.0	1.0	1.0	0	-0.08	blockFiles/set_15/main_safe/rightBlue\GB_RB_2.xlsx
6	main_safe	True	0.0	950	0	0.0	0.0	0.0	1	left	1.0	1.0	1.0	0	-0.08	blockFiles/set_15/main_safe/rightBlue\GB_RB_2.xlsx
7	main_safe	True	0.0	950	0	0.0	0.0	1.0	1	right	2.0	1.0	1.0	1	0.08	blockFiles/set_15/main_safe/rightBlue\GB_RB_2.xlsx
8	main_safe	True	0.0	950	0	0.0	0.0	0.0	1	left	1.0	1.0	1.0	0	-0.08	blockFiles/set_15/main_safe/rightBlue\GB_RB_2.xlsx
9	main_safe	True	0.0	950	0	0.0	0.0	1.0	1	right	2.0	1.0	1.0	1	0.08	blockFiles/set_15/main_safe/rightBlue\GB_RB_2.xlsx
10	main_safe	True	0.0	950	0	0.0	0.0	1.0	1	right	2.0	1.0	1.0	1	0.08	blockFiles/set_15/main_safe/rightBlue\GB_RB_2.xlsx
11	main_safe	True	0.0	950	0	0.0	0.0	0.0	1	left	1.0	1.0	1.0	0	-0.08	blockFiles/set_15/main_safe/rightBlue\GB_RB_2.xlsx
12	main_safe	True	0.0	950	0	0.0	0.0	1.0	1	right	2.0	1.0	1.0	1	0.08	blockFiles/set_15/main_safe/rightBlue\GB_RB_2.xlsx
13	main_safe	True	0.0	950	0	0.0	0.0	1.0	1	right	2.0	1.0	1.0	1	0.08	blockFiles/set_15/main_safe/rightBlue\GB_RB_2.xlsx
14	main_safe	True	0.0	950	0	0.0	0.0	0.0	1	left	1.0	0.0	1.0	0	-0.08	blockFiles/set_15/main_safe/rightBlue\GB_RB_2.xlsx
15	main_safe	True	0.0	950	0	0.0	0.0	1.0	1	right	2.0	1.0	1.0	1	0.08	blockFiles/set_15/main_safe/rightBlue\GB_RB_2.xlsx
16	main_safe	True	0.0	950	0	0.0	0.0	0.0	1	left	1.0	0.0	1.0	0	-0.08	blockFiles/set_15/main_safe/rightBlue\GB_RB_2.xlsx
17	main_safe	True	0.0	950	0	0.0	0.0	0.0	1	left	1.0	1.0	1.0	0	-0.08	blockFiles/set_15/main_safe/rightBlue\GB_RB_2.xlsx
18	main_safe	True	0.0	950	0	0.0	0.0	0.0	1	left	1.0	0.0	1.0	0	-0.08	blockFiles/set_15/main_safe/rightBlue\GB_RB_2.xlsx
19	main_safe	True	0.0	950	0	0.0	0.0	0.0	1	left	1.0	1.0	1.0	0	-0.08	blockFiles/set_15/main_safe/rightBlue\GB_RB_2.xlsx
20	main_safe	True	0.0	950	0	0.0	0.0	1.0	1	right	2.0	1.0	1.0	1	0.08	blockFiles/set_15/main_safe/rightBlue\GB_RB_2.xlsx
21	main_safe	True	0.0	950	0	0.0	0.0	0.0	1	left	1.0	1.0	1.0	0	-0.08	blockFiles/set_15/main_safe/rightBlue\GB_RB_2.xlsx
22	main_safe	True	0.0	950	0	0.0	0.0	0.0	1	left	1.0	1.0	1.0	0	-0.08	blockFiles/set_15/main_safe/rightBlue\GB_RB_2.xlsx
23	main_safe	True	0.0	950	0	0.0	0.0	1.0	1	right	2.0	1.0	1.0	1	0.08	blockFiles/set_15/main_safe/rightBlue\GB_RB_2.xlsx
24	main_safe	True	0.0	950	0	0.0	0.0	1.0	1	right	2.0	1.0	1.0	1	0.08	blockFiles/set_15/main_safe/rightBlue\GB_RB_2.xlsx
25	main_safe	True	0.0	950	0	1.0	1.0	1.0	1	right	1.0	0.0	0.0	1	0.08	blockFiles/set_15/main_safe/rightBlue\GB_RB_3.xlsx
26	main_safe	True	0.0	950	0	1.0	1.0	1.0	1	right	2.0	1.0	1.0	1	0.08	blockFiles/set_15/main_safe/rightBlue\GB_RB_3.xlsx
27	main_safe	True	1.0	950	0	1.0	1.0	0.0	1	left	n/a	0.0	n/a	0	-0.08	blockFiles/set_15/main_safe/rightBlue\GB_RB_3.xlsx
28	main_safe	True	0.0	950	0	1.0	1.0	1.0	1	right	2.0	1.0	1.0	1	0.08	blockFiles/set_15/main_safe/rightBlue\GB_RB_3.xlsx
29	main_safe	True	0.0	950	0	1.0	1.0	1.0	1	right	2.0	1.0	1.0	1	0.08	blockFiles/set_15/main_safe/rightBlue\GB_RB_3.xlsx
30	main_safe	True	0.0	950	0	1.0	1.0	1.0	1	right	2.0	1.0	1.0	1	0.08	blockFiles/set_15/main_safe/rightBlue\GB_RB_3.xlsx
31	main_safe	True	0.0	950	0	1.0	1.0	0.0	1	left	1.0	1.0	1.0	0	-0.08	blockFiles/set_15/main_safe/rightBlue\GB_RB_3.xlsx
32	main_safe	True	0.0	950	0	1.0	1.0	0.0	1	left	1.0	0.0	1.0	0	-0.08	blockFiles/set_15/main_safe/rightBlue\GB_RB_3.xlsx
33	main_safe	True	0.0	950	0	1.0	1.0	1.0	1	right	2.0	1.0	1.0	1	0.08	blockFiles/set_15/main_safe/rightBlue\GB_RB_3.xlsx
34	main_safe	True	0.0	950	0	1.0	1.0	1.0	1	right	2.0	1.0	1.0	1	0.08	blockFiles/set_15/main_safe/rightBlue\GB_RB_3.xlsx
35	main_safe	True	0.0	950	0	1.0	1.0	1.0	1	right	2.0	0.0	1.0	1	0.08	blockFiles/set_15/main_safe/rightBlue\GB_RB_3.xlsx
36	main_safe	True	0.0	950	0	1.0	1.0	0.0	1	left	1.0	1.0	1.0	0	-0.08	blockFiles/set_15/main_safe/rightBlue\GB_RB_3.xlsx
37	main_safe	True	0.0	950	0	1.0	1.0	0.0	1	left	1.0	1.0	1.0	0	-0.08	blockFiles/set_15/main_safe/rightBlue\GB_RB_3.xlsx
38	main_safe	True	0.0	950	0	1.0	1.0	0.0	1	left	1.0	0.0	1.0	0	-0.08	blockFiles/set_15/main_safe/rightBlue\GB_RB_3.xlsx
39	main_safe	True	0.0	950	0	1.0	1.0	1.0	1	right	2.0	1.0	1.0	1	0.08	blockFiles/set_15/main_safe/rightBlue\GB_RB_3.xlsx
40	main_safe	True	0.0	950	0	1.0	1.0	0.0	1	left	1.0	1.0	1.0	0	-0.08	blockFiles/set_15/main_safe/rightBlue\GB_RB_3.xlsx
41	main_safe	True	0.0	950	0	1.0	1.0	0.0	1	left	1.0	1.0	1.0	0	-0.08	blockFiles/set_15/main_safe/rightBlue\GB_RB_3.xlsx
42	main_safe	True	0.0	950	0	1.0	1.0	1.0	1	right	2.0	0.0	1.0	1	0.08	blockFiles/set_15/main_safe/rightBlue\GB_RB_3.xlsx
43	main_safe	True	0.0	950	0	1.0	1.0	0.0	1	left	1.0	1.0	1.0	0	-0.08	blockFiles/set_15/main_safe/rightBlue\GB_RB_3.xlsx
44	main_safe	True	0.0	950	0	1.0	1.0	0.0	1	left	1.0	1.0	1.0	0	-0.08	blockFiles/set_15/main_safe/rightBlue\GB_RB_3.xlsx
45	main_safe	True	0.0	950	0	1.0	1.0	1.0	1	right	2.0	1.0	1.0	1	0.08	blockFiles/set_15/main_safe/rightBlue\GB_RB_3.xlsx
46	main_safe	True	0.0	950	0	1.0	1.0	0.0	1	left	1.0	1.0	1.0	0	-0.08	blockFiles/set_15/main_safe/rightBlue\GB_RB_3.xlsx
47	main_safe	True	0.0	950	0	1.0	1.0	0.0	1	left	1.0	1.0	1.0	0	-0.08	blockFiles/set_15/main_safe/rightBlue\GB_RB_3.xlsx
48	main_safe	True	0.0	950	0	1.0	1.0	0.0	1	left	1.0	1.0	1.0	0	-0.08	blockFiles/set_15/main_safe/rightBlue\GB_RB_3.xlsx
49	main_safe	True	0.0	950	0	1.0	1.0	1.0	1	right	2.0	0.0	1.0	1	0.08	blockFiles/set_15/main_safe/rightBlue\GB_RB_3.xlsx
50	main_safe	True	0.0	950	0	1.0	1.0	0.0	1	left	1.0	1.0	1.0	0	-0.08	blockFiles/set_15/main_safe/rightBlue\GB_RB_3.xlsx
51	main_safe	True	0.0	950	0	2.0	2.0	1.0	1	right	1.0	0.0	1.0	1	0.08	blockFiles/set_15/main_safe/leftBlue\GB_LB_2.xlsx
52	main_safe	True	0.0	950	0	2.0	2.0	1.0	1	right	2.0	1.0	0.0	1	0.08	blockFiles/set_15/main_safe/leftBlue\GB_LB_2.xlsx
53	main_safe	True	0.0	950	0	2.0	2.0	0.0	1	left	1.0	0.0	0.0	0	-0.08	blockFiles/set_15/main_safe/leftBlue\GB_LB_2.xlsx
54	main_safe	True	0.0	950	0	2.0	2.0	0.0	1	left	1.0	0.0	0.0	0	-0.08	blockFiles/set_15/main_safe/leftBlue\GB_LB_2.xlsx
55	main_safe	True	0.0	950	0	2.0	2.0	1.0	1	right	1.0	1.0	1.0	1	0.08	blockFiles/set_15/main_safe/leftBlue\GB_LB_2.xlsx
56	main_safe	True	0.0	950	0	2.0	2.0	1.0	1	right	1.0	1.0	1.0	1	0.08	blockFiles/set_15/main_safe/leftBlue\GB_LB_2.xlsx
57	main_safe	True	0.0	950	0	2.0	2.0	0.0	1	left	2.0	1.0	1.0	0	-0.08	blockFiles/set_15/main_safe/leftBlue\GB_LB_2.xlsx
58	main_safe	True	0.0	950	0	2.0	2.0	1.0	1	right	1.0	1.0	1.0	1	0.08	blockFiles/set_15/main_safe/leftBlue\GB_LB_2.xlsx
59	main_safe	True	0.0	950	0	2.0	2.0	0.0	1	left	2.0	0.0	1.0	0	-0.08	blockFiles/set_15/main_safe/leftBlue\GB_LB_2.xlsx
60	main_safe	True	0.0	950	0	2.0	2.0	0.0	1	left	2.0	1.0	1.0	0	-0.08	blockFiles/set_15/main_safe/leftBlue\GB_LB_2.xlsx
61	main_safe	True	0.0	950	0	2.0	2.0	1.0	1	right	1.0	1.0	1.0	1	0.08	blockFiles/set_15/main_safe/leftBlue\GB_LB_2.xlsx
62	main_safe	True	0.0	950	0	2.0	2.0	1.0	1	right	1.0	1.0	1.0	1	0.08	blockFiles/set_15/main_safe/leftBlue\GB_LB_2.xlsx
63	main_safe	True	0.0	950	0	2.0	2.0	1.0	1	right	1.0	0.0	1.0	1	0.08	blockFiles/set_15/main_safe/leftBlue\GB_LB_2.xlsx
64	main_safe	True	0.0	950	0	2.0	2.0	0.0	1	left	2.0	1.0	1.0	0	-0.08	blockFiles/set_15/main_safe/leftBlue\GB_LB_2.xlsx
65	main_safe	True	0.0	950	0	2.0	2.0	1.0	1	right	1.0	1.0	1.0	1	0.08	blockFiles/set_15/main_safe/leftBlue\GB_LB_2.xlsx
66	main_safe	True	0.0	950	0	2.0	2.0	0.0	1	left	2.0	1.0	1.0	0	-0.08	blockFiles/set_15/main_safe/leftBlue\GB_LB_2.xlsx
67	main_safe	True	0.0	950	0	2.0	2.0	0.0	1	left	2.0	1.0	1.0	0	-0.08	blockFiles/set_15/main_safe/leftBlue\GB_LB_2.xlsx
68	main_safe	True	0.0	950	0	2.0	2.0	1.0	1	right	1.0	1.0	1.0	1	0.08	blockFiles/set_15/main_safe/leftBlue\GB_LB_2.xlsx
69	main_safe	True	0.0	950	0	2.0	2.0	0.0	1	left	2.0	0.0	1.0	0	-0.08	blockFiles/set_15/main_safe/leftBlue\GB_LB_2.xlsx
70	main_safe	True	0.0	950	0	2.0	2.0	0.0	1	left	2.0	1.0	1.0	0	-0.08	blockFiles/set_15/main_safe/leftBlue\GB_LB_2.xlsx
71	main_safe	True	0.0	950	0	2.0	2.0	0.0	1	left	2.0	1.0	1.0	0	-0.08	blockFiles/set_15/main_safe/leftBlue\GB_LB_2.xlsx
72	main_safe	True	0.0	950	0	2.0	2.0	1.0	1	right	1.0	1.0	1.0	1	0.08	blockFiles/set_15/main_safe/leftBlue\GB_LB_2.xlsx
73	main_safe	True	0.0	950	0	2.0	2.0	1.0	1	right	1.0	0.0	1.0	1	0.08	blockFiles/set_15/main_safe/leftBlue\GB_LB_2.xlsx
74	main_safe	True	0.0	950	0	2.0	2.0	1.0	1	right	1.0	1.0	1.0	1	0.08	blockFiles/set_15/main_safe/leftBlue\GB_LB_2.xlsx
75	main_safe	True	0.0	950	0	2.0	2.0	0.0	1	left	2.0	1.0	1.0	0	-0.08	blockFiles/set_15/main_safe/leftBlue\GB_LB_2.xlsx
76	main_safe	True	0.0	950	0	3.0	3.0	0.0	1	left	2.0	0.0	0.0	0	-0.08	blockFiles/set_15/main_safe/rightBlue\GB_RB_1.xlsx
77	main_safe	True	0.0	950	0	3.0	3.0	1.0	1	right	2.0	1.0	1.0	1	0.08	blockFiles/set_15/main_safe/rightBlue\GB_RB_1.xlsx
78	main_safe	True	0.0	950	0	3.0	3.0	0.0	1	left	1.0	1.0	1.0	0	-0.08	blockFiles/set_15/main_safe/rightBlue\GB_RB_1.xlsx
79	main_safe	True	0.0	950	0	3.0	3.0	0.0	1	left	1.0	1.0	1.0	0	-0.08	blockFiles/set_15/main_safe/rightBlue\GB_RB_1.xlsx
80	main_safe	True	0.0	950	0	3.0	3.0	1.0	1	right	2.0	1.0	1.0	1	0.08	blockFiles/set_15/main_safe/rightBlue\GB_RB_1.xlsx
81	main_safe	True	0.0	950	0	3.0	3.0	1.0	1	right	2.0	1.0	1.0	1	0.08	blockFiles/set_15/main_safe/rightBlue\GB_RB_1.xlsx
82	main_safe	True	0.0	950	0	3.0	3.0	1.0	1	right	2.0	1.0	1.0	1	0.08	blockFiles/set_15/main_safe/rightBlue\GB_RB_1.xlsx
83	main_safe	True	0.0	950	0	3.0	3.0	0.0	1	left	1.0	0.0	1.0	0	-0.08	blockFiles/set_15/main_safe/rightBlue\GB_RB_1.xlsx
84	main_safe	True	0.0	950	0	3.0	3.0	0.0	1	left	1.0	1.0	1.0	0	-0.08	blockFiles/set_15/main_safe/rightBlue\GB_RB_1.xlsx
85	main_safe	True	0.0	950	0	3.0	3.0	0.0	1	left	1.0	1.0	1.0	0	-0.08	blockFiles/set_15/main_safe/rightBlue\GB_RB_1.xlsx
86	main_safe	True	0.0	950	0	3.0	3.0	1.0	1	right	2.0	0.0	1.0	1	0.08	blockFiles/set_15/main_safe/rightBlue\GB_RB_1.xlsx
87	main_safe	True	0.0	950	0	3.0	3.0	1.0	1	right	2.0	1.0	1.0	1	0.08	blockFiles/set_15/main_safe/rightBlue\GB_RB_1.xlsx
88	main_safe	True	0.0	950	0	3.0	3.0	0.0	1	left	1.0	1.0	1.0	0	-0.08	blockFiles/set_15/main_safe/rightBlue\GB_RB_1.xlsx
89	main_safe	True	0.0	950	0	3.0	3.0	1.0	1	right	2.0	0.0	1.0	1	0.08	blockFiles/set_15/main_safe/rightBlue\GB_RB_1.xlsx
90	main_safe	True	0.0	950	0	3.0	3.0	1.0	1	right	2.0	0.0	1.0	1	0.08	blockFiles/set_15/main_safe/rightBlue\GB_RB_1.xlsx
91	main_safe	True	0.0	950	0	3.0	3.0	1.0	1	right	2.0	1.0	1.0	1	0.08	blockFiles/set_15/main_safe/rightBlue\GB_RB_1.xlsx
92	main_safe	True	0.0	950	0	3.0	3.0	1.0	1	right	2.0	1.0	1.0	1	0.08	blockFiles/set_15/main_safe/rightBlue\GB_RB_1.xlsx
93	main_safe	True	0.0	950	0	3.0	3.0	0.0	1	left	1.0	1.0	1.0	0	-0.08	blockFiles/set_15/main_safe/rightBlue\GB_RB_1.xlsx
94	main_safe	True	0.0	950	0	3.0	3.0	0.0	1	left	1.0	1.0	1.0	0	-0.08	blockFiles/set_15/main_safe/rightBlue\GB_RB_1.xlsx
95	main_safe	True	0.0	950	0	3.0	3.0	0.0	1	left	1.0	1.0	1.0	0	-0.08	blockFiles/set_15/main_safe/rightBlue\GB_RB_1.xlsx
96	main_safe	True	0.0	950	0	3.0	3.0	1.0	1	right	2.0	1.0	1.0	1	0.08	blockFiles/set_15/main_safe/rightBlue\GB_RB_1.xlsx
97	main_safe	True	0.0	950	0	3.0	3.0	0.0	1	left	1.0	0.0	1.0	0	-0.08	blockFiles/set_15/main_safe/rightBlue\GB_RB_1.xlsx
98	main_safe	True	0.0	950	0	3.0	3.0	0.0	1	left	1.0	1.0	1.0	0	-0.08	blockFiles/set_15/main_safe/rightBlue\GB_RB_1.xlsx
99	main_safe	True	1.0	950	0	3.0	3.0	1.0	1	right	n/a	0.0	n/a	1	0.08	blockFiles/set_15/main_safe/rightBlue\GB_RB_1.xlsx
100	main_safe	True	0.0	950	0	3.0	3.0	0.0	1	left	1.0	1.0	1.0	0	-0.08	blockFiles/set_15/main_safe/rightBlue\GB_RB_1.xlsx
101	main_safe	True	0.0	950	0	3.0	3.0	1.0	1	right	2.0	1.0	1.0	1	0.08	blockFiles/set_15/main_safe/rightBlue\GB_RB_1.xlsx
102	main_safe	True	0.0	950	0	4.0	4.0	0.0	1	left	2.0	1.0	1.0	0	-0.08	blockFiles/set_15/main_safe/leftBlue\GB_LB_1.xlsx
103	main_safe	True	0.0	950	0	4.0	4.0	1.0	1	right	1.0	0.0	1.0	1	0.08	blockFiles/set_15/main_safe/leftBlue\GB_LB_1.xlsx
104	main_safe	True	0.0	950	0	4.0	4.0	0.0	1	left	2.0	1.0	1.0	0	-0.08	blockFiles/set_15/main_safe/leftBlue\GB_LB_1.xlsx
105	main_safe	True	0.0	950	0	4.0	4.0	1.0	1	right	1.0	1.0	1.0	1	0.08	blockFiles/set_15/main_safe/leftBlue\GB_LB_1.xlsx
106	main_safe	True	0.0	950	0	4.0	4.0	0.0	1	left	2.0	0.0	1.0	0	-0.08	blockFiles/set_15/main_safe/leftBlue\GB_LB_1.xlsx
107	main_safe	True	0.0	950	0	4.0	4.0	1.0	1	right	1.0	0.0	1.0	1	0.08	blockFiles/set_15/main_safe/leftBlue\GB_LB_1.xlsx
108	main_safe	True	0.0	950	0	4.0	4.0	0.0	1	left	2.0	1.0	1.0	0	-0.08	blockFiles/set_15/main_safe/leftBlue\GB_LB_1.xlsx
109	main_safe	True	0.0	950	0	4.0	4.0	0.0	1	left	2.0	1.0	1.0	0	-0.08	blockFiles/set_15/main_safe/leftBlue\GB_LB_1.xlsx
110	main_safe	True	0.0	950	0	4.0	4.0	1.0	1	right	1.0	1.0	1.0	1	0.08	blockFiles/set_15/main_safe/leftBlue\GB_LB_1.xlsx
111	main_safe	True	0.0	950	0	4.0	4.0	0.0	1	left	2.0	1.0	1.0	0	-0.08	blockFiles/set_15/main_safe/leftBlue\GB_LB_1.xlsx
112	main_safe	True	0.0	950	0	4.0	4.0	1.0	1	right	1.0	1.0	1.0	1	0.08	blockFiles/set_15/main_safe/leftBlue\GB_LB_1.xlsx
113	main_safe	True	0.0	950	0	4.0	4.0	0.0	1	left	2.0	1.0	1.0	0	-0.08	blockFiles/set_15/main_safe/leftBlue\GB_LB_1.xlsx
114	main_safe	True	0.0	950	0	4.0	4.0	1.0	1	right	1.0	1.0	1.0	1	0.08	blockFiles/set_15/main_safe/leftBlue\GB_LB_1.xlsx
115	main_safe	True	0.0	950	0	4.0	4.0	0.0	1	left	2.0	0.0	1.0	0	-0.08	blockFiles/set_15/main_safe/leftBlue\GB_LB_1.xlsx
116	main_safe	True	0.0	950	0	4.0	4.0	0.0	1	left	2.0	1.0	1.0	0	-0.08	blockFiles/set_15/main_safe/leftBlue\GB_LB_1.xlsx
117	main_safe	True	0.0	950	0	4.0	4.0	1.0	1	right	1.0	1.0	1.0	1	0.08	blockFiles/set_15/main_safe/leftBlue\GB_LB_1.xlsx
118	main_safe	True	0.0	950	0	4.0	4.0	0.0	1	left	2.0	1.0	1.0	0	-0.08	blockFiles/set_15/main_safe/leftBlue\GB_LB_1.xlsx
119	main_safe	True	0.0	950	0	4.0	4.0	1.0	1	right	1.0	1.0	1.0	1	0.08	blockFiles/set_15/main_safe/leftBlue\GB_LB_1.xlsx
120	main_safe	True	0.0	950	0	4.0	4.0	1.0	1	right	2.0	0.0	0.0	1	0.08	blockFiles/set_15/main_safe/leftBlue\GB_LB_1.xlsx
121	main_safe	True	0.0	950	0	4.0	4.0	0.0	1	left	2.0	1.0	1.0	0	-0.08	blockFiles/set_15/main_safe/leftBlue\GB_LB_1.xlsx
122	main_safe	True	0.0	950	0	4.0	4.0	1.0	1	right	1.0	1.0	1.0	1	0.08	blockFiles/set_15/main_safe/leftBlue\GB_LB_1.xlsx
123	main_safe	True	0.0	950	0	4.0	4.0	0.0	1	left	2.0	0.0	1.0	0	-0.08	blockFiles/set_15/main_safe/leftBlue\GB_LB_1.xlsx
124	main_safe	True	0.0	950	0	4.0	4.0	0.0	1	left	2.0	1.0	1.0	0	-0.08	blockFiles/set_15/main_safe/leftBlue\GB_LB_1.xlsx
125	main_safe	True	0.0	950	0	4.0	4.0	0.0	1	left	2.0	1.0	1.0	0	-0.08	blockFiles/set_15/main_safe/leftBlue\GB_LB_1.xlsx
126	main_safe	True	0.0	950	0	4.0	4.0	1.0	1	right	1.0	1.0	1.0	1	0.08	blockFiles/set_15/main_safe/leftBlue\GB_LB_1.xlsx
127	main_safe	True	0.0	950	0	5.0	5.0	0.0	1	left	1.0	0.0	0.0	0	-0.08	blockFiles/set_15/main_safe/leftBlue\GB_LB_3.xlsx
128	main_safe	True	0.0	950	0	5.0	5.0	0.0	1	left	2.0	0.0	1.0	0	-0.08	blockFiles/set_15/main_safe/leftBlue\GB_LB_3.xlsx
129	main_safe	True	0.0	950	0	5.0	5.0	0.0	1	left	1.0	0.0	0.0	0	-0.08	blockFiles/set_15/main_safe/leftBlue\GB_LB_3.xlsx
130	main_safe	True	0.0	950	0	5.0	5.0	1.0	1	right	1.0	1.0	1.0	1	0.08	blockFiles/set_15/main_safe/leftBlue\GB_LB_3.xlsx
131	main_safe	True	0.0	950	0	5.0	5.0	0.0	1	left	2.0	1.0	1.0	0	-0.08	blockFiles/set_15/main_safe/leftBlue\GB_LB_3.xlsx
132	main_safe	True	0.0	950	0	5.0	5.0	1.0	1	right	1.0	1.0	1.0	1	0.08	blockFiles/set_15/main_safe/leftBlue\GB_LB_3.xlsx
133	main_safe	True	0.0	950	0	5.0	5.0	1.0	1	right	1.0	1.0	1.0	1	0.08	blockFiles/set_15/main_safe/leftBlue\GB_LB_3.xlsx
134	main_safe	True	0.0	950	0	5.0	5.0	0.0	1	left	2.0	1.0	1.0	0	-0.08	blockFiles/set_15/main_safe/leftBlue\GB_LB_3.xlsx
135	main_safe	True	0.0	950	0	5.0	5.0	0.0	1	left	2.0	0.0	1.0	0	-0.08	blockFiles/set_15/main_safe/leftBlue\GB_LB_3.xlsx
136	main_safe	True	0.0	950	0	5.0	5.0	0.0	1	left	2.0	1.0	1.0	0	-0.08	blockFiles/set_15/main_safe/leftBlue\GB_LB_3.xlsx
137	main_safe	True	0.0	950	0	5.0	5.0	1.0	1	right	1.0	1.0	1.0	1	0.08	blockFiles/set_15/main_safe/leftBlue\GB_LB_3.xlsx
138	main_safe	True	0.0	950	0	5.0	5.0	0.0	1	left	2.0	1.0	1.0	0	-0.08	blockFiles/set_15/main_safe/leftBlue\GB_LB_3.xlsx
139	main_safe	True	0.0	950	0	5.0	5.0	1.0	1	right	1.0	1.0	1.0	1	0.08	blockFiles/set_15/main_safe/leftBlue\GB_LB_3.xlsx
140	main_safe	True	0.0	950	0	5.0	5.0	1.0	1	right	1.0	1.0	1.0	1	0.08	blockFiles/set_15/main_safe/leftBlue\GB_LB_3.xlsx
141	main_safe	True	0.0	950	0	5.0	5.0	0.0	1	left	2.0	1.0	1.0	0	-0.08	blockFiles/set_15/main_safe/leftBlue\GB_LB_3.xlsx
142	main_safe	True	0.0	950	0	5.0	5.0	1.0	1	right	1.0	1.0	1.0	1	0.08	blockFiles/set_15/main_safe/leftBlue\GB_LB_3.xlsx
143	main_safe	True	0.0	950	0	5.0	5.0	1.0	1	right	1.0	0.0	1.0	1	0.08	blockFiles/set_15/main_safe/leftBlue\GB_LB_3.xlsx
144	main_safe	True	0.0	950	0	5.0	5.0	1.0	1	right	1.0	1.0	1.0	1	0.08	blockFiles/set_15/main_safe/leftBlue\GB_LB_3.xlsx
145	main_safe	True	0.0	950	0	5.0	5.0	1.0	1	right	1.0	1.0	1.0	1	0.08	blockFiles/set_15/main_safe/leftBlue\GB_LB_3.xlsx
146	main_safe	True	0.0	950	0	5.0	5.0	1.0	1	right	1.0	1.0	1.0	1	0.08	blockFiles/set_15/main_safe/leftBlue\GB_LB_3.xlsx
147	main_safe	True	0.0	950	0	5.0	5.0	0.0	1	left	2.0	0.0	1.0	0	-0.08	blockFiles/set_15/main_safe/leftBlue\GB_LB_3.xlsx
148	main_safe	True	0.0	950	0	5.0	5.0	1.0	1	right	1.0	1.0	1.0	1	0.08	blockFiles/set_15/main_safe/leftBlue\GB_LB_3.xlsx
149	main_safe	True	0.0	950	0	5.0	5.0	0.0	1	left	2.0	1.0	1.0	0	-0.08	blockFiles/set_15/main_safe/leftBlue\GB_LB_3.xlsx
150	main_safe	True	0.0	950	0	5.0	5.0	0.0	1	left	2.0	1.0	1.0	0	-0.08	blockFiles/set_15/main_safe/leftBlue\GB_LB_3.xlsx
151	main_safe	True	0.0	950	0	5.0	5.0	1.0	1	right	1.0	1.0	1.0	1	0.08	blockFiles/set_15/main_safe/leftBlue\GB_LB_3.xlsx
152	patches	True	n/a	950	0	n/a	n/a	0.0	1	left	n/a	n/a	n/a	0	-0.0634859555401	blockFiles/set_15/main_PD/GB_runPatches1.xlsx
153	patches	True	n/a	950	0	n/a	n/a	1.0	1	right	n/a	n/a	n/a	1	0.0734306164272	blockFiles/set_15/main_PD/GB_runPatches1.xlsx
154	patches	True	n/a	950	0	n/a	n/a	0.0	1	left	n/a	n/a	n/a	0	-0.054643765837	blockFiles/set_15/main_PD/GB_runPatches1.xlsx
155	patches	True	n/a	950	0	n/a	n/a	1.0	1	right	n/a	n/a	n/a	1	0.0634561536089	blockFiles/set_15/main_PD/GB_runPatches1.xlsx
156	patches	True	n/a	950	0	n/a	n/a	1.0	1	right	n/a	n/a	n/a	1	0.0122790681571	blockFiles/set_15/main_PD/GB_runPatches1.xlsx
157	patches	True	n/a	950	0	n/a	n/a	0.0	0	left	n/a	n/a	n/a	1	0.00472348695621	blockFiles/set_15/main_PD/GB_runPatches1.xlsx
158	patches	True	n/a	950	0	n/a	n/a	0.0	1	left	n/a	n/a	n/a	0	-0.0727382567897	blockFiles/set_15/main_PD/GB_runPatches1.xlsx
159	patches	True	n/a	950	0	n/a	n/a	1.0	1	right	n/a	n/a	n/a	1	0.012199378032200002	blockFiles/set_15/main_PD/GB_runPatches1.xlsx
160	patches	True	n/a	950	0	n/a	n/a	0.0	1	left	n/a	n/a	n/a	0	-0.0737649560161	blockFiles/set_15/main_PD/GB_runPatches1.xlsx
161	patches	True	n/a	950	0	n/a	n/a	0.0	1	left	n/a	n/a	n/a	0	-0.062119446527199994	blockFiles/set_15/main_PD/GB_runPatches1.xlsx
162	patches	True	n/a	950	0	n/a	n/a	0.0	1	left	n/a	n/a	n/a	0	-0.0725241234899	blockFiles/set_15/main_PD/GB_runPatches1.xlsx
163	patches	True	n/a	950	0	n/a	n/a	1.0	1	right	n/a	n/a	n/a	1	0.00129051094875	blockFiles/set_15/main_PD/GB_runPatches1.xlsx
164	patches	True	n/a	950	0	n/a	n/a	0.0	1	left	n/a	n/a	n/a	0	-0.0405533790402	blockFiles/set_15/main_PD/GB_runPatches1.xlsx
165	patches	True	n/a	950	0	n/a	n/a	1.0	1	right	n/a	n/a	n/a	1	0.00651938365772	blockFiles/set_15/main_PD/GB_runPatches1.xlsx
166	patches	True	n/a	950	0	n/a	n/a	1.0	1	right	n/a	n/a	n/a	1	0.0677878770418	blockFiles/set_15/main_PD/GB_runPatches1.xlsx
167	patches	True	n/a	950	0	n/a	n/a	0.0	1	left	n/a	n/a	n/a	0	-0.020638117995099996	blockFiles/set_15/main_PD/GB_runPatches1.xlsx
168	patches	True	n/a	950	0	n/a	n/a	1.0	1	right	n/a	n/a	n/a	1	0.074999706652	blockFiles/set_15/main_PD/GB_runPatches1.xlsx
169	patches	True	n/a	950	0	n/a	n/a	0.0	0	left	n/a	n/a	n/a	1	0.007735379729420001	blockFiles/set_15/main_PD/GB_runPatches1.xlsx
170	patches	True	n/a	950	0	n/a	n/a	0.0	1	left	n/a	n/a	n/a	0	-0.0635960775428	blockFiles/set_15/main_PD/GB_runPatches1.xlsx
171	patches	True	n/a	950	0	n/a	n/a	0.0	1	left	n/a	n/a	n/a	0	-0.0778110770322	blockFiles/set_15/main_PD/GB_runPatches1.xlsx
172	patches	True	n/a	950	0	n/a	n/a	0.0	1	left	n/a	n/a	n/a	0	-0.01618951682	blockFiles/set_15/main_PD/GB_runPatches1.xlsx
173	patches	True	n/a	950	0	n/a	n/a	0.0	1	left	n/a	n/a	n/a	0	-0.005268899444489999	blockFiles/set_15/main_PD/GB_runPatches1.xlsx
174	patches	True	n/a	950	0	n/a	n/a	1.0	1	right	n/a	n/a	n/a	1	0.072828189712	blockFiles/set_15/main_PD/GB_runPatches1.xlsx
175	patches	True	n/a	950	0	n/a	n/a	0.0	1	left	n/a	n/a	n/a	0	-0.0503922057897	blockFiles/set_15/main_PD/GB_runPatches1.xlsx
176	patches	True	n/a	950	0	n/a	n/a	1.0	1	right	n/a	n/a	n/a	1	0.0627781533264	blockFiles/set_15/main_PD/GB_runPatches1.xlsx
177	patches	True	n/a	950	0	n/a	n/a	n/a	0	None	n/a	n/a	n/a	0	-0.013095107693199999	blockFiles/set_15/main_PD/GB_runPatches1.xlsx
178	patches	True	n/a	950	0	n/a	n/a	1.0	1	right	n/a	n/a	n/a	1	0.0564834843576	blockFiles/set_15/main_PD/GB_runPatches1.xlsx
179	patches	True	n/a	950	0	n/a	n/a	0.0	0	left	n/a	n/a	n/a	1	0.00178619006649	blockFiles/set_15/main_PD/GB_runPatches1.xlsx
180	patches	True	n/a	950	0	n/a	n/a	0.0	1	left	n/a	n/a	n/a	0	-0.00177298810333	blockFiles/set_15/main_PD/GB_runPatches1.xlsx
181	patches	True	n/a	950	0	n/a	n/a	1.0	1	right	n/a	n/a	n/a	1	0.00993319045752	blockFiles/set_15/main_PD/GB_runPatches1.xlsx
182	patches	True	n/a	950	0	n/a	n/a	0.0	1	left	n/a	n/a	n/a	0	-0.061066008564099994	blockFiles/set_15/main_PD/GB_runPatches1.xlsx
183	patches	True	n/a	950	0	n/a	n/a	1.0	1	right	n/a	n/a	n/a	1	0.0606334918924	blockFiles/set_15/main_PD/GB_runPatches1.xlsx
184	patches	True	n/a	950	0	n/a	n/a	0.0	0	left	n/a	n/a	n/a	1	0.06370411340149999	blockFiles/set_15/main_PD/GB_runPatches1.xlsx
185	patches	True	n/a	950	0	n/a	n/a	0.0	1	left	n/a	n/a	n/a	0	-0.0022960630059200003	blockFiles/set_15/main_PD/GB_runPatches1.xlsx
186	patches	True	n/a	950	0	n/a	n/a	1.0	1	right	n/a	n/a	n/a	1	0.06838210331280001	blockFiles/set_15/main_PD/GB_runPatches1.xlsx
187	patches	True	n/a	950	0	n/a	n/a	0.0	1	left	n/a	n/a	n/a	0	-0.0302011904493	blockFiles/set_15/main_PD/GB_runPatches1.xlsx
188	patches	True	n/a	950	0	n/a	n/a	0.0	1	left	n/a	n/a	n/a	0	-0.0707144961134	blockFiles/set_15/main_PD/GB_runPatches1.xlsx
189	patches	True	n/a	950	0	n/a	n/a	0.0	1	left	n/a	n/a	n/a	0	-0.020038517434099998	blockFiles/set_15/main_PD/GB_runPatches1.xlsx
190	patches	True	n/a	950	0	n/a	n/a	0.0	1	left	n/a	n/a	n/a	0	-0.0686259428598	blockFiles/set_15/main_PD/GB_runPatches1.xlsx
191	patches	True	n/a	950	0	n/a	n/a	0.0	1	left	n/a	n/a	n/a	0	-0.0303624187596	blockFiles/set_15/main_PD/GB_runPatches1.xlsx
192	patches	True	n/a	950	0	n/a	n/a	1.0	1	right	n/a	n/a	n/a	1	0.0128415574692	blockFiles/set_15/main_PD/GB_runPatches1.xlsx
193	patches	True	n/a	950	0	n/a	n/a	0.0	1	left	n/a	n/a	n/a	0	-0.0674711689539	blockFiles/set_15/main_PD/GB_runPatches1.xlsx
194	patches	True	n/a	950	0	n/a	n/a	0.0	0	left	n/a	n/a	n/a	1	0.0155102390051	blockFiles/set_15/main_PD/GB_runPatches1.xlsx
195	patches	True	n/a	950	0	n/a	n/a	1.0	1	right	n/a	n/a	n/a	1	0.034612066578099995	blockFiles/set_15/main_PD/GB_runPatches1.xlsx
196	patches	True	n/a	950	0	n/a	n/a	1.0	1	right	n/a	n/a	n/a	1	0.0524034134485	blockFiles/set_15/main_PD/GB_runPatches1.xlsx
197	patches	True	n/a	950	0	n/a	n/a	1.0	1	right	n/a	n/a	n/a	1	0.045558763500300005	blockFiles/set_15/main_PD/GB_runPatches1.xlsx
198	patches	True	n/a	950	0	n/a	n/a	0.0	1	left	n/a	n/a	n/a	0	-0.0670604198612	blockFiles/set_15/main_PD/GB_runPatches1.xlsx
199	patches	True	n/a	950	0	n/a	n/a	0.0	0	left	n/a	n/a	n/a	1	0.020440015587999998	blockFiles/set_15/main_PD/GB_runPatches1.xlsx
200	patches	True	n/a	950	0	n/a	n/a	1.0	1	right	n/a	n/a	n/a	1	0.039477104637800006	blockFiles/set_15/main_PD/GB_runPatches1.xlsx
201	patches	True	n/a	950	0	n/a	n/a	1.0	1	right	n/a	n/a	n/a	1	0.056053061299	blockFiles/set_15/main_PD/GB_runPatches1.xlsx
202	patches	True	n/a	950	0	n/a	n/a	0.0	1	left	n/a	n/a	n/a	0	-0.0433846482821	blockFiles/set_15/main_PD/GB_runPatches1.xlsx
203	patches	True	n/a	950	0	n/a	n/a	0.0	0	left	n/a	n/a	n/a	1	0.0190502101183	blockFiles/set_15/main_PD/GB_runPatches1.xlsx
204	patches	True	n/a	950	0	n/a	n/a	0.0	1	left	n/a	n/a	n/a	0	-0.018301792312400002	blockFiles/set_15/main_PD/GB_runPatches1.xlsx
205	patches	True	n/a	950	0	n/a	n/a	1.0	1	right	n/a	n/a	n/a	1	0.0664951355755	blockFiles/set_15/main_PD/GB_runPatches1.xlsx
206	patches	True	n/a	950	0	n/a	n/a	1.0	1	right	n/a	n/a	n/a	1	0.06857099384069999	blockFiles/set_15/main_PD/GB_runPatches1.xlsx
207	patches	True	n/a	950	0	n/a	n/a	1.0	1	right	n/a	n/a	n/a	1	0.04131527705119999	blockFiles/set_15/main_PD/GB_runPatches1.xlsx
208	patches	True	n/a	950	0	n/a	n/a	0.0	1	left	n/a	n/a	n/a	0	-0.0229060602002	blockFiles/set_15/main_PD/GB_runPatches1.xlsx
209	patches	True	n/a	950	0	n/a	n/a	1.0	1	right	n/a	n/a	n/a	1	0.06777670783919999	blockFiles/set_15/main_PD/GB_runPatches1.xlsx
210	patches	True	n/a	950	0	n/a	n/a	0.0	1	left	n/a	n/a	n/a	0	-0.00035267759114499995	blockFiles/set_15/main_PD/GB_runPatches1.xlsx
211	patches	True	n/a	950	0	n/a	n/a	0.0	1	left	n/a	n/a	n/a	0	-0.0661082435586	blockFiles/set_15/main_PD/GB_runPatches1.xlsx
212	patches	True	n/a	950	0	n/a	n/a	0.0	1	left	n/a	n/a	n/a	0	-0.042280052714	blockFiles/set_15/main_PD/GB_runPatches1.xlsx
213	patches	True	n/a	950	0	n/a	n/a	0.0	1	left	n/a	n/a	n/a	0	-0.0479834005609	blockFiles/set_15/main_PD/GB_runPatches1.xlsx
214	patches	True	n/a	950	0	n/a	n/a	1.0	1	right	n/a	n/a	n/a	1	0.0515264710039	blockFiles/set_15/main_PD/GB_runPatches1.xlsx
215	patches	True	n/a	950	0	n/a	n/a	0.0	1	left	n/a	n/a	n/a	0	-0.040381996464	blockFiles/set_15/main_PD/GB_runPatches1.xlsx
216	patches	True	n/a	950	0	n/a	n/a	0.0	1	left	n/a	n/a	n/a	0	-0.0784651486948	blockFiles/set_15/main_PD/GB_runPatches1.xlsx
217	patches	True	n/a	950	0	n/a	n/a	0.0	1	left	n/a	n/a	n/a	0	-0.0025443135574499997	blockFiles/set_15/main_PD/GB_runPatches1.xlsx
218	patches	True	n/a	950	0	n/a	n/a	0.0	0	left	n/a	n/a	n/a	1	0.027516219243400003	blockFiles/set_15/main_PD/GB_runPatches1.xlsx
219	patches	True	n/a	950	0	n/a	n/a	0.0	1	left	n/a	n/a	n/a	0	-0.0728355614841	blockFiles/set_15/main_PD/GB_runPatches1.xlsx
220	patches	True	n/a	950	0	n/a	n/a	0.0	1	left	n/a	n/a	n/a	0	-0.06542779913169999	blockFiles/set_15/main_PD/GB_runPatches1.xlsx
221	patches	True	n/a	950	0	n/a	n/a	0.0	0	left	n/a	n/a	n/a	1	0.029372808355799997	blockFiles/set_15/main_PD/GB_runPatches1.xlsx
222	patches	True	n/a	950	0	n/a	n/a	1.0	1	right	n/a	n/a	n/a	1	0.0211377276853	blockFiles/set_15/main_PD/GB_runPatches1.xlsx
223	patches	True	n/a	950	0	n/a	n/a	1.0	1	right	n/a	n/a	n/a	1	0.053741894234	blockFiles/set_15/main_PD/GB_runPatches1.xlsx
224	patches	True	n/a	950	0	n/a	n/a	1.0	1	right	n/a	n/a	n/a	1	0.0759439077228	blockFiles/set_15/main_PD/GB_runPatches1.xlsx
225	patches	True	n/a	950	0	n/a	n/a	0.0	1	left	n/a	n/a	n/a	0	-0.00604197423905	blockFiles/set_15/main_PD/GB_runPatches1.xlsx
226	patches	True	n/a	950	0	n/a	n/a	1.0	1	right	n/a	n/a	n/a	1	0.058192594088599996	blockFiles/set_15/main_PD/GB_runPatches1.xlsx
227	patches	True	n/a	950	0	n/a	n/a	0.0	1	left	n/a	n/a	n/a	0	-0.0509526767395	blockFiles/set_15/main_PD/GB_runPatches1.xlsx
228	patches	True	n/a	950	0	n/a	n/a	1.0	1	right	n/a	n/a	n/a	1	0.0579762724414	blockFiles/set_15/main_PD/GB_runPatches1.xlsx
229	patches	True	n/a	950	0	n/a	n/a	0.0	1	left	n/a	n/a	n/a	0	-0.059179077111200004	blockFiles/set_15/main_PD/GB_runPatches1.xlsx
230	patches	True	n/a	950	0	n/a	n/a	0.0	0	left	n/a	n/a	n/a	1	0.0034996538795500002	blockFiles/set_15/main_PD/GB_runPatches1.xlsx
231	patches	True	n/a	950	0	n/a	n/a	1.0	1	right	n/a	n/a	n/a	1	0.045250584874300004	blockFiles/set_15/main_PD/GB_runPatches1.xlsx
232	patches	True	n/a	950	0	n/a	n/a	0.0	1	left	n/a	n/a	n/a	0	-0.050060641150900004	blockFiles/set_15/main_PD/GB_runPatches1.xlsx
233	patches	True	n/a	950	0	n/a	n/a	0.0	1	left	n/a	n/a	n/a	0	-0.016833368614299998	blockFiles/set_15/main_PD/GB_runPatches1.xlsx
234	patches	True	n/a	950	0	n/a	n/a	0.0	1	left	n/a	n/a	n/a	0	-0.00710792180151	blockFiles/set_15/main_PD/GB_runPatches1.xlsx
235	patches	True	n/a	950	0	n/a	n/a	0.0	1	left	n/a	n/a	n/a	0	-0.00995955586433	blockFiles/set_15/main_PD/GB_runPatches1.xlsx
236	patches	True	n/a	950	0	n/a	n/a	1.0	1	right	n/a	n/a	n/a	1	0.071402700115	blockFiles/set_15/main_PD/GB_runPatches1.xlsx
237	patches	True	n/a	950	0	n/a	n/a	0.0	1	left	n/a	n/a	n/a	0	-0.0416186304949	blockFiles/set_15/main_PD/GB_runPatches1.xlsx
238	patches	True	n/a	950	0	n/a	n/a	1.0	1	right	n/a	n/a	n/a	1	0.0429391693324	blockFiles/set_15/main_PD/GB_runPatches1.xlsx
239	patches	True	n/a	950	0	n/a	n/a	1.0	0	right	n/a	n/a	n/a	0	-0.0349646556564	blockFiles/set_15/main_PD/GB_runPatches1.xlsx
240	patches	True	n/a	950	0	n/a	n/a	1.0	1	right	n/a	n/a	n/a	1	0.0387076742575	blockFiles/set_15/main_PD/GB_runPatches1.xlsx
241	patches	True	n/a	950	0	n/a	n/a	0.0	1	left	n/a	n/a	n/a	0	-0.0636375820823	blockFiles/set_15/main_PD/GB_runPatches1.xlsx
242	patches	True	n/a	950	0	n/a	n/a	1.0	1	right	n/a	n/a	n/a	1	0.0643510806374	blockFiles/set_15/main_PD/GB_runPatches1.xlsx
243	patches	True	n/a	950	0	n/a	n/a	1.0	1	right	n/a	n/a	n/a	1	0.0160343836807	blockFiles/set_15/main_PD/GB_runPatches1.xlsx
244	patches	True	n/a	950	0	n/a	n/a	1.0	1	right	n/a	n/a	n/a	1	0.07755702005699999	blockFiles/set_15/main_PD/GB_runPatches1.xlsx
245	patches	True	n/a	950	0	n/a	n/a	1.0	0	right	n/a	n/a	n/a	0	-0.008354331701989999	blockFiles/set_15/main_PD/GB_runPatches1.xlsx
246	patches	True	n/a	950	0	n/a	n/a	1.0	1	right	n/a	n/a	n/a	1	0.030010792911099995	blockFiles/set_15/main_PD/GB_runPatches1.xlsx
247	patches	True	n/a	950	0	n/a	n/a	n/a	0	None	n/a	n/a	n/a	1	0.021920135617299996	blockFiles/set_15/main_PD/GB_runPatches1.xlsx
248	patches	True	n/a	950	0	n/a	n/a	1.0	0	right	n/a	n/a	n/a	0	-0.0180295759812	blockFiles/set_15/main_PD/GB_runPatches1.xlsx
249	patches	True	n/a	950	0	n/a	n/a	1.0	1	right	n/a	n/a	n/a	1	0.07312661001460001	blockFiles/set_15/main_PD/GB_runPatches1.xlsx
250	patches	True	n/a	950	0	n/a	n/a	0.0	1	left	n/a	n/a	n/a	0	-0.041455915086	blockFiles/set_15/main_PD/GB_runPatches1.xlsx
251	patches	True	n/a	950	0	n/a	n/a	n/a	0	None	n/a	n/a	n/a	0	-0.0349683564901	blockFiles/set_15/main_PD/GB_runPatches1.xlsx
252	main_unc	True	0.0	950	0	0.0	0.0	0.0	1	left	1.0	1.0	1.0	0	-0.0192471225187	blockFiles/set_15/main_unc/rightBlue\GB_RB_1.xlsx
253	main_unc	True	0.0	950	0	0.0	0.0	1.0	1	right	2.0	1.0	1.0	1	0.0516094424203	blockFiles/set_15/main_unc/rightBlue\GB_RB_1.xlsx
254	main_unc	True	0.0	950	0	0.0	0.0	1.0	1	right	2.0	1.0	1.0	1	0.07653759017589999	blockFiles/set_15/main_unc/rightBlue\GB_RB_1.xlsx
255	main_unc	True	0.0	950	0	0.0	0.0	1.0	1	right	2.0	1.0	1.0	1	0.039377819895699995	blockFiles/set_15/main_unc/rightBlue\GB_RB_1.xlsx
256	main_unc	True	0.0	950	0	0.0	0.0	0.0	1	left	1.0	1.0	1.0	0	-0.00580736318603	blockFiles/set_15/main_unc/rightBlue\GB_RB_1.xlsx
257	main_unc	True	0.0	950	0	0.0	0.0	1.0	1	right	2.0	1.0	1.0	1	0.0207297568582	blockFiles/set_15/main_unc/rightBlue\GB_RB_1.xlsx
258	main_unc	True	0.0	950	0	0.0	0.0	0.0	1	left	1.0	1.0	1.0	0	-0.0354344384745	blockFiles/set_15/main_unc/rightBlue\GB_RB_1.xlsx
259	main_unc	True	0.0	950	0	0.0	0.0	0.0	1	left	1.0	1.0	1.0	0	-0.057452475987400005	blockFiles/set_15/main_unc/rightBlue\GB_RB_1.xlsx
260	main_unc	True	0.0	950	0	0.0	0.0	1.0	1	right	2.0	0.0	1.0	1	0.0476588419639	blockFiles/set_15/main_unc/rightBlue\GB_RB_1.xlsx
261	main_unc	True	0.0	950	0	0.0	0.0	0.0	0	left	2.0	1.0	1.0	1	0.034286902509599995	blockFiles/set_15/main_unc/rightBlue\GB_RB_1.xlsx
262	main_unc	True	0.0	950	0	0.0	0.0	1.0	1	right	2.0	0.0	1.0	1	0.0207201129198	blockFiles/set_15/main_unc/rightBlue\GB_RB_1.xlsx
263	main_unc	True	0.0	950	0	0.0	0.0	1.0	1	right	2.0	1.0	1.0	1	0.042581639234	blockFiles/set_15/main_unc/rightBlue\GB_RB_1.xlsx
264	main_unc	True	0.0	950	0	0.0	0.0	1.0	1	right	2.0	0.0	1.0	1	0.012274068705700001	blockFiles/set_15/main_unc/rightBlue\GB_RB_1.xlsx
265	main_unc	True	0.0	950	0	0.0	0.0	0.0	1	left	1.0	1.0	1.0	0	-0.0476284857467	blockFiles/set_15/main_unc/rightBlue\GB_RB_1.xlsx
266	main_unc	True	0.0	950	0	0.0	0.0	0.0	1	left	1.0	1.0	1.0	0	-0.0348122171685	blockFiles/set_15/main_unc/rightBlue\GB_RB_1.xlsx
267	main_unc	True	0.0	950	0	0.0	0.0	0.0	1	left	1.0	1.0	1.0	0	-0.0112906112708	blockFiles/set_15/main_unc/rightBlue\GB_RB_1.xlsx
268	main_unc	True	0.0	950	0	0.0	0.0	0.0	1	left	1.0	0.0	1.0	0	-0.0472615230456	blockFiles/set_15/main_unc/rightBlue\GB_RB_1.xlsx
269	main_unc	True	0.0	950	0	0.0	0.0	1.0	1	right	2.0	0.0	1.0	1	0.0657878176123	blockFiles/set_15/main_unc/rightBlue\GB_RB_1.xlsx
270	main_unc	True	0.0	950	0	0.0	0.0	1.0	0	right	1.0	1.0	1.0	0	-0.0056300522387	blockFiles/set_15/main_unc/rightBlue\GB_RB_1.xlsx
271	main_unc	True	0.0	950	0	0.0	0.0	0.0	1	left	1.0	1.0	1.0	0	-0.0470677375235	blockFiles/set_15/main_unc/rightBlue\GB_RB_1.xlsx
272	main_unc	True	0.0	950	0	0.0	0.0	1.0	1	right	2.0	1.0	1.0	1	0.0652558248118	blockFiles/set_15/main_unc/rightBlue\GB_RB_1.xlsx
273	main_unc	True	1.0	950	0	0.0	0.0	0.0	1	left	n/a	0.0	n/a	0	-0.0731461589783	blockFiles/set_15/main_unc/rightBlue\GB_RB_1.xlsx
274	main_unc	True	0.0	950	0	0.0	0.0	0.0	1	left	1.0	0.0	1.0	0	-0.014302265755799999	blockFiles/set_15/main_unc/rightBlue\GB_RB_1.xlsx
275	main_unc	True	0.0	950	0	0.0	0.0	1.0	1	right	2.0	1.0	1.0	1	0.034814939368500004	blockFiles/set_15/main_unc/rightBlue\GB_RB_1.xlsx
276	main_unc	True	0.0	950	0	0.0	0.0	1.0	1	right	1.0	0.0	0.0	1	0.00506549529731	blockFiles/set_15/main_unc/rightBlue\GB_RB_1.xlsx
277	main_unc	True	0.0	950	0	0.0	0.0	0.0	1	left	1.0	1.0	1.0	0	-0.0731461589783	blockFiles/set_15/main_unc/rightBlue\GB_RB_1.xlsx
278	main_unc	True	0.0	950	0	1.0	1.0	1.0	1	right	1.0	1.0	1.0	1	0.06265280358490001	blockFiles/set_15/main_unc/leftBlue\GB_LB_3.xlsx
279	main_unc	True	0.0	950	0	1.0	1.0	1.0	0	right	2.0	1.0	1.0	0	-0.022497749999199998	blockFiles/set_15/main_unc/leftBlue\GB_LB_3.xlsx
280	main_unc	True	0.0	950	0	1.0	1.0	1.0	1	right	1.0	1.0	1.0	1	0.0024670017510700004	blockFiles/set_15/main_unc/leftBlue\GB_LB_3.xlsx
281	main_unc	True	0.0	950	0	1.0	1.0	1.0	1	right	1.0	1.0	1.0	1	0.045072113219599995	blockFiles/set_15/main_unc/leftBlue\GB_LB_3.xlsx
282	main_unc	True	0.0	950	0	1.0	1.0	0.0	1	left	2.0	0.0	1.0	0	-0.0581182939	blockFiles/set_15/main_unc/leftBlue\GB_LB_3.xlsx
283	main_unc	True	0.0	950	0	1.0	1.0	1.0	1	right	1.0	1.0	1.0	1	0.00856980603188	blockFiles/set_15/main_unc/leftBlue\GB_LB_3.xlsx
284	main_unc	True	0.0	950	0	1.0	1.0	0.0	1	left	2.0	1.0	1.0	0	-0.0786641346291	blockFiles/set_15/main_unc/leftBlue\GB_LB_3.xlsx
285	main_unc	True	0.0	950	0	1.0	1.0	1.0	0	right	1.0	0.0	0.0	0	-0.021128531973799998	blockFiles/set_15/main_unc/leftBlue\GB_LB_3.xlsx
286	main_unc	True	0.0	950	0	1.0	1.0	1.0	1	right	1.0	1.0	1.0	1	0.0495095213875	blockFiles/set_15/main_unc/leftBlue\GB_LB_3.xlsx
287	main_unc	True	0.0	950	0	1.0	1.0	0.0	1	left	2.0	1.0	1.0	0	-0.029043391794	blockFiles/set_15/main_unc/leftBlue\GB_LB_3.xlsx
288	main_unc	True	0.0	950	0	1.0	1.0	1.0	1	right	1.0	1.0	1.0	1	0.031704440731599996	blockFiles/set_15/main_unc/leftBlue\GB_LB_3.xlsx
289	main_unc	True	0.0	950	0	1.0	1.0	0.0	1	left	2.0	1.0	1.0	0	-0.0511845311895	blockFiles/set_15/main_unc/leftBlue\GB_LB_3.xlsx
290	main_unc	True	0.0	950	0	1.0	1.0	0.0	1	left	1.0	0.0	0.0	0	-0.014183391295399998	blockFiles/set_15/main_unc/leftBlue\GB_LB_3.xlsx
291	main_unc	True	0.0	950	0	1.0	1.0	1.0	1	right	1.0	1.0	1.0	1	0.07439527573060001	blockFiles/set_15/main_unc/leftBlue\GB_LB_3.xlsx
292	main_unc	True	0.0	950	0	1.0	1.0	1.0	1	right	1.0	1.0	1.0	1	0.034895546995099995	blockFiles/set_15/main_unc/leftBlue\GB_LB_3.xlsx
293	main_unc	True	0.0	950	0	1.0	1.0	0.0	1	left	2.0	0.0	1.0	0	-0.01687152436	blockFiles/set_15/main_unc/leftBlue\GB_LB_3.xlsx
294	main_unc	True	0.0	950	0	1.0	1.0	1.0	1	right	1.0	0.0	1.0	1	0.0661272604577	blockFiles/set_15/main_unc/leftBlue\GB_LB_3.xlsx
295	main_unc	True	0.0	950	0	1.0	1.0	1.0	1	right	1.0	1.0	1.0	1	0.0744870445691	blockFiles/set_15/main_unc/leftBlue\GB_LB_3.xlsx
296	main_unc	True	0.0	950	0	1.0	1.0	1.0	1	right	1.0	1.0	1.0	1	0.018379148580099997	blockFiles/set_15/main_unc/leftBlue\GB_LB_3.xlsx
297	main_unc	True	0.0	950	0	1.0	1.0	1.0	1	right	1.0	1.0	1.0	1	0.0229723141156	blockFiles/set_15/main_unc/leftBlue\GB_LB_3.xlsx
298	main_unc	True	0.0	950	0	1.0	1.0	0.0	1	left	2.0	1.0	1.0	0	-0.0389756088704	blockFiles/set_15/main_unc/leftBlue\GB_LB_3.xlsx
299	main_unc	True	0.0	950	0	1.0	1.0	0.0	1	left	2.0	0.0	1.0	0	-0.06434656055639999	blockFiles/set_15/main_unc/leftBlue\GB_LB_3.xlsx
300	main_unc	True	0.0	950	0	1.0	1.0	0.0	1	left	2.0	1.0	1.0	0	-0.0258639409579	blockFiles/set_15/main_unc/leftBlue\GB_LB_3.xlsx
301	main_unc	True	0.0	950	0	1.0	1.0	0.0	1	left	2.0	0.0	1.0	0	-0.0612075744197	blockFiles/set_15/main_unc/leftBlue\GB_LB_3.xlsx
302	main_unc	True	0.0	950	0	1.0	1.0	1.0	1	right	1.0	1.0	1.0	1	0.018723407685799998	blockFiles/set_15/main_unc/leftBlue\GB_LB_3.xlsx
303	main_unc	True	0.0	950	0	2.0	2.0	1.0	1	right	1.0	1.0	1.0	1	0.0590252907202	blockFiles/set_15/main_unc/leftBlue\GB_LB_5.xlsx
304	main_unc	True	0.0	950	0	2.0	2.0	0.0	1	left	2.0	0.0	1.0	0	-0.0555918798596	blockFiles/set_15/main_unc/leftBlue\GB_LB_5.xlsx
305	main_unc	True	0.0	950	0	2.0	2.0	0.0	1	left	1.0	0.0	0.0	0	-0.0635413940065	blockFiles/set_15/main_unc/leftBlue\GB_LB_5.xlsx
306	main_unc	True	0.0	950	0	2.0	2.0	0.0	0	left	2.0	0.0	0.0	1	0.00445671053603	blockFiles/set_15/main_unc/leftBlue\GB_LB_5.xlsx
307	main_unc	True	0.0	950	0	2.0	2.0	0.0	1	left	1.0	0.0	0.0	0	-0.021685219090400002	blockFiles/set_15/main_unc/leftBlue\GB_LB_5.xlsx
308	main_unc	True	0.0	950	0	2.0	2.0	0.0	1	left	2.0	1.0	1.0	0	-0.013078007269700003	blockFiles/set_15/main_unc/leftBlue\GB_LB_5.xlsx
309	main_unc	True	0.0	950	0	2.0	2.0	0.0	1	left	2.0	1.0	1.0	0	-0.0752470071241	blockFiles/set_15/main_unc/leftBlue\GB_LB_5.xlsx
310	main_unc	True	1.0	950	0	2.0	2.0	n/a	0	None	n/a	0.0	n/a	1	0.015111333429799999	blockFiles/set_15/main_unc/leftBlue\GB_LB_5.xlsx
311	main_unc	True	0.0	950	0	2.0	2.0	0.0	1	left	2.0	1.0	1.0	0	-0.025947348773500002	blockFiles/set_15/main_unc/leftBlue\GB_LB_5.xlsx
312	main_unc	True	0.0	950	0	2.0	2.0	0.0	1	left	2.0	1.0	1.0	0	-0.0717812395468	blockFiles/set_15/main_unc/leftBlue\GB_LB_5.xlsx
313	main_unc	True	0.0	950	0	2.0	2.0	1.0	1	right	1.0	1.0	1.0	1	0.031767977774099995	blockFiles/set_15/main_unc/leftBlue\GB_LB_5.xlsx
314	main_unc	True	0.0	950	0	2.0	2.0	1.0	1	right	1.0	1.0	1.0	1	0.030986737180499997	blockFiles/set_15/main_unc/leftBlue\GB_LB_5.xlsx
315	main_unc	True	0.0	950	0	2.0	2.0	1.0	0	right	2.0	1.0	1.0	0	-0.0218628051132	blockFiles/set_15/main_unc/leftBlue\GB_LB_5.xlsx
316	main_unc	True	0.0	950	0	2.0	2.0	1.0	1	right	1.0	1.0	1.0	1	0.011884144358299998	blockFiles/set_15/main_unc/leftBlue\GB_LB_5.xlsx
317	main_unc	True	0.0	950	0	2.0	2.0	1.0	1	right	1.0	0.0	1.0	1	0.0709618811123	blockFiles/set_15/main_unc/leftBlue\GB_LB_5.xlsx
318	main_unc	True	0.0	950	0	2.0	2.0	1.0	1	right	1.0	1.0	1.0	1	0.0795041487552	blockFiles/set_15/main_unc/leftBlue\GB_LB_5.xlsx
319	main_unc	True	0.0	950	0	2.0	2.0	1.0	1	right	1.0	1.0	1.0	1	0.0394535958953	blockFiles/set_15/main_unc/leftBlue\GB_LB_5.xlsx
320	main_unc	True	1.0	950	0	2.0	2.0	n/a	0	None	n/a	0.0	n/a	0	-0.0169625841454	blockFiles/set_15/main_unc/leftBlue\GB_LB_5.xlsx
321	main_unc	True	0.0	950	0	2.0	2.0	0.0	1	left	2.0	1.0	1.0	0	-0.0665569037944	blockFiles/set_15/main_unc/leftBlue\GB_LB_5.xlsx
322	main_unc	True	0.0	950	0	2.0	2.0	0.0	1	left	2.0	1.0	1.0	0	-0.0449600745924	blockFiles/set_15/main_unc/leftBlue\GB_LB_5.xlsx
323	main_unc	True	0.0	950	0	2.0	2.0	1.0	1	right	1.0	1.0	1.0	1	0.0661741328426	blockFiles/set_15/main_unc/leftBlue\GB_LB_5.xlsx
324	main_unc	True	0.0	950	0	2.0	2.0	0.0	1	left	2.0	1.0	1.0	0	-0.012319876048700001	blockFiles/set_15/main_unc/leftBlue\GB_LB_5.xlsx
325	main_unc	True	0.0	950	0	2.0	2.0	1.0	1	right	1.0	0.0	1.0	1	0.0237825820968	blockFiles/set_15/main_unc/leftBlue\GB_LB_5.xlsx
326	main_unc	True	0.0	950	0	2.0	2.0	0.0	1	left	2.0	1.0	1.0	0	-0.0305954959244	blockFiles/set_15/main_unc/leftBlue\GB_LB_5.xlsx
327	main_unc	True	0.0	950	0	2.0	2.0	0.0	1	left	2.0	0.0	1.0	0	-0.0430950126424	blockFiles/set_15/main_unc/leftBlue\GB_LB_5.xlsx
328	main_unc	True	0.0	950	0	2.0	2.0	1.0	1	right	1.0	0.0	1.0	1	0.015111333429799999	blockFiles/set_15/main_unc/leftBlue\GB_LB_5.xlsx
329	main_unc	True	0.0	950	0	2.0	2.0	0.0	1	left	2.0	1.0	1.0	0	-0.0169625841454	blockFiles/set_15/main_unc/leftBlue\GB_LB_5.xlsx
330	main_unc	True	0.0	950	0	3.0	3.0	0.0	1	left	1.0	1.0	1.0	0	-0.014595315773	blockFiles/set_15/main_unc/rightBlue\GB_RB_2.xlsx
331	main_unc	True	0.0	950	0	3.0	3.0	0.0	1	left	1.0	0.0	1.0	0	-0.052777505219	blockFiles/set_15/main_unc/rightBlue\GB_RB_2.xlsx
332	main_unc	True	0.0	950	0	3.0	3.0	1.0	1	right	1.0	0.0	0.0	1	0.0321281915344	blockFiles/set_15/main_unc/rightBlue\GB_RB_2.xlsx
333	main_unc	True	0.0	950	0	3.0	3.0	1.0	1	right	2.0	1.0	1.0	1	0.0676652273722	blockFiles/set_15/main_unc/rightBlue\GB_RB_2.xlsx
334	main_unc	True	0.0	950	0	3.0	3.0	0.0	1	left	1.0	1.0	1.0	0	-0.036688953712599996	blockFiles/set_15/main_unc/rightBlue\GB_RB_2.xlsx
335	main_unc	True	0.0	950	0	3.0	3.0	0.0	1	left	1.0	1.0	1.0	0	-0.0654305615276	blockFiles/set_15/main_unc/rightBlue\GB_RB_2.xlsx
336	main_unc	True	0.0	950	0	3.0	3.0	1.0	1	right	2.0	1.0	1.0	1	0.047743992582	blockFiles/set_15/main_unc/rightBlue\GB_RB_2.xlsx
337	main_unc	True	0.0	950	0	3.0	3.0	1.0	1	right	2.0	0.0	1.0	1	0.025321220103700002	blockFiles/set_15/main_unc/rightBlue\GB_RB_2.xlsx
338	main_unc	True	0.0	950	0	3.0	3.0	0.0	1	left	1.0	1.0	1.0	0	-0.047132063917800004	blockFiles/set_15/main_unc/rightBlue\GB_RB_2.xlsx
339	main_unc	True	0.0	950	0	3.0	3.0	0.0	1	left	1.0	1.0	1.0	0	-0.0036998889409	blockFiles/set_15/main_unc/rightBlue\GB_RB_2.xlsx
340	main_unc	True	0.0	950	0	3.0	3.0	1.0	1	right	2.0	1.0	1.0	1	0.07229472167789999	blockFiles/set_15/main_unc/rightBlue\GB_RB_2.xlsx
341	main_unc	True	0.0	950	0	3.0	3.0	1.0	1	right	2.0	1.0	1.0	1	0.0427922032773	blockFiles/set_15/main_unc/rightBlue\GB_RB_2.xlsx
342	main_unc	True	0.0	950	0	3.0	3.0	0.0	1	left	1.0	1.0	1.0	0	-0.0681306906417	blockFiles/set_15/main_unc/rightBlue\GB_RB_2.xlsx
343	main_unc	True	0.0	950	0	3.0	3.0	1.0	1	right	2.0	1.0	1.0	1	0.039361448604599995	blockFiles/set_15/main_unc/rightBlue\GB_RB_2.xlsx
344	main_unc	True	0.0	950	0	3.0	3.0	1.0	1	right	2.0	1.0	1.0	1	0.034881584402199996	blockFiles/set_15/main_unc/rightBlue\GB_RB_2.xlsx
345	main_unc	True	0.0	950	0	3.0	3.0	1.0	1	right	2.0	0.0	1.0	1	0.0796903163753	blockFiles/set_15/main_unc/rightBlue\GB_RB_2.xlsx
346	main_unc	True	0.0	950	0	3.0	3.0	0.0	1	left	1.0	1.0	1.0	0	-0.0235582995228	blockFiles/set_15/main_unc/rightBlue\GB_RB_2.xlsx
347	main_unc	True	0.0	950	0	3.0	3.0	1.0	1	right	2.0	1.0	1.0	1	0.00110388433561	blockFiles/set_15/main_unc/rightBlue\GB_RB_2.xlsx
348	main_unc	True	0.0	950	0	3.0	3.0	1.0	1	right	2.0	1.0	1.0	1	0.05434515215459999	blockFiles/set_15/main_unc/rightBlue\GB_RB_2.xlsx
349	main_unc	True	0.0	950	0	3.0	3.0	1.0	1	right	2.0	0.0	1.0	1	0.0276701541431	blockFiles/set_15/main_unc/rightBlue\GB_RB_2.xlsx
350	main_unc	True	0.0	950	0	3.0	3.0	0.0	0	left	1.0	1.0	0.0	1	0.00775534039363	blockFiles/set_15/main_unc/rightBlue\GB_RB_2.xlsx
351	main_unc	True	0.0	950	0	3.0	3.0	1.0	0	right	2.0	0.0	0.0	0	-0.0208840467967	blockFiles/set_15/main_unc/rightBlue\GB_RB_2.xlsx
352	main_unc	True	0.0	950	0	3.0	3.0	0.0	1	left	1.0	0.0	1.0	0	-0.0437070239894	blockFiles/set_15/main_unc/rightBlue\GB_RB_2.xlsx
353	main_unc	True	0.0	950	0	3.0	3.0	0.0	1	left	1.0	1.0	1.0	0	-0.0707751234621	blockFiles/set_15/main_unc/rightBlue\GB_RB_2.xlsx
354	main_unc	True	0.0	950	0	3.0	3.0	0.0	1	left	1.0	1.0	1.0	0	-0.06408853664990001	blockFiles/set_15/main_unc/rightBlue\GB_RB_2.xlsx
355	main_unc	True	0.0	950	0	4.0	4.0	1.0	1	right	2.0	0.0	0.0	1	0.0479992772453	blockFiles/set_15/main_unc/leftBlue\GB_LB_2.xlsx
356	main_unc	True	0.0	950	0	4.0	4.0	0.0	1	left	2.0	1.0	1.0	0	-0.069356477242	blockFiles/set_15/main_unc/leftBlue\GB_LB_2.xlsx
357	main_unc	True	1.0	950	0	4.0	4.0	n/a	0	None	n/a	0.0	n/a	0	-0.021855562683200002	blockFiles/set_15/main_unc/leftBlue\GB_LB_2.xlsx
358	main_unc	True	0.0	950	0	4.0	4.0	0.0	1	left	2.0	0.0	1.0	0	-0.041314635183699995	blockFiles/set_15/main_unc/leftBlue\GB_LB_2.xlsx
359	main_unc	True	0.0	950	0	4.0	4.0	1.0	1	right	1.0	1.0	1.0	1	0.061065818555699994	blockFiles/set_15/main_unc/leftBlue\GB_LB_2.xlsx
360	main_unc	True	0.0	950	0	4.0	4.0	1.0	1	right	1.0	1.0	1.0	1	0.0131864404306	blockFiles/set_15/main_unc/leftBlue\GB_LB_2.xlsx
361	main_unc	True	0.0	950	0	4.0	4.0	1.0	1	right	1.0	1.0	1.0	1	0.04369471680369999	blockFiles/set_15/main_unc/leftBlue\GB_LB_2.xlsx
362	main_unc	True	0.0	950	0	4.0	4.0	0.0	1	left	2.0	0.0	1.0	0	-0.0322113427706	blockFiles/set_15/main_unc/leftBlue\GB_LB_2.xlsx
363	main_unc	True	0.0	950	0	4.0	4.0	0.0	1	left	2.0	1.0	1.0	0	-0.0656020285748	blockFiles/set_15/main_unc/leftBlue\GB_LB_2.xlsx
364	main_unc	True	0.0	950	0	4.0	4.0	1.0	1	right	1.0	1.0	1.0	1	0.021736313626200002	blockFiles/set_15/main_unc/leftBlue\GB_LB_2.xlsx
365	main_unc	True	0.0	950	0	4.0	4.0	0.0	1	left	2.0	1.0	1.0	0	-0.059128350541000005	blockFiles/set_15/main_unc/leftBlue\GB_LB_2.xlsx
366	main_unc	True	0.0	950	0	4.0	4.0	1.0	1	right	1.0	1.0	1.0	1	0.052825483717	blockFiles/set_15/main_unc/leftBlue\GB_LB_2.xlsx
367	main_unc	True	0.0	950	0	4.0	4.0	0.0	1	left	2.0	1.0	1.0	0	-0.00940429732203	blockFiles/set_15/main_unc/leftBlue\GB_LB_2.xlsx
368	main_unc	True	0.0	950	0	4.0	4.0	0.0	1	left	2.0	1.0	1.0	0	-0.0366293342598	blockFiles/set_15/main_unc/leftBlue\GB_LB_2.xlsx
369	main_unc	True	0.0	950	0	4.0	4.0	0.0	1	left	2.0	1.0	1.0	0	-0.0626438995451	blockFiles/set_15/main_unc/leftBlue\GB_LB_2.xlsx
370	main_unc	True	0.0	950	0	4.0	4.0	0.0	1	left	2.0	1.0	1.0	0	-0.0367678178661	blockFiles/set_15/main_unc/leftBlue\GB_LB_2.xlsx
371	main_unc	True	0.0	950	0	4.0	4.0	1.0	1	right	1.0	0.0	1.0	1	0.07867653226480001	blockFiles/set_15/main_unc/leftBlue\GB_LB_2.xlsx
372	main_unc	True	0.0	950	0	4.0	4.0	1.0	1	right	1.0	1.0	1.0	1	0.027100471109199997	blockFiles/set_15/main_unc/leftBlue\GB_LB_2.xlsx
373	main_unc	True	0.0	950	0	4.0	4.0	1.0	1	right	1.0	1.0	1.0	1	0.0629317755811	blockFiles/set_15/main_unc/leftBlue\GB_LB_2.xlsx
374	main_unc	True	0.0	950	0	4.0	4.0	1.0	1	right	1.0	1.0	1.0	1	0.061191836148499996	blockFiles/set_15/main_unc/leftBlue\GB_LB_2.xlsx
375	main_unc	True	0.0	950	0	4.0	4.0	1.0	0	right	2.0	1.0	1.0	0	-0.012259096857200003	blockFiles/set_15/main_unc/leftBlue\GB_LB_2.xlsx
376	main_unc	True	0.0	950	0	4.0	4.0	1.0	1	right	1.0	1.0	1.0	1	0.050104507785300005	blockFiles/set_15/main_unc/leftBlue\GB_LB_2.xlsx
377	main_unc	True	0.0	950	0	4.0	4.0	0.0	1	left	2.0	0.0	1.0	0	-0.0034925612434699997	blockFiles/set_15/main_unc/leftBlue\GB_LB_2.xlsx
378	main_unc	True	0.0	950	0	4.0	4.0	0.0	1	left	2.0	1.0	1.0	0	-0.0764247751795	blockFiles/set_15/main_unc/leftBlue\GB_LB_2.xlsx
379	main_unc	True	0.0	950	0	4.0	4.0	1.0	1	right	1.0	1.0	1.0	1	0.0328381057642	blockFiles/set_15/main_unc/leftBlue\GB_LB_2.xlsx
380	main_unc	True	0.0	950	0	4.0	4.0	0.0	1	left	2.0	0.0	1.0	0	-0.021855562683200002	blockFiles/set_15/main_unc/leftBlue\GB_LB_2.xlsx
381	main_unc	True	0.0	950	0	5.0	5.0	1.0	1	right	1.0	0.0	0.0	1	0.0679808630794	blockFiles/set_15/main_unc/rightBlue\GB_RB_5.xlsx
382	main_unc	True	0.0	950	0	5.0	5.0	1.0	1	right	2.0	1.0	1.0	1	0.0294175064564	blockFiles/set_15/main_unc/rightBlue\GB_RB_5.xlsx
383	main_unc	True	0.0	950	0	5.0	5.0	0.0	1	left	1.0	1.0	1.0	0	-0.004881699047979999	blockFiles/set_15/main_unc/rightBlue\GB_RB_5.xlsx
384	main_unc	True	0.0	950	0	5.0	5.0	0.0	1	left	1.0	1.0	1.0	0	-0.0174491034262	blockFiles/set_15/main_unc/rightBlue\GB_RB_5.xlsx
385	main_unc	True	0.0	950	0	5.0	5.0	1.0	1	right	2.0	0.0	1.0	1	0.0634091013484	blockFiles/set_15/main_unc/rightBlue\GB_RB_5.xlsx
386	main_unc	True	0.0	950	0	5.0	5.0	0.0	1	left	1.0	0.0	1.0	0	-0.0402922545373	blockFiles/set_15/main_unc/rightBlue\GB_RB_5.xlsx
387	main_unc	True	0.0	950	0	5.0	5.0	1.0	1	right	2.0	1.0	1.0	1	0.06998679509389999	blockFiles/set_15/main_unc/rightBlue\GB_RB_5.xlsx
388	main_unc	True	0.0	950	0	5.0	5.0	1.0	1	right	2.0	1.0	1.0	1	0.0482421797514	blockFiles/set_15/main_unc/rightBlue\GB_RB_5.xlsx
389	main_unc	True	0.0	950	0	5.0	5.0	1.0	1	right	2.0	1.0	1.0	1	0.038094453569499996	blockFiles/set_15/main_unc/rightBlue\GB_RB_5.xlsx
390	main_unc	True	0.0	950	0	5.0	5.0	0.0	1	left	1.0	1.0	1.0	0	-0.022164684925199997	blockFiles/set_15/main_unc/rightBlue\GB_RB_5.xlsx
391	main_unc	True	0.0	950	0	5.0	5.0	0.0	1	left	1.0	1.0	1.0	0	-0.041575925014900005	blockFiles/set_15/main_unc/rightBlue\GB_RB_5.xlsx
392	main_unc	True	0.0	950	0	5.0	5.0	1.0	1	right	2.0	0.0	1.0	1	0.0580200208537	blockFiles/set_15/main_unc/rightBlue\GB_RB_5.xlsx
393	main_unc	True	0.0	950	0	5.0	5.0	1.0	1	right	2.0	1.0	1.0	1	0.0737088396586	blockFiles/set_15/main_unc/rightBlue\GB_RB_5.xlsx
394	main_unc	True	1.0	950	0	5.0	5.0	n/a	0	None	n/a	0.0	n/a	0	-0.026132248491	blockFiles/set_15/main_unc/rightBlue\GB_RB_5.xlsx
395	main_unc	True	0.0	950	0	5.0	5.0	0.0	1	left	1.0	1.0	1.0	0	-0.00130327865481	blockFiles/set_15/main_unc/rightBlue\GB_RB_5.xlsx
396	main_unc	True	0.0	950	0	5.0	5.0	1.0	1	right	2.0	1.0	1.0	1	0.00129083169624	blockFiles/set_15/main_unc/rightBlue\GB_RB_5.xlsx
397	main_unc	True	0.0	950	0	5.0	5.0	1.0	1	right	2.0	0.0	1.0	1	0.0687312302925	blockFiles/set_15/main_unc/rightBlue\GB_RB_5.xlsx
398	main_unc	True	0.0	950	0	5.0	5.0	0.0	1	left	1.0	1.0	1.0	0	-0.0525832573511	blockFiles/set_15/main_unc/rightBlue\GB_RB_5.xlsx
399	main_unc	True	0.0	950	0	5.0	5.0	0.0	1	left	1.0	1.0	1.0	0	-0.0346683970653	blockFiles/set_15/main_unc/rightBlue\GB_RB_5.xlsx
400	main_unc	True	0.0	950	0	5.0	5.0	0.0	1	left	1.0	1.0	1.0	0	-0.0580712047406	blockFiles/set_15/main_unc/rightBlue\GB_RB_5.xlsx
401	main_unc	True	0.0	950	0	5.0	5.0	1.0	1	right	2.0	1.0	1.0	1	0.0724460335448	blockFiles/set_15/main_unc/rightBlue\GB_RB_5.xlsx
402	main_unc	True	0.0	950	0	5.0	5.0	1.0	1	right	2.0	1.0	1.0	1	0.046751153208300006	blockFiles/set_15/main_unc/rightBlue\GB_RB_5.xlsx
403	main_unc	True	0.0	950	0	5.0	5.0	1.0	0	right	1.0	1.0	1.0	0	-0.0203290995397	blockFiles/set_15/main_unc/rightBlue\GB_RB_5.xlsx
404	main_unc	True	0.0	950	0	5.0	5.0	0.0	1	left	1.0	1.0	1.0	0	-0.031625905334900006	blockFiles/set_15/main_unc/rightBlue\GB_RB_5.xlsx
405	main_unc	True	0.0	950	0	5.0	5.0	0.0	1	left	1.0	1.0	1.0	0	-0.0178110438213	blockFiles/set_15/main_unc/rightBlue\GB_RB_5.xlsx
406	main_unc	True	0.0	950	0	5.0	5.0	0.0	1	left	1.0	1.0	1.0	0	-0.026132248491	blockFiles/set_15/main_unc/rightBlue\GB_RB_5.xlsx
407	main_unc	True	0.0	950	0	6.0	6.0	0.0	1	left	2.0	1.0	1.0	0	-0.0151543205045	blockFiles/set_15/main_unc/leftBlue\GB_LB_6.xlsx
408	main_unc	True	0.0	950	0	6.0	6.0	0.0	1	left	1.0	0.0	0.0	0	-0.05326642019669999	blockFiles/set_15/main_unc/leftBlue\GB_LB_6.xlsx
409	main_unc	True	0.0	950	0	6.0	6.0	0.0	1	left	1.0	0.0	0.0	0	-0.0409642767906	blockFiles/set_15/main_unc/leftBlue\GB_LB_6.xlsx
410	main_unc	True	0.0	950	0	6.0	6.0	1.0	1	right	1.0	1.0	1.0	1	0.0374997575022	blockFiles/set_15/main_unc/leftBlue\GB_LB_6.xlsx
411	main_unc	True	0.0	950	0	6.0	6.0	1.0	1	right	1.0	1.0	1.0	1	0.060136192906599995	blockFiles/set_15/main_unc/leftBlue\GB_LB_6.xlsx
412	main_unc	True	0.0	950	0	6.0	6.0	0.0	1	left	2.0	1.0	1.0	0	-0.0762654957548	blockFiles/set_15/main_unc/leftBlue\GB_LB_6.xlsx
413	main_unc	True	0.0	950	0	6.0	6.0	0.0	1	left	2.0	1.0	1.0	0	-0.0402805618756	blockFiles/set_15/main_unc/leftBlue\GB_LB_6.xlsx
414	main_unc	True	0.0	950	0	6.0	6.0	0.0	1	left	2.0	0.0	1.0	0	-0.0006905675306919999	blockFiles/set_15/main_unc/leftBlue\GB_LB_6.xlsx
415	main_unc	True	0.0	950	0	6.0	6.0	0.0	1	left	2.0	0.0	1.0	0	-0.00434764105827	blockFiles/set_15/main_unc/leftBlue\GB_LB_6.xlsx
416	main_unc	True	0.0	950	0	6.0	6.0	0.0	1	left	2.0	1.0	1.0	0	-0.054117904789699994	blockFiles/set_15/main_unc/leftBlue\GB_LB_6.xlsx
417	main_unc	True	0.0	950	0	6.0	6.0	0.0	1	left	2.0	1.0	1.0	0	-0.055318228974900005	blockFiles/set_15/main_unc/leftBlue\GB_LB_6.xlsx
418	main_unc	True	0.0	950	0	6.0	6.0	0.0	1	left	2.0	1.0	1.0	0	-0.0489581745677	blockFiles/set_15/main_unc/leftBlue\GB_LB_6.xlsx
419	main_unc	True	0.0	950	0	6.0	6.0	1.0	1	right	1.0	0.0	1.0	1	0.0501078731194	blockFiles/set_15/main_unc/leftBlue\GB_LB_6.xlsx
420	main_unc	True	0.0	950	0	6.0	6.0	0.0	1	left	2.0	1.0	1.0	0	-0.064825823959	blockFiles/set_15/main_unc/leftBlue\GB_LB_6.xlsx
421	main_unc	True	0.0	950	0	6.0	6.0	1.0	1	right	1.0	1.0	1.0	1	0.0431016047671	blockFiles/set_15/main_unc/leftBlue\GB_LB_6.xlsx
422	main_unc	True	0.0	950	0	6.0	6.0	0.0	1	left	2.0	1.0	1.0	0	-0.0105083594471	blockFiles/set_15/main_unc/leftBlue\GB_LB_6.xlsx
423	main_unc	True	0.0	950	0	6.0	6.0	1.0	1	right	1.0	1.0	1.0	1	0.0203336772509	blockFiles/set_15/main_unc/leftBlue\GB_LB_6.xlsx
424	main_unc	True	0.0	950	0	6.0	6.0	1.0	1	right	1.0	0.0	1.0	1	0.0485620922782	blockFiles/set_15/main_unc/leftBlue\GB_LB_6.xlsx
425	main_unc	True	0.0	950	0	6.0	6.0	1.0	1	right	1.0	1.0	1.0	1	0.0654526567645	blockFiles/set_15/main_unc/leftBlue\GB_LB_6.xlsx
426	main_unc	True	0.0	950	0	6.0	6.0	1.0	1	right	1.0	0.0	1.0	1	0.0755620676652	blockFiles/set_15/main_unc/leftBlue\GB_LB_6.xlsx
427	main_unc	True	0.0	950	0	6.0	6.0	1.0	0	right	2.0	1.0	1.0	0	-0.0041124455072	blockFiles/set_15/main_unc/leftBlue\GB_LB_6.xlsx
428	main_unc	True	0.0	950	0	6.0	6.0	1.0	1	right	1.0	1.0	1.0	1	0.0719370661862	blockFiles/set_15/main_unc/leftBlue\GB_LB_6.xlsx
429	main_unc	True	0.0	950	0	6.0	6.0	1.0	1	right	1.0	1.0	1.0	1	0.050101552642900005	blockFiles/set_15/main_unc/leftBlue\GB_LB_6.xlsx
430	main_unc	True	0.0	950	0	6.0	6.0	1.0	1	right	1.0	1.0	1.0	1	0.0015176743082700001	blockFiles/set_15/main_unc/leftBlue\GB_LB_6.xlsx
431	main_unc	True	0.0	950	0	6.0	6.0	0.0	0	left	2.0	0.0	0.0	1	0.018697196971599998	blockFiles/set_15/main_unc/leftBlue\GB_LB_6.xlsx
432	main_unc	True	0.0	950	0	7.0	7.0	0.0	1	left	1.0	1.0	1.0	0	-0.0524496893026	blockFiles/set_15/main_unc/rightBlue\GB_RB_6.xlsx
433	main_unc	True	0.0	950	0	7.0	7.0	0.0	1	left	1.0	1.0	1.0	0	-0.015450940076299999	blockFiles/set_15/main_unc/rightBlue\GB_RB_6.xlsx
434	main_unc	True	0.0	950	0	7.0	7.0	0.0	1	left	1.0	1.0	1.0	0	-0.0612209414877	blockFiles/set_15/main_unc/rightBlue\GB_RB_6.xlsx
435	main_unc	True	0.0	950	0	7.0	7.0	1.0	1	right	2.0	1.0	1.0	1	0.028872930929099996	blockFiles/set_15/main_unc/rightBlue\GB_RB_6.xlsx
436	main_unc	True	0.0	950	0	7.0	7.0	1.0	1	right	2.0	1.0	1.0	1	0.0146416400373	blockFiles/set_15/main_unc/rightBlue\GB_RB_6.xlsx
437	main_unc	True	0.0	950	0	7.0	7.0	1.0	1	right	2.0	1.0	1.0	1	0.0585002980009	blockFiles/set_15/main_unc/rightBlue\GB_RB_6.xlsx
438	main_unc	True	0.0	950	0	7.0	7.0	0.0	1	left	1.0	1.0	1.0	0	-0.00658262772486	blockFiles/set_15/main_unc/rightBlue\GB_RB_6.xlsx
439	main_unc	True	0.0	950	0	7.0	7.0	0.0	1	left	1.0	0.0	1.0	0	-0.024035716317599997	blockFiles/set_15/main_unc/rightBlue\GB_RB_6.xlsx
440	main_unc	True	0.0	950	0	7.0	7.0	0.0	1	left	1.0	1.0	1.0	0	-0.0646189411171	blockFiles/set_15/main_unc/rightBlue\GB_RB_6.xlsx
441	main_unc	True	0.0	950	0	7.0	7.0	1.0	0	right	1.0	1.0	1.0	0	-0.036298951041	blockFiles/set_15/main_unc/rightBlue\GB_RB_6.xlsx
442	main_unc	True	0.0	950	0	7.0	7.0	1.0	1	right	2.0	1.0	1.0	1	0.0785215837695	blockFiles/set_15/main_unc/rightBlue\GB_RB_6.xlsx
443	main_unc	True	0.0	950	0	7.0	7.0	0.0	0	left	1.0	0.0	0.0	1	0.0013307224214099999	blockFiles/set_15/main_unc/rightBlue\GB_RB_6.xlsx
444	main_unc	True	0.0	950	0	7.0	7.0	1.0	1	right	2.0	1.0	1.0	1	0.046544786207400005	blockFiles/set_15/main_unc/rightBlue\GB_RB_6.xlsx
445	main_unc	True	0.0	950	0	7.0	7.0	1.0	1	right	2.0	0.0	1.0	1	0.0774426833354	blockFiles/set_15/main_unc/rightBlue\GB_RB_6.xlsx
446	main_unc	True	0.0	950	0	7.0	7.0	0.0	1	left	1.0	1.0	1.0	0	-0.0216102734208	blockFiles/set_15/main_unc/rightBlue\GB_RB_6.xlsx
447	main_unc	True	0.0	950	0	7.0	7.0	0.0	1	left	1.0	1.0	1.0	0	-0.052038692385	blockFiles/set_15/main_unc/rightBlue\GB_RB_6.xlsx
448	main_unc	True	0.0	950	0	7.0	7.0	0.0	1	left	1.0	1.0	1.0	0	-0.024004791975	blockFiles/set_15/main_unc/rightBlue\GB_RB_6.xlsx
449	main_unc	True	0.0	950	0	7.0	7.0	0.0	0	left	2.0	0.0	1.0	1	0.00530413843691	blockFiles/set_15/main_unc/rightBlue\GB_RB_6.xlsx
450	main_unc	True	0.0	950	0	7.0	7.0	1.0	1	right	2.0	0.0	1.0	1	0.0303066128492	blockFiles/set_15/main_unc/rightBlue\GB_RB_6.xlsx
451	main_unc	True	0.0	950	0	7.0	7.0	1.0	1	right	2.0	1.0	1.0	1	0.053350000791300006	blockFiles/set_15/main_unc/rightBlue\GB_RB_6.xlsx
452	main_unc	True	0.0	950	0	7.0	7.0	1.0	1	right	2.0	1.0	1.0	1	0.058731548953800006	blockFiles/set_15/main_unc/rightBlue\GB_RB_6.xlsx
453	main_unc	True	0.0	950	0	7.0	7.0	1.0	1	right	2.0	1.0	1.0	1	0.0173916201852	blockFiles/set_15/main_unc/rightBlue\GB_RB_6.xlsx
454	main_unc	True	0.0	950	0	7.0	7.0	1.0	1	right	2.0	1.0	1.0	1	0.040734021328400004	blockFiles/set_15/main_unc/rightBlue\GB_RB_6.xlsx
455	main_unc	True	0.0	950	0	7.0	7.0	0.0	1	left	1.0	1.0	1.0	0	-0.0228190174885	blockFiles/set_15/main_unc/rightBlue\GB_RB_6.xlsx
456	main_unc	True	0.0	950	0	7.0	7.0	1.0	1	right	2.0	0.0	1.0	1	0.044654545858500004	blockFiles/set_15/main_unc/rightBlue\GB_RB_6.xlsx
457	main_unc	True	1.0	950	0	8.0	8.0	n/a	0	None	n/a	0.0	n/a	1	0.0243225108832	blockFiles/set_15/main_unc/leftBlue\GB_LB_1.xlsx
458	main_unc	True	0.0	950	0	8.0	8.0	0.0	1	left	2.0	1.0	1.0	0	-0.0329771309532	blockFiles/set_15/main_unc/leftBlue\GB_LB_1.xlsx
459	main_unc	True	0.0	950	0	8.0	8.0	1.0	1	right	1.0	1.0	1.0	1	0.007993917670100001	blockFiles/set_15/main_unc/leftBlue\GB_LB_1.xlsx
460	main_unc	True	0.0	950	0	8.0	8.0	0.0	1	left	2.0	1.0	1.0	0	-0.0448674586602	blockFiles/set_15/main_unc/leftBlue\GB_LB_1.xlsx
461	main_unc	True	0.0	950	0	8.0	8.0	0.0	1	left	2.0	1.0	1.0	0	-0.0403431376256	blockFiles/set_15/main_unc/leftBlue\GB_LB_1.xlsx
462	main_unc	True	0.0	950	0	8.0	8.0	0.0	1	left	2.0	0.0	1.0	0	-0.0796844839118	blockFiles/set_15/main_unc/leftBlue\GB_LB_1.xlsx
463	main_unc	True	0.0	950	0	8.0	8.0	1.0	1	right	1.0	1.0	1.0	1	0.0224101383612	blockFiles/set_15/main_unc/leftBlue\GB_LB_1.xlsx
464	main_unc	True	0.0	950	0	8.0	8.0	0.0	1	left	2.0	1.0	1.0	0	-0.0161864175089	blockFiles/set_15/main_unc/leftBlue\GB_LB_1.xlsx
465	main_unc	True	0.0	950	0	8.0	8.0	0.0	1	left	2.0	1.0	1.0	0	-0.0319259741344	blockFiles/set_15/main_unc/leftBlue\GB_LB_1.xlsx
466	main_unc	True	0.0	950	0	8.0	8.0	0.0	1	left	2.0	1.0	1.0	0	-0.0149576247297	blockFiles/set_15/main_unc/leftBlue\GB_LB_1.xlsx
467	main_unc	True	0.0	950	0	8.0	8.0	1.0	1	right	1.0	1.0	1.0	1	0.0418296121992	blockFiles/set_15/main_unc/leftBlue\GB_LB_1.xlsx
468	main_unc	True	0.0	950	0	8.0	8.0	1.0	1	right	1.0	1.0	1.0	1	0.0483627364039	blockFiles/set_15/main_unc/leftBlue\GB_LB_1.xlsx
469	main_unc	True	0.0	950	0	8.0	8.0	1.0	1	right	1.0	1.0	1.0	1	0.0523875619657	blockFiles/set_15/main_unc/leftBlue\GB_LB_1.xlsx
470	main_unc	True	0.0	950	0	8.0	8.0	1.0	1	right	1.0	1.0	1.0	1	0.0472236067057	blockFiles/set_15/main_unc/leftBlue\GB_LB_1.xlsx
471	main_unc	True	0.0	950	0	8.0	8.0	1.0	1	right	1.0	1.0	1.0	1	0.000337827950716	blockFiles/set_15/main_unc/leftBlue\GB_LB_1.xlsx
472	main_unc	True	0.0	950	0	8.0	8.0	1.0	1	right	2.0	1.0	0.0	1	0.018494801987	blockFiles/set_15/main_unc/leftBlue\GB_LB_1.xlsx
473	main_unc	True	0.0	950	0	8.0	8.0	1.0	1	right	1.0	1.0	1.0	1	0.0569823145866	blockFiles/set_15/main_unc/leftBlue\GB_LB_1.xlsx
474	main_unc	True	0.0	950	0	8.0	8.0	1.0	1	right	1.0	1.0	1.0	1	0.0705222665891	blockFiles/set_15/main_unc/leftBlue\GB_LB_1.xlsx
475	main_unc	True	0.0	950	0	8.0	8.0	0.0	1	left	2.0	0.0	1.0	0	-0.0572123931348	blockFiles/set_15/main_unc/leftBlue\GB_LB_1.xlsx
476	main_unc	True	0.0	950	0	8.0	8.0	1.0	1	right	2.0	0.0	0.0	1	0.0165603221394	blockFiles/set_15/main_unc/leftBlue\GB_LB_1.xlsx
477	main_unc	True	0.0	950	0	8.0	8.0	0.0	1	left	2.0	0.0	1.0	0	-0.045756413582699995	blockFiles/set_15/main_unc/leftBlue\GB_LB_1.xlsx
478	main_unc	True	0.0	950	0	8.0	8.0	0.0	0	left	1.0	1.0	1.0	1	0.022227696161700002	blockFiles/set_15/main_unc/leftBlue\GB_LB_1.xlsx
479	main_unc	True	0.0	950	0	8.0	8.0	0.0	1	left	2.0	1.0	1.0	0	-0.0527372320369	blockFiles/set_15/main_unc/leftBlue\GB_LB_1.xlsx
480	main_unc	True	0.0	950	0	8.0	8.0	0.0	1	left	2.0	1.0	1.0	0	-0.029674162827400003	blockFiles/set_15/main_unc/leftBlue\GB_LB_1.xlsx
481	main_unc	True	0.0	950	0	8.0	8.0	0.0	1	left	2.0	1.0	1.0	0	-0.065204567425	blockFiles/set_15/main_unc/leftBlue\GB_LB_1.xlsx
482	main_unc	True	0.0	950	0	8.0	8.0	1.0	1	right	1.0	1.0	1.0	1	0.0243225108832	blockFiles/set_15/main_unc/leftBlue\GB_LB_1.xlsx
483	main_unc	True	0.0	950	0	9.0	9.0	1.0	1	right	1.0	1.0	1.0	1	0.011369975432799998	blockFiles/set_15/main_unc/leftBlue\GB_LB_4.xlsx
484	main_unc	True	0.0	950	0	9.0	9.0	1.0	1	right	1.0	1.0	1.0	1	0.06011968877169999	blockFiles/set_15/main_unc/leftBlue\GB_LB_4.xlsx
485	main_unc	True	0.0	950	0	9.0	9.0	1.0	1	right	1.0	1.0	1.0	1	0.07432165361939999	blockFiles/set_15/main_unc/leftBlue\GB_LB_4.xlsx
486	main_unc	True	1.0	950	0	9.0	9.0	n/a	0	None	n/a	0.0	n/a	1	0.00388037119061	blockFiles/set_15/main_unc/leftBlue\GB_LB_4.xlsx
487	main_unc	True	0.0	950	0	9.0	9.0	0.0	1	left	2.0	0.0	1.0	0	-0.0238013233058	blockFiles/set_15/main_unc/leftBlue\GB_LB_4.xlsx
488	main_unc	True	0.0	950	0	9.0	9.0	0.0	1	left	2.0	0.0	1.0	0	-0.0289850871265	blockFiles/set_15/main_unc/leftBlue\GB_LB_4.xlsx
489	main_unc	True	0.0	950	0	9.0	9.0	0.0	1	left	2.0	1.0	1.0	0	-0.0692392813601	blockFiles/set_15/main_unc/leftBlue\GB_LB_4.xlsx
490	main_unc	True	0.0	950	0	9.0	9.0	0.0	1	left	2.0	1.0	1.0	0	-0.0327456392162	blockFiles/set_15/main_unc/leftBlue\GB_LB_4.xlsx
491	main_unc	True	0.0	950	0	9.0	9.0	0.0	1	left	2.0	0.0	1.0	0	-0.0685902842134	blockFiles/set_15/main_unc/leftBlue\GB_LB_4.xlsx
492	main_unc	True	0.0	950	0	9.0	9.0	1.0	1	right	1.0	1.0	1.0	1	0.023937898073299997	blockFiles/set_15/main_unc/leftBlue\GB_LB_4.xlsx
493	main_unc	True	0.0	950	0	9.0	9.0	1.0	1	right	1.0	1.0	1.0	1	0.0490608960018	blockFiles/set_15/main_unc/leftBlue\GB_LB_4.xlsx
494	main_unc	True	0.0	950	0	9.0	9.0	0.0	1	left	2.0	1.0	1.0	0	-0.0192125253752	blockFiles/set_15/main_unc/leftBlue\GB_LB_4.xlsx
495	main_unc	True	0.0	950	0	9.0	9.0	0.0	1	left	2.0	1.0	1.0	0	-0.0600411645882	blockFiles/set_15/main_unc/leftBlue\GB_LB_4.xlsx
496	main_unc	True	0.0	950	0	9.0	9.0	0.0	1	left	1.0	1.0	0.0	0	-0.00170588003471	blockFiles/set_15/main_unc/leftBlue\GB_LB_4.xlsx
497	main_unc	True	0.0	950	0	9.0	9.0	0.0	0	left	1.0	1.0	1.0	1	0.029919780381	blockFiles/set_15/main_unc/leftBlue\GB_LB_4.xlsx
498	main_unc	True	0.0	950	0	9.0	9.0	1.0	1	right	1.0	0.0	1.0	1	0.0702261703089	blockFiles/set_15/main_unc/leftBlue\GB_LB_4.xlsx
499	main_unc	True	0.0	950	0	9.0	9.0	1.0	1	right	1.0	1.0	1.0	1	0.0292755269818	blockFiles/set_15/main_unc/leftBlue\GB_LB_4.xlsx
500	main_unc	True	0.0	950	0	9.0	9.0	1.0	0	right	2.0	1.0	1.0	0	-0.026407534144799998	blockFiles/set_15/main_unc/leftBlue\GB_LB_4.xlsx
501	main_unc	True	0.0	950	0	9.0	9.0	0.0	1	left	2.0	1.0	1.0	0	-0.062063135374300006	blockFiles/set_15/main_unc/leftBlue\GB_LB_4.xlsx
502	main_unc	True	0.0	950	0	9.0	9.0	0.0	1	left	2.0	0.0	1.0	0	-0.013742873631400001	blockFiles/set_15/main_unc/leftBlue\GB_LB_4.xlsx
503	main_unc	True	0.0	950	0	9.0	9.0	0.0	1	left	2.0	1.0	1.0	0	-0.020619486719400004	blockFiles/set_15/main_unc/leftBlue\GB_LB_4.xlsx
504	main_unc	True	0.0	950	0	9.0	9.0	1.0	1	right	1.0	1.0	1.0	1	0.0665180702694	blockFiles/set_15/main_unc/leftBlue\GB_LB_4.xlsx
505	main_unc	True	0.0	950	0	9.0	9.0	1.0	1	right	1.0	1.0	1.0	1	0.0649247326888	blockFiles/set_15/main_unc/leftBlue\GB_LB_4.xlsx
506	main_unc	True	0.0	950	0	9.0	9.0	0.0	1	left	2.0	1.0	1.0	0	-0.025867060367	blockFiles/set_15/main_unc/leftBlue\GB_LB_4.xlsx
507	main_unc	True	0.0	950	0	9.0	9.0	1.0	1	right	1.0	1.0	1.0	1	0.0634654715471	blockFiles/set_15/main_unc/leftBlue\GB_LB_4.xlsx
508	main_unc	True	0.0	950	0	9.0	9.0	1.0	1	right	1.0	1.0	1.0	1	0.00388037119061	blockFiles/set_15/main_unc/leftBlue\GB_LB_4.xlsx
509	main_unc	True	0.0	950	0	10.0	10.0	0.0	1	left	1.0	1.0	1.0	0	-0.010364736411700002	blockFiles/set_15/main_unc/rightBlue\GB_RB_3.xlsx
510	main_unc	True	0.0	950	0	10.0	10.0	0.0	1	left	1.0	1.0	1.0	0	-0.076876658313	blockFiles/set_15/main_unc/rightBlue\GB_RB_3.xlsx
511	main_unc	True	0.0	950	0	10.0	10.0	1.0	1	right	2.0	0.0	1.0	1	0.00747241294011	blockFiles/set_15/main_unc/rightBlue\GB_RB_3.xlsx
512	main_unc	True	0.0	950	0	10.0	10.0	0.0	1	left	1.0	1.0	1.0	0	-0.06794373141599999	blockFiles/set_15/main_unc/rightBlue\GB_RB_3.xlsx
513	main_unc	True	0.0	950	0	10.0	10.0	1.0	1	right	2.0	0.0	1.0	1	0.0508468908072	blockFiles/set_15/main_unc/rightBlue\GB_RB_3.xlsx
514	main_unc	True	0.0	950	0	10.0	10.0	0.0	1	left	1.0	1.0	1.0	0	-0.0558109431714	blockFiles/set_15/main_unc/rightBlue\GB_RB_3.xlsx
515	main_unc	True	0.0	950	0	10.0	10.0	1.0	1	right	2.0	1.0	1.0	1	0.0287401445583	blockFiles/set_15/main_unc/rightBlue\GB_RB_3.xlsx
516	main_unc	True	0.0	950	0	10.0	10.0	0.0	1	left	1.0	1.0	1.0	0	-0.025799813587199998	blockFiles/set_15/main_unc/rightBlue\GB_RB_3.xlsx
517	main_unc	True	0.0	950	0	10.0	10.0	1.0	1	right	2.0	1.0	1.0	1	0.0448262779787	blockFiles/set_15/main_unc/rightBlue\GB_RB_3.xlsx
518	main_unc	True	0.0	950	0	10.0	10.0	1.0	1	right	2.0	1.0	1.0	1	0.0611384697817	blockFiles/set_15/main_unc/rightBlue\GB_RB_3.xlsx
519	main_unc	True	0.0	950	0	10.0	10.0	0.0	1	left	1.0	1.0	1.0	0	-0.0254313532636	blockFiles/set_15/main_unc/rightBlue\GB_RB_3.xlsx
520	main_unc	True	0.0	950	0	10.0	10.0	0.0	1	left	1.0	1.0	1.0	0	-0.019397108443099997	blockFiles/set_15/main_unc/rightBlue\GB_RB_3.xlsx
521	main_unc	True	0.0	950	0	10.0	10.0	1.0	1	right	2.0	1.0	1.0	1	0.0321974945068	blockFiles/set_15/main_unc/rightBlue\GB_RB_3.xlsx
522	main_unc	True	0.0	950	0	10.0	10.0	1.0	1	right	2.0	1.0	1.0	1	0.0601662053168	blockFiles/set_15/main_unc/rightBlue\GB_RB_3.xlsx
523	main_unc	True	0.0	950	0	10.0	10.0	0.0	1	left	1.0	1.0	1.0	0	-0.0321863807365	blockFiles/set_15/main_unc/rightBlue\GB_RB_3.xlsx
524	main_unc	True	0.0	950	0	10.0	10.0	0.0	1	left	1.0	1.0	1.0	0	-0.0534650470689	blockFiles/set_15/main_unc/rightBlue\GB_RB_3.xlsx
525	main_unc	True	0.0	950	0	10.0	10.0	1.0	1	right	2.0	1.0	1.0	1	0.0747868725099	blockFiles/set_15/main_unc/rightBlue\GB_RB_3.xlsx
526	main_unc	True	0.0	950	0	10.0	10.0	0.0	0	left	2.0	0.0	1.0	1	0.015350093115100001	blockFiles/set_15/main_unc/rightBlue\GB_RB_3.xlsx
527	main_unc	True	0.0	950	0	10.0	10.0	1.0	1	right	2.0	1.0	1.0	1	0.0489576654136	blockFiles/set_15/main_unc/rightBlue\GB_RB_3.xlsx
528	main_unc	True	0.0	950	0	10.0	10.0	1.0	1	right	1.0	0.0	0.0	1	0.0264171919599	blockFiles/set_15/main_unc/rightBlue\GB_RB_3.xlsx
529	main_unc	True	0.0	950	0	10.0	10.0	1.0	1	right	2.0	1.0	1.0	1	0.0380320676416	blockFiles/set_15/main_unc/rightBlue\GB_RB_3.xlsx
530	main_unc	True	0.0	950	0	10.0	10.0	0.0	1	left	1.0	0.0	1.0	0	-0.0643513037823	blockFiles/set_15/main_unc/rightBlue\GB_RB_3.xlsx
531	main_unc	True	0.0	950	0	10.0	10.0	0.0	1	left	1.0	1.0	1.0	0	-0.0575565524027	blockFiles/set_15/main_unc/rightBlue\GB_RB_3.xlsx
532	main_unc	True	0.0	950	0	10.0	10.0	0.0	1	left	1.0	1.0	1.0	0	-0.0605089090951	blockFiles/set_15/main_unc/rightBlue\GB_RB_3.xlsx
533	main_unc	True	0.0	950	0	10.0	10.0	1.0	1	right	2.0	1.0	1.0	1	0.0666701530479	blockFiles/set_15/main_unc/rightBlue\GB_RB_3.xlsx
534	main_unc	True	0.0	950	0	11.0	11.0	0.0	1	left	1.0	1.0	1.0	0	-0.046553021799800004	blockFiles/set_15/main_unc/rightBlue\GB_RB_4.xlsx
535	main_unc	True	0.0	950	0	11.0	11.0	1.0	1	right	2.0	1.0	1.0	1	0.0483494017459	blockFiles/set_15/main_unc/rightBlue\GB_RB_4.xlsx
536	main_unc	True	0.0	950	0	11.0	11.0	1.0	1	right	2.0	1.0	1.0	1	0.0442524460703	blockFiles/set_15/main_unc/rightBlue\GB_RB_4.xlsx
537	main_unc	True	0.0	950	0	11.0	11.0	1.0	1	right	2.0	1.0	1.0	1	0.014979140758499999	blockFiles/set_15/main_unc/rightBlue\GB_RB_4.xlsx
538	main_unc	True	0.0	950	0	11.0	11.0	1.0	1	right	2.0	1.0	1.0	1	0.06611755713819999	blockFiles/set_15/main_unc/rightBlue\GB_RB_4.xlsx
539	main_unc	True	0.0	950	0	11.0	11.0	1.0	1	right	2.0	1.0	1.0	1	0.030566823612900005	blockFiles/set_15/main_unc/rightBlue\GB_RB_4.xlsx
540	main_unc	True	0.0	950	0	11.0	11.0	0.0	1	left	1.0	0.0	1.0	0	-0.0389057940245	blockFiles/set_15/main_unc/rightBlue\GB_RB_4.xlsx
541	main_unc	True	0.0	950	0	11.0	11.0	1.0	1	right	2.0	0.0	1.0	1	0.0116465834901	blockFiles/set_15/main_unc/rightBlue\GB_RB_4.xlsx
542	main_unc	True	0.0	950	0	11.0	11.0	1.0	1	right	1.0	0.0	0.0	1	0.0291595359705	blockFiles/set_15/main_unc/rightBlue\GB_RB_4.xlsx
543	main_unc	True	0.0	950	0	11.0	11.0	1.0	1	right	2.0	1.0	1.0	1	0.0599590013176	blockFiles/set_15/main_unc/rightBlue\GB_RB_4.xlsx
544	main_unc	True	0.0	950	0	11.0	11.0	0.0	1	left	1.0	0.0	1.0	0	-0.038318399321300003	blockFiles/set_15/main_unc/rightBlue\GB_RB_4.xlsx
545	main_unc	True	0.0	950	0	11.0	11.0	0.0	0	left	1.0	0.0	0.0	1	0.018202843870999998	blockFiles/set_15/main_unc/rightBlue\GB_RB_4.xlsx
546	main_unc	True	0.0	950	0	11.0	11.0	0.0	1	left	1.0	1.0	1.0	0	-0.0430373508483	blockFiles/set_15/main_unc/rightBlue\GB_RB_4.xlsx
547	main_unc	True	0.0	950	0	11.0	11.0	0.0	1	left	1.0	1.0	1.0	0	-0.0101749713533	blockFiles/set_15/main_unc/rightBlue\GB_RB_4.xlsx
548	main_unc	True	0.0	950	0	11.0	11.0	0.0	1	left	1.0	1.0	1.0	0	-0.0752655687742	blockFiles/set_15/main_unc/rightBlue\GB_RB_4.xlsx
549	main_unc	True	0.0	950	0	11.0	11.0	1.0	1	right	2.0	0.0	1.0	1	0.017344641089400002	blockFiles/set_15/main_unc/rightBlue\GB_RB_4.xlsx
550	main_unc	True	0.0	950	0	11.0	11.0	0.0	1	left	2.0	0.0	0.0	0	-0.00158788330853	blockFiles/set_15/main_unc/rightBlue\GB_RB_4.xlsx
551	main_unc	True	0.0	950	0	11.0	11.0	0.0	1	left	1.0	1.0	1.0	0	-0.07483605992049999	blockFiles/set_15/main_unc/rightBlue\GB_RB_4.xlsx
552	main_unc	True	0.0	950	0	11.0	11.0	0.0	0	left	2.0	1.0	1.0	1	0.005523625425989999	blockFiles/set_15/main_unc/rightBlue\GB_RB_4.xlsx
553	main_unc	True	0.0	950	0	11.0	11.0	0.0	1	left	1.0	0.0	1.0	0	-0.0466094301827	blockFiles/set_15/main_unc/rightBlue\GB_RB_4.xlsx
554	main_unc	True	0.0	950	0	11.0	11.0	1.0	1	right	2.0	1.0	1.0	1	0.059183984845900005	blockFiles/set_15/main_unc/rightBlue\GB_RB_4.xlsx
555	main_unc	True	0.0	950	0	11.0	11.0	0.0	1	left	1.0	1.0	1.0	0	-0.04693863833319999	blockFiles/set_15/main_unc/rightBlue\GB_RB_4.xlsx
556	main_unc	True	0.0	950	0	11.0	11.0	0.0	1	left	1.0	1.0	1.0	0	-0.0737791606039	blockFiles/set_15/main_unc/rightBlue\GB_RB_4.xlsx
557	main_unc	True	0.0	950	0	11.0	11.0	0.0	1	left	1.0	1.0	1.0	0	-0.0187527147122	blockFiles/set_15/main_unc/rightBlue\GB_RB_4.xlsx
558	main_unc	True	0.0	950	0	11.0	11.0	1.0	1	right	2.0	1.0	1.0	1	0.019656697921500002	blockFiles/set_15/main_unc/rightBlue\GB_RB_4.xlsx
