	trial_type	complete	missIndex	participant	id	blockNumber	b_t	d_t	decision1.corr	decision1.keys	a_t	r_t	decision2.corr	s_t	u_t	block_file
0	main_safe	True	0.0	436	0	0.0	0.0	0.0	1	left	1.0	0.0	0.0	0	-0.08	blockFiles/set_29/main_safe/leftBlue\GB_LB_3.xlsx
1	main_safe	True	0.0	436	0	0.0	0.0	1.0	1	right	1.0	1.0	1.0	1	0.08	blockFiles/set_29/main_safe/leftBlue\GB_LB_3.xlsx
2	main_safe	True	0.0	436	0	0.0	0.0	1.0	1	right	1.0	0.0	1.0	1	0.08	blockFiles/set_29/main_safe/leftBlue\GB_LB_3.xlsx
3	main_safe	True	0.0	436	0	0.0	0.0	0.0	1	left	2.0	1.0	1.0	0	-0.08	blockFiles/set_29/main_safe/leftBlue\GB_LB_3.xlsx
4	main_safe	True	0.0	436	0	0.0	0.0	0.0	1	left	2.0	1.0	1.0	0	-0.08	blockFiles/set_29/main_safe/leftBlue\GB_LB_3.xlsx
5	main_safe	True	0.0	436	0	0.0	0.0	1.0	1	right	1.0	0.0	1.0	1	0.08	blockFiles/set_29/main_safe/leftBlue\GB_LB_3.xlsx
6	main_safe	True	0.0	436	0	0.0	0.0	0.0	1	left	2.0	1.0	1.0	0	-0.08	blockFiles/set_29/main_safe/leftBlue\GB_LB_3.xlsx
7	main_safe	True	0.0	436	0	0.0	0.0	0.0	1	left	1.0	0.0	0.0	0	-0.08	blockFiles/set_29/main_safe/leftBlue\GB_LB_3.xlsx
8	main_safe	True	0.0	436	0	0.0	0.0	1.0	1	right	1.0	1.0	1.0	1	0.08	blockFiles/set_29/main_safe/leftBlue\GB_LB_3.xlsx
9	main_safe	True	0.0	436	0	0.0	0.0	1.0	1	right	1.0	1.0	1.0	1	0.08	blockFiles/set_29/main_safe/leftBlue\GB_LB_3.xlsx
10	main_safe	True	0.0	436	0	0.0	0.0	0.0	1	left	1.0	0.0	0.0	0	-0.08	blockFiles/set_29/main_safe/leftBlue\GB_LB_3.xlsx
11	main_safe	True	0.0	436	0	0.0	0.0	0.0	1	left	2.0	1.0	1.0	0	-0.08	blockFiles/set_29/main_safe/leftBlue\GB_LB_3.xlsx
12	main_safe	True	0.0	436	0	0.0	0.0	0.0	1	left	2.0	0.0	1.0	0	-0.08	blockFiles/set_29/main_safe/leftBlue\GB_LB_3.xlsx
13	main_safe	True	0.0	436	0	0.0	0.0	1.0	1	right	1.0	0.0	1.0	1	0.08	blockFiles/set_29/main_safe/leftBlue\GB_LB_3.xlsx
14	main_safe	True	0.0	436	0	0.0	0.0	0.0	1	left	2.0	1.0	1.0	0	-0.08	blockFiles/set_29/main_safe/leftBlue\GB_LB_3.xlsx
15	main_safe	True	0.0	436	0	0.0	0.0	1.0	1	right	1.0	1.0	1.0	1	0.08	blockFiles/set_29/main_safe/leftBlue\GB_LB_3.xlsx
16	main_safe	True	0.0	436	0	0.0	0.0	1.0	1	right	1.0	1.0	1.0	1	0.08	blockFiles/set_29/main_safe/leftBlue\GB_LB_3.xlsx
17	main_safe	True	0.0	436	0	0.0	0.0	0.0	1	left	2.0	1.0	1.0	0	-0.08	blockFiles/set_29/main_safe/leftBlue\GB_LB_3.xlsx
18	main_safe	True	0.0	436	0	0.0	0.0	0.0	1	left	2.0	1.0	1.0	0	-0.08	blockFiles/set_29/main_safe/leftBlue\GB_LB_3.xlsx
19	main_safe	True	0.0	436	0	0.0	0.0	0.0	1	left	2.0	1.0	1.0	0	-0.08	blockFiles/set_29/main_safe/leftBlue\GB_LB_3.xlsx
20	main_safe	True	0.0	436	0	0.0	0.0	1.0	1	right	2.0	0.0	0.0	1	0.08	blockFiles/set_29/main_safe/leftBlue\GB_LB_3.xlsx
21	main_safe	True	0.0	436	0	0.0	0.0	1.0	1	right	2.0	1.0	0.0	1	0.08	blockFiles/set_29/main_safe/leftBlue\GB_LB_3.xlsx
22	main_safe	True	0.0	436	0	0.0	0.0	0.0	1	left	2.0	1.0	1.0	0	-0.08	blockFiles/set_29/main_safe/leftBlue\GB_LB_3.xlsx
23	main_safe	True	0.0	436	0	0.0	0.0	1.0	1	right	2.0	0.0	0.0	1	0.08	blockFiles/set_29/main_safe/leftBlue\GB_LB_3.xlsx
24	main_safe	True	0.0	436	0	0.0	0.0	1.0	1	right	1.0	1.0	1.0	1	0.08	blockFiles/set_29/main_safe/leftBlue\GB_LB_3.xlsx
25	main_safe	True	0.0	436	0	1.0	1.0	1.0	1	right	1.0	0.0	0.0	1	0.08	blockFiles/set_29/main_safe/rightBlue\GB_RB_1.xlsx
26	main_safe	True	0.0	436	0	1.0	1.0	0.0	1	left	1.0	1.0	1.0	0	-0.08	blockFiles/set_29/main_safe/rightBlue\GB_RB_1.xlsx
27	main_safe	True	0.0	436	0	1.0	1.0	1.0	1	right	2.0	0.0	1.0	1	0.08	blockFiles/set_29/main_safe/rightBlue\GB_RB_1.xlsx
28	main_safe	True	0.0	436	0	1.0	1.0	1.0	1	right	2.0	1.0	1.0	1	0.08	blockFiles/set_29/main_safe/rightBlue\GB_RB_1.xlsx
29	main_safe	True	0.0	436	0	1.0	1.0	0.0	1	left	1.0	1.0	1.0	0	-0.08	blockFiles/set_29/main_safe/rightBlue\GB_RB_1.xlsx
30	main_safe	True	0.0	436	0	1.0	1.0	1.0	1	right	2.0	0.0	1.0	1	0.08	blockFiles/set_29/main_safe/rightBlue\GB_RB_1.xlsx
31	main_safe	True	0.0	436	0	1.0	1.0	1.0	1	right	2.0	1.0	1.0	1	0.08	blockFiles/set_29/main_safe/rightBlue\GB_RB_1.xlsx
32	main_safe	True	0.0	436	0	1.0	1.0	0.0	1	left	1.0	1.0	1.0	0	-0.08	blockFiles/set_29/main_safe/rightBlue\GB_RB_1.xlsx
33	main_safe	True	0.0	436	0	1.0	1.0	1.0	1	right	2.0	1.0	1.0	1	0.08	blockFiles/set_29/main_safe/rightBlue\GB_RB_1.xlsx
34	main_safe	True	0.0	436	0	1.0	1.0	0.0	1	left	1.0	0.0	1.0	0	-0.08	blockFiles/set_29/main_safe/rightBlue\GB_RB_1.xlsx
35	main_safe	True	0.0	436	0	1.0	1.0	0.0	1	left	1.0	1.0	1.0	0	-0.08	blockFiles/set_29/main_safe/rightBlue\GB_RB_1.xlsx
36	main_safe	True	0.0	436	0	1.0	1.0	0.0	1	left	1.0	1.0	1.0	0	-0.08	blockFiles/set_29/main_safe/rightBlue\GB_RB_1.xlsx
37	main_safe	True	0.0	436	0	1.0	1.0	1.0	1	right	2.0	1.0	1.0	1	0.08	blockFiles/set_29/main_safe/rightBlue\GB_RB_1.xlsx
38	main_safe	True	0.0	436	0	1.0	1.0	1.0	1	right	2.0	1.0	1.0	1	0.08	blockFiles/set_29/main_safe/rightBlue\GB_RB_1.xlsx
39	main_safe	True	0.0	436	0	1.0	1.0	0.0	1	left	1.0	0.0	1.0	0	-0.08	blockFiles/set_29/main_safe/rightBlue\GB_RB_1.xlsx
40	main_safe	True	0.0	436	0	1.0	1.0	1.0	1	right	2.0	1.0	1.0	1	0.08	blockFiles/set_29/main_safe/rightBlue\GB_RB_1.xlsx
41	main_safe	True	0.0	436	0	1.0	1.0	1.0	1	right	1.0	0.0	0.0	1	0.08	blockFiles/set_29/main_safe/rightBlue\GB_RB_1.xlsx
42	main_safe	True	0.0	436	0	1.0	1.0	0.0	1	left	1.0	1.0	1.0	0	-0.08	blockFiles/set_29/main_safe/rightBlue\GB_RB_1.xlsx
43	main_safe	True	0.0	436	0	1.0	1.0	0.0	1	left	1.0	1.0	1.0	0	-0.08	blockFiles/set_29/main_safe/rightBlue\GB_RB_1.xlsx
44	main_safe	True	0.0	436	0	1.0	1.0	0.0	1	left	1.0	1.0	1.0	0	-0.08	blockFiles/set_29/main_safe/rightBlue\GB_RB_1.xlsx
45	main_safe	True	0.0	436	0	1.0	1.0	1.0	1	right	1.0	0.0	0.0	1	0.08	blockFiles/set_29/main_safe/rightBlue\GB_RB_1.xlsx
46	main_safe	True	0.0	436	0	1.0	1.0	0.0	1	left	1.0	0.0	1.0	0	-0.08	blockFiles/set_29/main_safe/rightBlue\GB_RB_1.xlsx
47	main_safe	True	0.0	436	0	1.0	1.0	1.0	1	right	2.0	1.0	1.0	1	0.08	blockFiles/set_29/main_safe/rightBlue\GB_RB_1.xlsx
48	main_safe	True	0.0	436	0	1.0	1.0	0.0	1	left	1.0	1.0	1.0	0	-0.08	blockFiles/set_29/main_safe/rightBlue\GB_RB_1.xlsx
49	main_safe	True	0.0	436	0	1.0	1.0	0.0	1	left	1.0	1.0	1.0	0	-0.08	blockFiles/set_29/main_safe/rightBlue\GB_RB_1.xlsx
50	main_safe	True	0.0	436	0	2.0	2.0	0.0	1	left	2.0	1.0	1.0	0	-0.08	blockFiles/set_29/main_safe/leftBlue\GB_LB_2.xlsx
51	main_safe	True	0.0	436	0	2.0	2.0	0.0	1	left	2.0	1.0	1.0	0	-0.08	blockFiles/set_29/main_safe/leftBlue\GB_LB_2.xlsx
52	main_safe	True	0.0	436	0	2.0	2.0	0.0	1	left	2.0	1.0	1.0	0	-0.08	blockFiles/set_29/main_safe/leftBlue\GB_LB_2.xlsx
53	main_safe	True	0.0	436	0	2.0	2.0	1.0	1	right	1.0	1.0	1.0	1	0.08	blockFiles/set_29/main_safe/leftBlue\GB_LB_2.xlsx
54	main_safe	True	0.0	436	0	2.0	2.0	1.0	1	right	1.0	1.0	1.0	1	0.08	blockFiles/set_29/main_safe/leftBlue\GB_LB_2.xlsx
55	main_safe	True	0.0	436	0	2.0	2.0	1.0	1	right	1.0	1.0	1.0	1	0.08	blockFiles/set_29/main_safe/leftBlue\GB_LB_2.xlsx
56	main_safe	True	0.0	436	0	2.0	2.0	0.0	1	left	2.0	1.0	1.0	0	-0.08	blockFiles/set_29/main_safe/leftBlue\GB_LB_2.xlsx
57	main_safe	True	0.0	436	0	2.0	2.0	0.0	1	left	2.0	0.0	1.0	0	-0.08	blockFiles/set_29/main_safe/leftBlue\GB_LB_2.xlsx
58	main_safe	True	0.0	436	0	2.0	2.0	0.0	1	left	2.0	1.0	1.0	0	-0.08	blockFiles/set_29/main_safe/leftBlue\GB_LB_2.xlsx
59	main_safe	True	0.0	436	0	2.0	2.0	1.0	1	right	1.0	1.0	1.0	1	0.08	blockFiles/set_29/main_safe/leftBlue\GB_LB_2.xlsx
60	main_safe	True	0.0	436	0	2.0	2.0	0.0	1	left	2.0	1.0	1.0	0	-0.08	blockFiles/set_29/main_safe/leftBlue\GB_LB_2.xlsx
61	main_safe	True	0.0	436	0	2.0	2.0	1.0	1	right	1.0	1.0	1.0	1	0.08	blockFiles/set_29/main_safe/leftBlue\GB_LB_2.xlsx
62	main_safe	True	1.0	436	0	2.0	2.0	0.0	1	left	n/a	0.0	n/a	0	-0.08	blockFiles/set_29/main_safe/leftBlue\GB_LB_2.xlsx
63	main_safe	True	0.0	436	0	2.0	2.0	1.0	1	right	1.0	1.0	1.0	1	0.08	blockFiles/set_29/main_safe/leftBlue\GB_LB_2.xlsx
64	main_safe	True	0.0	436	0	2.0	2.0	0.0	1	left	1.0	0.0	0.0	0	-0.08	blockFiles/set_29/main_safe/leftBlue\GB_LB_2.xlsx
65	main_safe	True	0.0	436	0	2.0	2.0	0.0	1	left	2.0	0.0	1.0	0	-0.08	blockFiles/set_29/main_safe/leftBlue\GB_LB_2.xlsx
66	main_safe	True	0.0	436	0	2.0	2.0	1.0	1	right	1.0	1.0	1.0	1	0.08	blockFiles/set_29/main_safe/leftBlue\GB_LB_2.xlsx
67	main_safe	True	0.0	436	0	2.0	2.0	1.0	1	right	1.0	1.0	1.0	1	0.08	blockFiles/set_29/main_safe/leftBlue\GB_LB_2.xlsx
68	main_safe	True	0.0	436	0	2.0	2.0	1.0	1	right	1.0	1.0	1.0	1	0.08	blockFiles/set_29/main_safe/leftBlue\GB_LB_2.xlsx
69	main_safe	True	0.0	436	0	2.0	2.0	1.0	1	right	1.0	0.0	1.0	1	0.08	blockFiles/set_29/main_safe/leftBlue\GB_LB_2.xlsx
70	main_safe	True	0.0	436	0	2.0	2.0	1.0	1	right	1.0	1.0	1.0	1	0.08	blockFiles/set_29/main_safe/leftBlue\GB_LB_2.xlsx
71	main_safe	True	0.0	436	0	2.0	2.0	0.0	1	left	2.0	1.0	1.0	0	-0.08	blockFiles/set_29/main_safe/leftBlue\GB_LB_2.xlsx
72	main_safe	True	0.0	436	0	2.0	2.0	1.0	1	right	1.0	1.0	1.0	1	0.08	blockFiles/set_29/main_safe/leftBlue\GB_LB_2.xlsx
73	main_safe	True	0.0	436	0	2.0	2.0	0.0	1	left	2.0	1.0	1.0	0	-0.08	blockFiles/set_29/main_safe/leftBlue\GB_LB_2.xlsx
74	main_safe	True	0.0	436	0	2.0	2.0	1.0	1	right	1.0	1.0	1.0	1	0.08	blockFiles/set_29/main_safe/leftBlue\GB_LB_2.xlsx
75	main_safe	True	0.0	436	0	2.0	2.0	0.0	1	left	2.0	1.0	1.0	0	-0.08	blockFiles/set_29/main_safe/leftBlue\GB_LB_2.xlsx
76	main_safe	True	0.0	436	0	3.0	3.0	0.0	1	left	1.0	1.0	1.0	0	-0.08	blockFiles/set_29/main_safe/rightBlue\GB_RB_3.xlsx
77	main_safe	True	0.0	436	0	3.0	3.0	1.0	1	right	2.0	1.0	1.0	1	0.08	blockFiles/set_29/main_safe/rightBlue\GB_RB_3.xlsx
78	main_safe	True	0.0	436	0	3.0	3.0	0.0	1	left	1.0	1.0	1.0	0	-0.08	blockFiles/set_29/main_safe/rightBlue\GB_RB_3.xlsx
79	main_safe	True	0.0	436	0	3.0	3.0	0.0	1	left	2.0	0.0	0.0	0	-0.08	blockFiles/set_29/main_safe/rightBlue\GB_RB_3.xlsx
80	main_safe	True	0.0	436	0	3.0	3.0	1.0	1	right	2.0	0.0	1.0	1	0.08	blockFiles/set_29/main_safe/rightBlue\GB_RB_3.xlsx
81	main_safe	True	0.0	436	0	3.0	3.0	1.0	1	right	1.0	1.0	0.0	1	0.08	blockFiles/set_29/main_safe/rightBlue\GB_RB_3.xlsx
82	main_safe	True	0.0	436	0	3.0	3.0	1.0	1	right	1.0	0.0	0.0	1	0.08	blockFiles/set_29/main_safe/rightBlue\GB_RB_3.xlsx
83	main_safe	True	0.0	436	0	3.0	3.0	1.0	1	right	2.0	1.0	1.0	1	0.08	blockFiles/set_29/main_safe/rightBlue\GB_RB_3.xlsx
84	main_safe	True	0.0	436	0	3.0	3.0	1.0	1	right	2.0	0.0	1.0	1	0.08	blockFiles/set_29/main_safe/rightBlue\GB_RB_3.xlsx
85	main_safe	True	0.0	436	0	3.0	3.0	1.0	1	right	1.0	0.0	0.0	1	0.08	blockFiles/set_29/main_safe/rightBlue\GB_RB_3.xlsx
86	main_safe	True	0.0	436	0	3.0	3.0	0.0	1	left	1.0	1.0	1.0	0	-0.08	blockFiles/set_29/main_safe/rightBlue\GB_RB_3.xlsx
87	main_safe	True	0.0	436	0	3.0	3.0	0.0	1	left	1.0	1.0	1.0	0	-0.08	blockFiles/set_29/main_safe/rightBlue\GB_RB_3.xlsx
88	main_safe	True	0.0	436	0	3.0	3.0	0.0	1	left	1.0	1.0	1.0	0	-0.08	blockFiles/set_29/main_safe/rightBlue\GB_RB_3.xlsx
89	main_safe	True	0.0	436	0	3.0	3.0	1.0	1	right	1.0	0.0	0.0	1	0.08	blockFiles/set_29/main_safe/rightBlue\GB_RB_3.xlsx
90	main_safe	True	0.0	436	0	3.0	3.0	0.0	1	left	1.0	0.0	1.0	0	-0.08	blockFiles/set_29/main_safe/rightBlue\GB_RB_3.xlsx
91	main_safe	True	0.0	436	0	3.0	3.0	0.0	1	left	1.0	1.0	1.0	0	-0.08	blockFiles/set_29/main_safe/rightBlue\GB_RB_3.xlsx
92	main_safe	True	0.0	436	0	3.0	3.0	0.0	1	left	1.0	1.0	1.0	0	-0.08	blockFiles/set_29/main_safe/rightBlue\GB_RB_3.xlsx
93	main_safe	True	0.0	436	0	3.0	3.0	0.0	1	left	1.0	1.0	1.0	0	-0.08	blockFiles/set_29/main_safe/rightBlue\GB_RB_3.xlsx
94	main_safe	True	1.0	436	0	3.0	3.0	n/a	0	None	n/a	0.0	n/a	0	-0.08	blockFiles/set_29/main_safe/rightBlue\GB_RB_3.xlsx
95	main_safe	True	0.0	436	0	3.0	3.0	1.0	1	right	2.0	0.0	1.0	1	0.08	blockFiles/set_29/main_safe/rightBlue\GB_RB_3.xlsx
96	main_safe	True	0.0	436	0	3.0	3.0	1.0	1	right	2.0	1.0	1.0	1	0.08	blockFiles/set_29/main_safe/rightBlue\GB_RB_3.xlsx
97	main_safe	True	0.0	436	0	3.0	3.0	0.0	1	left	1.0	1.0	1.0	0	-0.08	blockFiles/set_29/main_safe/rightBlue\GB_RB_3.xlsx
98	main_safe	True	0.0	436	0	3.0	3.0	0.0	1	left	1.0	1.0	1.0	0	-0.08	blockFiles/set_29/main_safe/rightBlue\GB_RB_3.xlsx
99	main_safe	True	0.0	436	0	3.0	3.0	0.0	1	left	1.0	1.0	1.0	0	-0.08	blockFiles/set_29/main_safe/rightBlue\GB_RB_3.xlsx
100	main_safe	True	0.0	436	0	3.0	3.0	1.0	1	right	2.0	0.0	1.0	1	0.08	blockFiles/set_29/main_safe/rightBlue\GB_RB_3.xlsx
101	main_safe	True	0.0	436	0	3.0	3.0	0.0	1	left	2.0	0.0	0.0	0	-0.08	blockFiles/set_29/main_safe/rightBlue\GB_RB_3.xlsx
102	main_safe	True	0.0	436	0	4.0	4.0	0.0	1	left	1.0	1.0	1.0	0	-0.08	blockFiles/set_29/main_safe/rightBlue\GB_RB_2.xlsx
103	main_safe	True	0.0	436	0	4.0	4.0	0.0	1	left	1.0	0.0	1.0	0	-0.08	blockFiles/set_29/main_safe/rightBlue\GB_RB_2.xlsx
104	main_safe	True	0.0	436	0	4.0	4.0	1.0	1	right	1.0	1.0	0.0	1	0.08	blockFiles/set_29/main_safe/rightBlue\GB_RB_2.xlsx
105	main_safe	True	0.0	436	0	4.0	4.0	0.0	1	left	2.0	0.0	0.0	0	-0.08	blockFiles/set_29/main_safe/rightBlue\GB_RB_2.xlsx
106	main_safe	True	0.0	436	0	4.0	4.0	0.0	1	left	1.0	0.0	1.0	0	-0.08	blockFiles/set_29/main_safe/rightBlue\GB_RB_2.xlsx
107	main_safe	True	0.0	436	0	4.0	4.0	0.0	1	left	2.0	0.0	0.0	0	-0.08	blockFiles/set_29/main_safe/rightBlue\GB_RB_2.xlsx
108	main_safe	True	0.0	436	0	4.0	4.0	1.0	1	right	2.0	0.0	1.0	1	0.08	blockFiles/set_29/main_safe/rightBlue\GB_RB_2.xlsx
109	main_safe	True	0.0	436	0	4.0	4.0	0.0	1	left	1.0	1.0	1.0	0	-0.08	blockFiles/set_29/main_safe/rightBlue\GB_RB_2.xlsx
110	main_safe	True	0.0	436	0	4.0	4.0	0.0	1	left	1.0	1.0	1.0	0	-0.08	blockFiles/set_29/main_safe/rightBlue\GB_RB_2.xlsx
111	main_safe	True	0.0	436	0	4.0	4.0	1.0	1	right	2.0	1.0	1.0	1	0.08	blockFiles/set_29/main_safe/rightBlue\GB_RB_2.xlsx
112	main_safe	True	0.0	436	0	4.0	4.0	0.0	1	left	1.0	1.0	1.0	0	-0.08	blockFiles/set_29/main_safe/rightBlue\GB_RB_2.xlsx
113	main_safe	True	0.0	436	0	4.0	4.0	1.0	1	right	2.0	1.0	1.0	1	0.08	blockFiles/set_29/main_safe/rightBlue\GB_RB_2.xlsx
114	main_safe	True	0.0	436	0	4.0	4.0	0.0	1	left	1.0	1.0	1.0	0	-0.08	blockFiles/set_29/main_safe/rightBlue\GB_RB_2.xlsx
115	main_safe	True	0.0	436	0	4.0	4.0	1.0	1	right	2.0	1.0	1.0	1	0.08	blockFiles/set_29/main_safe/rightBlue\GB_RB_2.xlsx
116	main_safe	True	1.0	436	0	4.0	4.0	1.0	1	right	n/a	0.0	n/a	1	0.08	blockFiles/set_29/main_safe/rightBlue\GB_RB_2.xlsx
117	main_safe	True	0.0	436	0	4.0	4.0	1.0	1	right	2.0	1.0	1.0	1	0.08	blockFiles/set_29/main_safe/rightBlue\GB_RB_2.xlsx
118	main_safe	True	0.0	436	0	4.0	4.0	1.0	1	right	1.0	0.0	0.0	1	0.08	blockFiles/set_29/main_safe/rightBlue\GB_RB_2.xlsx
119	main_safe	True	0.0	436	0	4.0	4.0	1.0	1	right	1.0	0.0	0.0	1	0.08	blockFiles/set_29/main_safe/rightBlue\GB_RB_2.xlsx
120	main_safe	True	0.0	436	0	4.0	4.0	1.0	1	right	1.0	0.0	0.0	1	0.08	blockFiles/set_29/main_safe/rightBlue\GB_RB_2.xlsx
121	main_safe	True	0.0	436	0	4.0	4.0	0.0	1	left	1.0	1.0	1.0	0	-0.08	blockFiles/set_29/main_safe/rightBlue\GB_RB_2.xlsx
122	main_safe	True	0.0	436	0	4.0	4.0	1.0	1	right	2.0	0.0	1.0	1	0.08	blockFiles/set_29/main_safe/rightBlue\GB_RB_2.xlsx
123	main_safe	True	0.0	436	0	4.0	4.0	1.0	1	right	2.0	1.0	1.0	1	0.08	blockFiles/set_29/main_safe/rightBlue\GB_RB_2.xlsx
124	main_safe	True	0.0	436	0	4.0	4.0	0.0	1	left	1.0	1.0	1.0	0	-0.08	blockFiles/set_29/main_safe/rightBlue\GB_RB_2.xlsx
125	main_safe	True	0.0	436	0	4.0	4.0	1.0	1	right	2.0	0.0	1.0	1	0.08	blockFiles/set_29/main_safe/rightBlue\GB_RB_2.xlsx
126	main_safe	True	0.0	436	0	4.0	4.0	1.0	1	right	1.0	0.0	0.0	1	0.08	blockFiles/set_29/main_safe/rightBlue\GB_RB_2.xlsx
127	main_safe	True	0.0	436	0	4.0	4.0	1.0	1	right	2.0	1.0	1.0	1	0.08	blockFiles/set_29/main_safe/rightBlue\GB_RB_2.xlsx
128	main_safe	True	0.0	436	0	5.0	5.0	1.0	1	right	1.0	1.0	1.0	1	0.08	blockFiles/set_29/main_safe/leftBlue\GB_LB_1.xlsx
129	main_safe	True	0.0	436	0	5.0	5.0	0.0	1	left	2.0	1.0	1.0	0	-0.08	blockFiles/set_29/main_safe/leftBlue\GB_LB_1.xlsx
130	main_safe	True	0.0	436	0	5.0	5.0	1.0	1	right	1.0	1.0	1.0	1	0.08	blockFiles/set_29/main_safe/leftBlue\GB_LB_1.xlsx
131	main_safe	True	0.0	436	0	5.0	5.0	1.0	1	right	1.0	1.0	1.0	1	0.08	blockFiles/set_29/main_safe/leftBlue\GB_LB_1.xlsx
132	main_safe	True	0.0	436	0	5.0	5.0	1.0	1	right	1.0	1.0	1.0	1	0.08	blockFiles/set_29/main_safe/leftBlue\GB_LB_1.xlsx
133	main_safe	True	0.0	436	0	5.0	5.0	1.0	1	right	1.0	1.0	1.0	1	0.08	blockFiles/set_29/main_safe/leftBlue\GB_LB_1.xlsx
134	main_safe	True	0.0	436	0	5.0	5.0	0.0	1	left	2.0	1.0	1.0	0	-0.08	blockFiles/set_29/main_safe/leftBlue\GB_LB_1.xlsx
135	main_safe	True	0.0	436	0	5.0	5.0	1.0	1	right	1.0	1.0	1.0	1	0.08	blockFiles/set_29/main_safe/leftBlue\GB_LB_1.xlsx
136	main_safe	True	0.0	436	0	5.0	5.0	0.0	1	left	2.0	1.0	1.0	0	-0.08	blockFiles/set_29/main_safe/leftBlue\GB_LB_1.xlsx
137	main_safe	True	0.0	436	0	5.0	5.0	0.0	0	left	1.0	1.0	1.0	1	0.08	blockFiles/set_29/main_safe/leftBlue\GB_LB_1.xlsx
138	main_safe	True	0.0	436	0	5.0	5.0	0.0	1	left	2.0	1.0	1.0	0	-0.08	blockFiles/set_29/main_safe/leftBlue\GB_LB_1.xlsx
139	main_safe	True	0.0	436	0	5.0	5.0	0.0	1	left	2.0	1.0	1.0	0	-0.08	blockFiles/set_29/main_safe/leftBlue\GB_LB_1.xlsx
140	main_safe	True	0.0	436	0	5.0	5.0	0.0	1	left	2.0	1.0	1.0	0	-0.08	blockFiles/set_29/main_safe/leftBlue\GB_LB_1.xlsx
141	main_safe	True	0.0	436	0	5.0	5.0	1.0	1	right	1.0	1.0	1.0	1	0.08	blockFiles/set_29/main_safe/leftBlue\GB_LB_1.xlsx
142	main_safe	True	0.0	436	0	5.0	5.0	0.0	1	left	2.0	0.0	1.0	0	-0.08	blockFiles/set_29/main_safe/leftBlue\GB_LB_1.xlsx
143	main_safe	True	0.0	436	0	5.0	5.0	0.0	1	left	2.0	1.0	1.0	0	-0.08	blockFiles/set_29/main_safe/leftBlue\GB_LB_1.xlsx
144	main_safe	True	0.0	436	0	5.0	5.0	1.0	1	right	1.0	0.0	1.0	1	0.08	blockFiles/set_29/main_safe/leftBlue\GB_LB_1.xlsx
145	main_safe	True	0.0	436	0	5.0	5.0	1.0	1	right	1.0	1.0	1.0	1	0.08	blockFiles/set_29/main_safe/leftBlue\GB_LB_1.xlsx
146	main_safe	True	1.0	436	0	5.0	5.0	0.0	1	left	n/a	0.0	n/a	0	-0.08	blockFiles/set_29/main_safe/leftBlue\GB_LB_1.xlsx
147	main_safe	True	0.0	436	0	5.0	5.0	0.0	1	left	2.0	1.0	1.0	0	-0.08	blockFiles/set_29/main_safe/leftBlue\GB_LB_1.xlsx
148	main_safe	True	0.0	436	0	5.0	5.0	1.0	1	right	2.0	0.0	0.0	1	0.08	blockFiles/set_29/main_safe/leftBlue\GB_LB_1.xlsx
149	main_safe	True	0.0	436	0	5.0	5.0	1.0	1	right	1.0	1.0	1.0	1	0.08	blockFiles/set_29/main_safe/leftBlue\GB_LB_1.xlsx
150	main_safe	True	0.0	436	0	5.0	5.0	1.0	1	right	1.0	1.0	1.0	1	0.08	blockFiles/set_29/main_safe/leftBlue\GB_LB_1.xlsx
151	main_safe	True	0.0	436	0	5.0	5.0	0.0	1	left	1.0	1.0	0.0	0	-0.08	blockFiles/set_29/main_safe/leftBlue\GB_LB_1.xlsx
152	main_safe	True	0.0	436	0	5.0	5.0	1.0	1	right	2.0	1.0	0.0	1	0.08	blockFiles/set_29/main_safe/leftBlue\GB_LB_1.xlsx
153	main_safe	True	0.0	436	0	5.0	5.0	0.0	1	left	2.0	0.0	1.0	0	-0.08	blockFiles/set_29/main_safe/leftBlue\GB_LB_1.xlsx
154	patches	True	n/a	436	0	n/a	n/a	0.0	0	left	n/a	n/a	n/a	1	0.021591751277400005	blockFiles/set_29/main_PD/GB_runPatches1.xlsx
155	patches	True	n/a	436	0	n/a	n/a	1.0	1	right	n/a	n/a	n/a	1	0.06766443109140001	blockFiles/set_29/main_PD/GB_runPatches1.xlsx
156	patches	True	n/a	436	0	n/a	n/a	0.0	1	left	n/a	n/a	n/a	0	-0.018251759987299998	blockFiles/set_29/main_PD/GB_runPatches1.xlsx
157	patches	True	n/a	436	0	n/a	n/a	0.0	1	left	n/a	n/a	n/a	0	-0.027751426193900003	blockFiles/set_29/main_PD/GB_runPatches1.xlsx
158	patches	True	n/a	436	0	n/a	n/a	1.0	1	right	n/a	n/a	n/a	1	0.06224920611830001	blockFiles/set_29/main_PD/GB_runPatches1.xlsx
159	patches	True	n/a	436	0	n/a	n/a	0.0	1	left	n/a	n/a	n/a	0	-0.0742867637053	blockFiles/set_29/main_PD/GB_runPatches1.xlsx
160	patches	True	n/a	436	0	n/a	n/a	1.0	1	right	n/a	n/a	n/a	1	0.038808963988	blockFiles/set_29/main_PD/GB_runPatches1.xlsx
161	patches	True	n/a	436	0	n/a	n/a	1.0	1	right	n/a	n/a	n/a	1	0.0125962765701	blockFiles/set_29/main_PD/GB_runPatches1.xlsx
162	patches	True	n/a	436	0	n/a	n/a	1.0	1	right	n/a	n/a	n/a	1	0.0726557774469	blockFiles/set_29/main_PD/GB_runPatches1.xlsx
163	patches	True	n/a	436	0	n/a	n/a	1.0	1	right	n/a	n/a	n/a	1	0.058789338283199995	blockFiles/set_29/main_PD/GB_runPatches1.xlsx
164	patches	True	n/a	436	0	n/a	n/a	1.0	0	right	n/a	n/a	n/a	0	-0.0159284154139	blockFiles/set_29/main_PD/GB_runPatches1.xlsx
165	patches	True	n/a	436	0	n/a	n/a	0.0	0	left	n/a	n/a	n/a	1	0.018747776206599998	blockFiles/set_29/main_PD/GB_runPatches1.xlsx
166	patches	True	n/a	436	0	n/a	n/a	0.0	1	left	n/a	n/a	n/a	0	-0.060782366991	blockFiles/set_29/main_PD/GB_runPatches1.xlsx
167	patches	True	n/a	436	0	n/a	n/a	1.0	1	right	n/a	n/a	n/a	1	0.0247413106635	blockFiles/set_29/main_PD/GB_runPatches1.xlsx
168	patches	True	n/a	436	0	n/a	n/a	0.0	1	left	n/a	n/a	n/a	0	-0.0225007506274	blockFiles/set_29/main_PD/GB_runPatches1.xlsx
169	patches	True	n/a	436	0	n/a	n/a	1.0	0	right	n/a	n/a	n/a	0	-0.022907929215599997	blockFiles/set_29/main_PD/GB_runPatches1.xlsx
170	patches	True	n/a	436	0	n/a	n/a	0.0	1	left	n/a	n/a	n/a	0	-0.0678136924282	blockFiles/set_29/main_PD/GB_runPatches1.xlsx
171	patches	True	n/a	436	0	n/a	n/a	0.0	0	left	n/a	n/a	n/a	1	0.0410508617014	blockFiles/set_29/main_PD/GB_runPatches1.xlsx
172	patches	True	n/a	436	0	n/a	n/a	1.0	0	right	n/a	n/a	n/a	0	-0.0188463142142	blockFiles/set_29/main_PD/GB_runPatches1.xlsx
173	patches	True	n/a	436	0	n/a	n/a	0.0	0	left	n/a	n/a	n/a	1	0.024985082782799997	blockFiles/set_29/main_PD/GB_runPatches1.xlsx
174	patches	True	n/a	436	0	n/a	n/a	1.0	1	right	n/a	n/a	n/a	1	0.029563255049299998	blockFiles/set_29/main_PD/GB_runPatches1.xlsx
175	patches	True	n/a	436	0	n/a	n/a	0.0	1	left	n/a	n/a	n/a	0	-0.071448708158	blockFiles/set_29/main_PD/GB_runPatches1.xlsx
176	patches	True	n/a	436	0	n/a	n/a	0.0	1	left	n/a	n/a	n/a	0	-0.045814306586999996	blockFiles/set_29/main_PD/GB_runPatches1.xlsx
177	patches	True	n/a	436	0	n/a	n/a	1.0	1	right	n/a	n/a	n/a	1	0.0666415062547	blockFiles/set_29/main_PD/GB_runPatches1.xlsx
178	patches	True	n/a	436	0	n/a	n/a	1.0	1	right	n/a	n/a	n/a	1	0.0390187503584	blockFiles/set_29/main_PD/GB_runPatches1.xlsx
179	patches	True	n/a	436	0	n/a	n/a	1.0	1	right	n/a	n/a	n/a	1	0.058696558959800006	blockFiles/set_29/main_PD/GB_runPatches1.xlsx
180	patches	True	n/a	436	0	n/a	n/a	0.0	0	left	n/a	n/a	n/a	1	0.00609401803464	blockFiles/set_29/main_PD/GB_runPatches1.xlsx
181	patches	True	n/a	436	0	n/a	n/a	0.0	0	left	n/a	n/a	n/a	1	0.0138745921291	blockFiles/set_29/main_PD/GB_runPatches1.xlsx
182	patches	True	n/a	436	0	n/a	n/a	1.0	1	right	n/a	n/a	n/a	1	0.0100144685805	blockFiles/set_29/main_PD/GB_runPatches1.xlsx
183	patches	True	n/a	436	0	n/a	n/a	1.0	1	right	n/a	n/a	n/a	1	0.0754492671974	blockFiles/set_29/main_PD/GB_runPatches1.xlsx
184	patches	True	n/a	436	0	n/a	n/a	0.0	1	left	n/a	n/a	n/a	0	-0.058418895211100004	blockFiles/set_29/main_PD/GB_runPatches1.xlsx
185	patches	True	n/a	436	0	n/a	n/a	0.0	1	left	n/a	n/a	n/a	0	-0.041586603689900005	blockFiles/set_29/main_PD/GB_runPatches1.xlsx
186	patches	True	n/a	436	0	n/a	n/a	0.0	0	left	n/a	n/a	n/a	1	0.00209233371541	blockFiles/set_29/main_PD/GB_runPatches1.xlsx
187	patches	True	n/a	436	0	n/a	n/a	1.0	1	right	n/a	n/a	n/a	1	0.0660051036812	blockFiles/set_29/main_PD/GB_runPatches1.xlsx
188	patches	True	n/a	436	0	n/a	n/a	n/a	0	None	n/a	n/a	n/a	1	0.0597573256493	blockFiles/set_29/main_PD/GB_runPatches1.xlsx
189	patches	True	n/a	436	0	n/a	n/a	1.0	1	right	n/a	n/a	n/a	1	0.0454706977867	blockFiles/set_29/main_PD/GB_runPatches1.xlsx
190	patches	True	n/a	436	0	n/a	n/a	1.0	1	right	n/a	n/a	n/a	1	0.0287849568389	blockFiles/set_29/main_PD/GB_runPatches1.xlsx
191	patches	True	n/a	436	0	n/a	n/a	0.0	1	left	n/a	n/a	n/a	0	-0.05095561059190001	blockFiles/set_29/main_PD/GB_runPatches1.xlsx
192	patches	True	n/a	436	0	n/a	n/a	n/a	0	None	n/a	n/a	n/a	0	-0.0183281491138	blockFiles/set_29/main_PD/GB_runPatches1.xlsx
193	patches	True	n/a	436	0	n/a	n/a	0.0	1	left	n/a	n/a	n/a	0	-0.021077263969900003	blockFiles/set_29/main_PD/GB_runPatches1.xlsx
194	patches	True	n/a	436	0	n/a	n/a	1.0	1	right	n/a	n/a	n/a	1	0.052187535036399994	blockFiles/set_29/main_PD/GB_runPatches1.xlsx
195	patches	True	n/a	436	0	n/a	n/a	1.0	1	right	n/a	n/a	n/a	1	0.00943257473409	blockFiles/set_29/main_PD/GB_runPatches1.xlsx
196	patches	True	n/a	436	0	n/a	n/a	1.0	1	right	n/a	n/a	n/a	1	0.0565429444797	blockFiles/set_29/main_PD/GB_runPatches1.xlsx
197	patches	True	n/a	436	0	n/a	n/a	0.0	1	left	n/a	n/a	n/a	0	-0.020641043465599997	blockFiles/set_29/main_PD/GB_runPatches1.xlsx
198	patches	True	n/a	436	0	n/a	n/a	0.0	1	left	n/a	n/a	n/a	0	-0.0474833282456	blockFiles/set_29/main_PD/GB_runPatches1.xlsx
199	patches	True	n/a	436	0	n/a	n/a	0.0	1	left	n/a	n/a	n/a	0	-0.0236537500843	blockFiles/set_29/main_PD/GB_runPatches1.xlsx
200	patches	True	n/a	436	0	n/a	n/a	0.0	1	left	n/a	n/a	n/a	0	-0.0656533383764	blockFiles/set_29/main_PD/GB_runPatches1.xlsx
201	patches	True	n/a	436	0	n/a	n/a	1.0	1	right	n/a	n/a	n/a	1	0.032172330208099995	blockFiles/set_29/main_PD/GB_runPatches1.xlsx
202	patches	True	n/a	436	0	n/a	n/a	0.0	1	left	n/a	n/a	n/a	0	-0.05696972271430001	blockFiles/set_29/main_PD/GB_runPatches1.xlsx
203	patches	True	n/a	436	0	n/a	n/a	0.0	1	left	n/a	n/a	n/a	0	-0.010691424161200001	blockFiles/set_29/main_PD/GB_runPatches1.xlsx
204	patches	True	n/a	436	0	n/a	n/a	1.0	1	right	n/a	n/a	n/a	1	0.0471748455241	blockFiles/set_29/main_PD/GB_runPatches1.xlsx
205	patches	True	n/a	436	0	n/a	n/a	n/a	0	None	n/a	n/a	n/a	0	-0.009703168403360002	blockFiles/set_29/main_PD/GB_runPatches1.xlsx
206	patches	True	n/a	436	0	n/a	n/a	0.0	1	left	n/a	n/a	n/a	0	-0.052584987077900006	blockFiles/set_29/main_PD/GB_runPatches1.xlsx
207	patches	True	n/a	436	0	n/a	n/a	n/a	0	None	n/a	n/a	n/a	1	0.00424367979169	blockFiles/set_29/main_PD/GB_runPatches1.xlsx
208	patches	True	n/a	436	0	n/a	n/a	0.0	1	left	n/a	n/a	n/a	0	-0.057145828902699994	blockFiles/set_29/main_PD/GB_runPatches1.xlsx
209	patches	True	n/a	436	0	n/a	n/a	0.0	1	left	n/a	n/a	n/a	0	-0.0654395552352	blockFiles/set_29/main_PD/GB_runPatches1.xlsx
210	patches	True	n/a	436	0	n/a	n/a	0.0	1	left	n/a	n/a	n/a	0	-0.0551000833139	blockFiles/set_29/main_PD/GB_runPatches1.xlsx
211	patches	True	n/a	436	0	n/a	n/a	0.0	1	left	n/a	n/a	n/a	0	-0.0521184455231	blockFiles/set_29/main_PD/GB_runPatches1.xlsx
212	patches	True	n/a	436	0	n/a	n/a	0.0	1	left	n/a	n/a	n/a	0	-0.0208277905919	blockFiles/set_29/main_PD/GB_runPatches1.xlsx
213	patches	True	n/a	436	0	n/a	n/a	0.0	1	left	n/a	n/a	n/a	0	-0.0396067242697	blockFiles/set_29/main_PD/GB_runPatches1.xlsx
214	patches	True	n/a	436	0	n/a	n/a	n/a	0	None	n/a	n/a	n/a	0	-0.00549267871305	blockFiles/set_29/main_PD/GB_runPatches1.xlsx
215	patches	True	n/a	436	0	n/a	n/a	0.0	1	left	n/a	n/a	n/a	0	-0.0262323202379	blockFiles/set_29/main_PD/GB_runPatches1.xlsx
216	patches	True	n/a	436	0	n/a	n/a	0.0	1	left	n/a	n/a	n/a	0	-0.0272279407084	blockFiles/set_29/main_PD/GB_runPatches1.xlsx
217	patches	True	n/a	436	0	n/a	n/a	n/a	0	None	n/a	n/a	n/a	1	0.0383267992362	blockFiles/set_29/main_PD/GB_runPatches1.xlsx
218	patches	True	n/a	436	0	n/a	n/a	0.0	1	left	n/a	n/a	n/a	0	-0.06374242784459999	blockFiles/set_29/main_PD/GB_runPatches1.xlsx
219	patches	True	n/a	436	0	n/a	n/a	0.0	1	left	n/a	n/a	n/a	0	-0.0433122928068	blockFiles/set_29/main_PD/GB_runPatches1.xlsx
220	patches	True	n/a	436	0	n/a	n/a	0.0	1	left	n/a	n/a	n/a	0	-0.055509932283300006	blockFiles/set_29/main_PD/GB_runPatches1.xlsx
221	patches	True	n/a	436	0	n/a	n/a	1.0	0	right	n/a	n/a	n/a	0	-0.00322116037831	blockFiles/set_29/main_PD/GB_runPatches1.xlsx
222	patches	True	n/a	436	0	n/a	n/a	0.0	1	left	n/a	n/a	n/a	0	-0.072030055169	blockFiles/set_29/main_PD/GB_runPatches1.xlsx
223	patches	True	n/a	436	0	n/a	n/a	0.0	0	left	n/a	n/a	n/a	1	0.027969802189599997	blockFiles/set_29/main_PD/GB_runPatches1.xlsx
224	patches	True	n/a	436	0	n/a	n/a	0.0	1	left	n/a	n/a	n/a	0	-0.0709500438347	blockFiles/set_29/main_PD/GB_runPatches1.xlsx
225	patches	True	n/a	436	0	n/a	n/a	1.0	1	right	n/a	n/a	n/a	1	0.044618155919	blockFiles/set_29/main_PD/GB_runPatches1.xlsx
226	patches	True	n/a	436	0	n/a	n/a	1.0	1	right	n/a	n/a	n/a	1	0.0276605269685	blockFiles/set_29/main_PD/GB_runPatches1.xlsx
227	patches	True	n/a	436	0	n/a	n/a	1.0	1	right	n/a	n/a	n/a	1	0.07038259252910001	blockFiles/set_29/main_PD/GB_runPatches1.xlsx
228	patches	True	n/a	436	0	n/a	n/a	0.0	1	left	n/a	n/a	n/a	0	-0.026126632746299998	blockFiles/set_29/main_PD/GB_runPatches1.xlsx
229	patches	True	n/a	436	0	n/a	n/a	0.0	0	left	n/a	n/a	n/a	1	0.0108831713162	blockFiles/set_29/main_PD/GB_runPatches1.xlsx
230	patches	True	n/a	436	0	n/a	n/a	1.0	1	right	n/a	n/a	n/a	1	0.030582153890299998	blockFiles/set_29/main_PD/GB_runPatches1.xlsx
231	patches	True	n/a	436	0	n/a	n/a	1.0	1	right	n/a	n/a	n/a	1	0.047866161596	blockFiles/set_29/main_PD/GB_runPatches1.xlsx
232	patches	True	n/a	436	0	n/a	n/a	1.0	1	right	n/a	n/a	n/a	1	0.0387939701788	blockFiles/set_29/main_PD/GB_runPatches1.xlsx
233	patches	True	n/a	436	0	n/a	n/a	1.0	1	right	n/a	n/a	n/a	1	0.0551491735317	blockFiles/set_29/main_PD/GB_runPatches1.xlsx
234	patches	True	n/a	436	0	n/a	n/a	1.0	1	right	n/a	n/a	n/a	1	0.039826049599800004	blockFiles/set_29/main_PD/GB_runPatches1.xlsx
235	patches	True	n/a	436	0	n/a	n/a	1.0	1	right	n/a	n/a	n/a	1	0.07749107092619999	blockFiles/set_29/main_PD/GB_runPatches1.xlsx
236	patches	True	n/a	436	0	n/a	n/a	1.0	0	right	n/a	n/a	n/a	0	-0.0020990349166099998	blockFiles/set_29/main_PD/GB_runPatches1.xlsx
237	patches	True	n/a	436	0	n/a	n/a	1.0	1	right	n/a	n/a	n/a	1	0.0406928730011	blockFiles/set_29/main_PD/GB_runPatches1.xlsx
238	patches	True	n/a	436	0	n/a	n/a	1.0	1	right	n/a	n/a	n/a	1	0.049697500784	blockFiles/set_29/main_PD/GB_runPatches1.xlsx
239	patches	True	n/a	436	0	n/a	n/a	1.0	1	right	n/a	n/a	n/a	1	0.033805869557	blockFiles/set_29/main_PD/GB_runPatches1.xlsx
240	patches	True	n/a	436	0	n/a	n/a	0.0	1	left	n/a	n/a	n/a	0	-0.0402179526724	blockFiles/set_29/main_PD/GB_runPatches1.xlsx
241	patches	True	n/a	436	0	n/a	n/a	0.0	1	left	n/a	n/a	n/a	0	-0.0365996599384	blockFiles/set_29/main_PD/GB_runPatches1.xlsx
242	patches	True	n/a	436	0	n/a	n/a	0.0	1	left	n/a	n/a	n/a	0	-0.0644392525405	blockFiles/set_29/main_PD/GB_runPatches1.xlsx
243	patches	True	n/a	436	0	n/a	n/a	0.0	1	left	n/a	n/a	n/a	0	-0.0566118603572	blockFiles/set_29/main_PD/GB_runPatches1.xlsx
244	patches	True	n/a	436	0	n/a	n/a	0.0	1	left	n/a	n/a	n/a	0	-0.0183285149001	blockFiles/set_29/main_PD/GB_runPatches1.xlsx
245	patches	True	n/a	436	0	n/a	n/a	0.0	0	left	n/a	n/a	n/a	1	0.0133394730464	blockFiles/set_29/main_PD/GB_runPatches1.xlsx
246	patches	True	n/a	436	0	n/a	n/a	0.0	1	left	n/a	n/a	n/a	0	-0.0651521722972	blockFiles/set_29/main_PD/GB_runPatches1.xlsx
247	patches	True	n/a	436	0	n/a	n/a	0.0	0	left	n/a	n/a	n/a	1	0.0442902991734	blockFiles/set_29/main_PD/GB_runPatches1.xlsx
248	patches	True	n/a	436	0	n/a	n/a	1.0	0	right	n/a	n/a	n/a	0	-0.033152387403	blockFiles/set_29/main_PD/GB_runPatches1.xlsx
249	patches	True	n/a	436	0	n/a	n/a	0.0	1	left	n/a	n/a	n/a	0	-0.031070352606500002	blockFiles/set_29/main_PD/GB_runPatches1.xlsx
250	patches	True	n/a	436	0	n/a	n/a	1.0	1	right	n/a	n/a	n/a	1	0.010121717099100001	blockFiles/set_29/main_PD/GB_runPatches1.xlsx
251	patches	True	n/a	436	0	n/a	n/a	1.0	1	right	n/a	n/a	n/a	1	0.0622037526779	blockFiles/set_29/main_PD/GB_runPatches1.xlsx
252	patches	True	n/a	436	0	n/a	n/a	1.0	1	right	n/a	n/a	n/a	1	0.023212124351400003	blockFiles/set_29/main_PD/GB_runPatches1.xlsx
253	patches	True	n/a	436	0	n/a	n/a	1.0	0	right	n/a	n/a	n/a	0	-0.00280557276681	blockFiles/set_29/main_PD/GB_runPatches1.xlsx
254	main_unc	True	0.0	436	0	0.0	0.0	1.0	1	right	1.0	1.0	1.0	1	0.07922187453139999	blockFiles/set_29/main_unc/leftBlue\GB_LB_1.xlsx
255	main_unc	True	0.0	436	0	0.0	0.0	1.0	1	right	1.0	1.0	1.0	1	0.0395672916621	blockFiles/set_29/main_unc/leftBlue\GB_LB_1.xlsx
256	main_unc	True	0.0	436	0	0.0	0.0	0.0	1	left	2.0	1.0	1.0	0	-0.053012435696999996	blockFiles/set_29/main_unc/leftBlue\GB_LB_1.xlsx
257	main_unc	True	0.0	436	0	0.0	0.0	1.0	1	right	1.0	1.0	1.0	1	0.0340879687853	blockFiles/set_29/main_unc/leftBlue\GB_LB_1.xlsx
258	main_unc	True	0.0	436	0	0.0	0.0	0.0	1	left	2.0	1.0	1.0	0	-0.0025677109882199997	blockFiles/set_29/main_unc/leftBlue\GB_LB_1.xlsx
259	main_unc	True	0.0	436	0	0.0	0.0	0.0	1	left	2.0	1.0	1.0	0	-0.0187667500041	blockFiles/set_29/main_unc/leftBlue\GB_LB_1.xlsx
260	main_unc	True	0.0	436	0	0.0	0.0	0.0	1	left	2.0	0.0	1.0	0	-0.0416219148226	blockFiles/set_29/main_unc/leftBlue\GB_LB_1.xlsx
261	main_unc	True	1.0	436	0	0.0	0.0	0.0	1	left	n/a	0.0	n/a	0	-0.0428526402451	blockFiles/set_29/main_unc/leftBlue\GB_LB_1.xlsx
262	main_unc	True	0.0	436	0	0.0	0.0	1.0	1	right	1.0	1.0	1.0	1	0.0352741323784	blockFiles/set_29/main_unc/leftBlue\GB_LB_1.xlsx
263	main_unc	True	0.0	436	0	0.0	0.0	1.0	1	right	1.0	1.0	1.0	1	0.0771041205898	blockFiles/set_29/main_unc/leftBlue\GB_LB_1.xlsx
264	main_unc	True	0.0	436	0	0.0	0.0	0.0	1	left	2.0	1.0	1.0	0	-0.0338839997537	blockFiles/set_29/main_unc/leftBlue\GB_LB_1.xlsx
265	main_unc	True	0.0	436	0	0.0	0.0	1.0	1	right	1.0	0.0	1.0	1	0.039685128256699995	blockFiles/set_29/main_unc/leftBlue\GB_LB_1.xlsx
266	main_unc	True	0.0	436	0	0.0	0.0	0.0	1	left	2.0	1.0	1.0	0	-0.0676007646136	blockFiles/set_29/main_unc/leftBlue\GB_LB_1.xlsx
267	main_unc	True	0.0	436	0	0.0	0.0	0.0	1	left	2.0	1.0	1.0	0	-0.034758450202599996	blockFiles/set_29/main_unc/leftBlue\GB_LB_1.xlsx
268	main_unc	True	0.0	436	0	0.0	0.0	0.0	1	left	1.0	0.0	0.0	0	-0.0232393484004	blockFiles/set_29/main_unc/leftBlue\GB_LB_1.xlsx
269	main_unc	True	0.0	436	0	0.0	0.0	1.0	1	right	1.0	1.0	1.0	1	0.018225394506	blockFiles/set_29/main_unc/leftBlue\GB_LB_1.xlsx
270	main_unc	True	0.0	436	0	0.0	0.0	1.0	1	right	2.0	0.0	0.0	1	0.0499009444006	blockFiles/set_29/main_unc/leftBlue\GB_LB_1.xlsx
271	main_unc	True	0.0	436	0	0.0	0.0	0.0	1	left	1.0	0.0	0.0	0	-0.0282480136864	blockFiles/set_29/main_unc/leftBlue\GB_LB_1.xlsx
272	main_unc	True	0.0	436	0	0.0	0.0	0.0	1	left	2.0	0.0	1.0	0	-0.0665266728215	blockFiles/set_29/main_unc/leftBlue\GB_LB_1.xlsx
273	main_unc	True	0.0	436	0	0.0	0.0	1.0	1	right	1.0	1.0	1.0	1	0.024795805644200003	blockFiles/set_29/main_unc/leftBlue\GB_LB_1.xlsx
274	main_unc	True	0.0	436	0	0.0	0.0	1.0	1	right	1.0	0.0	1.0	1	0.062981990166	blockFiles/set_29/main_unc/leftBlue\GB_LB_1.xlsx
275	main_unc	True	0.0	436	0	0.0	0.0	1.0	1	right	1.0	1.0	1.0	1	0.005123820994050001	blockFiles/set_29/main_unc/leftBlue\GB_LB_1.xlsx
276	main_unc	True	0.0	436	0	0.0	0.0	0.0	1	left	2.0	1.0	1.0	0	-0.0436120849662	blockFiles/set_29/main_unc/leftBlue\GB_LB_1.xlsx
277	main_unc	True	0.0	436	0	0.0	0.0	0.0	0	left	1.0	0.0	1.0	1	0.037763000614900004	blockFiles/set_29/main_unc/leftBlue\GB_LB_1.xlsx
278	main_unc	True	0.0	436	0	0.0	0.0	1.0	1	right	1.0	1.0	1.0	1	0.0291628293879	blockFiles/set_29/main_unc/leftBlue\GB_LB_1.xlsx
279	main_unc	True	0.0	436	0	0.0	0.0	0.0	1	left	2.0	1.0	1.0	0	-0.0428526402451	blockFiles/set_29/main_unc/leftBlue\GB_LB_1.xlsx
280	main_unc	True	1.0	436	0	1.0	1.0	n/a	0	None	n/a	0.0	n/a	0	-0.06632917065169999	blockFiles/set_29/main_unc/leftBlue\GB_LB_6.xlsx
281	main_unc	True	0.0	436	0	1.0	1.0	1.0	1	right	1.0	1.0	1.0	1	0.043888159506	blockFiles/set_29/main_unc/leftBlue\GB_LB_6.xlsx
282	main_unc	True	0.0	436	0	1.0	1.0	1.0	1	right	1.0	1.0	1.0	1	0.0621149052493	blockFiles/set_29/main_unc/leftBlue\GB_LB_6.xlsx
283	main_unc	True	0.0	436	0	1.0	1.0	0.0	1	left	2.0	1.0	1.0	0	-0.022105709910400003	blockFiles/set_29/main_unc/leftBlue\GB_LB_6.xlsx
284	main_unc	True	0.0	436	0	1.0	1.0	0.0	1	left	2.0	1.0	1.0	0	-0.027127270475	blockFiles/set_29/main_unc/leftBlue\GB_LB_6.xlsx
285	main_unc	True	0.0	436	0	1.0	1.0	1.0	0	right	2.0	0.0	1.0	0	-0.0118594515696	blockFiles/set_29/main_unc/leftBlue\GB_LB_6.xlsx
286	main_unc	True	0.0	436	0	1.0	1.0	1.0	1	right	1.0	1.0	1.0	1	0.063605193235	blockFiles/set_29/main_unc/leftBlue\GB_LB_6.xlsx
287	main_unc	True	0.0	436	0	1.0	1.0	0.0	1	left	2.0	1.0	1.0	0	-0.0525903674401	blockFiles/set_29/main_unc/leftBlue\GB_LB_6.xlsx
288	main_unc	True	0.0	436	0	1.0	1.0	1.0	1	right	1.0	0.0	1.0	1	0.0567214337923	blockFiles/set_29/main_unc/leftBlue\GB_LB_6.xlsx
289	main_unc	True	0.0	436	0	1.0	1.0	1.0	1	right	1.0	1.0	1.0	1	0.0659170809016	blockFiles/set_29/main_unc/leftBlue\GB_LB_6.xlsx
290	main_unc	True	0.0	436	0	1.0	1.0	0.0	1	left	2.0	1.0	1.0	0	-0.028893851209400002	blockFiles/set_29/main_unc/leftBlue\GB_LB_6.xlsx
291	main_unc	True	0.0	436	0	1.0	1.0	1.0	0	right	1.0	0.0	0.0	0	-0.00452862953767	blockFiles/set_29/main_unc/leftBlue\GB_LB_6.xlsx
292	main_unc	True	0.0	436	0	1.0	1.0	0.0	1	left	2.0	1.0	1.0	0	-0.00885811297223	blockFiles/set_29/main_unc/leftBlue\GB_LB_6.xlsx
293	main_unc	True	0.0	436	0	1.0	1.0	1.0	1	right	2.0	1.0	0.0	1	0.0630555434339	blockFiles/set_29/main_unc/leftBlue\GB_LB_6.xlsx
294	main_unc	True	0.0	436	0	1.0	1.0	1.0	1	right	1.0	1.0	1.0	1	0.0529127460159	blockFiles/set_29/main_unc/leftBlue\GB_LB_6.xlsx
295	main_unc	True	0.0	436	0	1.0	1.0	0.0	1	left	2.0	1.0	1.0	0	-0.0582389273867	blockFiles/set_29/main_unc/leftBlue\GB_LB_6.xlsx
296	main_unc	True	0.0	436	0	1.0	1.0	1.0	1	right	2.0	0.0	0.0	1	0.0577793763764	blockFiles/set_29/main_unc/leftBlue\GB_LB_6.xlsx
297	main_unc	True	0.0	436	0	1.0	1.0	1.0	1	right	1.0	1.0	1.0	1	0.034884054399999996	blockFiles/set_29/main_unc/leftBlue\GB_LB_6.xlsx
298	main_unc	True	1.0	436	0	1.0	1.0	n/a	0	None	n/a	0.0	n/a	0	-0.00434369603172	blockFiles/set_29/main_unc/leftBlue\GB_LB_6.xlsx
299	main_unc	True	1.0	436	0	1.0	1.0	0.0	1	left	n/a	0.0	n/a	0	-0.0356329040602	blockFiles/set_29/main_unc/leftBlue\GB_LB_6.xlsx
300	main_unc	True	0.0	436	0	1.0	1.0	1.0	1	right	1.0	1.0	1.0	1	0.040611793007699994	blockFiles/set_29/main_unc/leftBlue\GB_LB_6.xlsx
301	main_unc	True	0.0	436	0	1.0	1.0	1.0	1	right	2.0	0.0	0.0	1	0.0753154294752	blockFiles/set_29/main_unc/leftBlue\GB_LB_6.xlsx
302	main_unc	True	0.0	436	0	1.0	1.0	1.0	1	right	1.0	1.0	1.0	1	0.0577265553549	blockFiles/set_29/main_unc/leftBlue\GB_LB_6.xlsx
303	main_unc	True	0.0	436	0	1.0	1.0	1.0	1	right	1.0	1.0	1.0	1	0.0791783133894	blockFiles/set_29/main_unc/leftBlue\GB_LB_6.xlsx
304	main_unc	True	0.0	436	0	1.0	1.0	1.0	0	right	2.0	1.0	1.0	0	-0.010290350634600001	blockFiles/set_29/main_unc/leftBlue\GB_LB_6.xlsx
305	main_unc	True	0.0	436	0	1.0	1.0	0.0	1	left	2.0	1.0	1.0	0	-0.06632917065169999	blockFiles/set_29/main_unc/leftBlue\GB_LB_6.xlsx
306	main_unc	True	0.0	436	0	1.0	1.0	1.0	0	right	2.0	1.0	1.0	0	-0.00434369603172	blockFiles/set_29/main_unc/leftBlue\GB_LB_6.xlsx
307	main_unc	True	0.0	436	0	1.0	1.0	0.0	1	left	1.0	0.0	0.0	0	-0.0356329040602	blockFiles/set_29/main_unc/leftBlue\GB_LB_6.xlsx
308	main_unc	True	0.0	436	0	2.0	2.0	1.0	1	right	2.0	1.0	0.0	1	0.06874795872719999	blockFiles/set_29/main_unc/leftBlue\GB_LB_2.xlsx
309	main_unc	True	0.0	436	0	2.0	2.0	0.0	1	left	1.0	1.0	0.0	0	-0.023774790577599996	blockFiles/set_29/main_unc/leftBlue\GB_LB_2.xlsx
310	main_unc	True	0.0	436	0	2.0	2.0	0.0	1	left	1.0	0.0	0.0	0	-0.0103779424168	blockFiles/set_29/main_unc/leftBlue\GB_LB_2.xlsx
311	main_unc	True	0.0	436	0	2.0	2.0	0.0	1	left	1.0	0.0	0.0	0	-0.049974315129199996	blockFiles/set_29/main_unc/leftBlue\GB_LB_2.xlsx
312	main_unc	True	0.0	436	0	2.0	2.0	0.0	1	left	2.0	1.0	1.0	0	-0.0140340247937	blockFiles/set_29/main_unc/leftBlue\GB_LB_2.xlsx
313	main_unc	True	0.0	436	0	2.0	2.0	0.0	0	left	1.0	1.0	1.0	1	0.0262363079935	blockFiles/set_29/main_unc/leftBlue\GB_LB_2.xlsx
314	main_unc	True	0.0	436	0	2.0	2.0	1.0	1	right	1.0	1.0	1.0	1	0.035256033763300006	blockFiles/set_29/main_unc/leftBlue\GB_LB_2.xlsx
315	main_unc	True	0.0	436	0	2.0	2.0	0.0	1	left	2.0	1.0	1.0	0	-0.0454778465256	blockFiles/set_29/main_unc/leftBlue\GB_LB_2.xlsx
316	main_unc	True	0.0	436	0	2.0	2.0	0.0	0	left	1.0	0.0	1.0	1	0.0490625567734	blockFiles/set_29/main_unc/leftBlue\GB_LB_2.xlsx
317	main_unc	True	0.0	436	0	2.0	2.0	0.0	1	left	2.0	1.0	1.0	0	-0.0655573257618	blockFiles/set_29/main_unc/leftBlue\GB_LB_2.xlsx
318	main_unc	True	0.0	436	0	2.0	2.0	1.0	1	right	1.0	0.0	1.0	1	0.051224156878899994	blockFiles/set_29/main_unc/leftBlue\GB_LB_2.xlsx
319	main_unc	True	1.0	436	0	2.0	2.0	n/a	0	None	n/a	0.0	n/a	1	0.054266615044300005	blockFiles/set_29/main_unc/leftBlue\GB_LB_2.xlsx
320	main_unc	True	0.0	436	0	2.0	2.0	0.0	0	left	1.0	1.0	1.0	1	0.00583296244964	blockFiles/set_29/main_unc/leftBlue\GB_LB_2.xlsx
321	main_unc	True	0.0	436	0	2.0	2.0	0.0	0	left	1.0	1.0	1.0	1	0.047112734764800004	blockFiles/set_29/main_unc/leftBlue\GB_LB_2.xlsx
322	main_unc	True	0.0	436	0	2.0	2.0	0.0	0	left	2.0	0.0	0.0	1	0.018073708079799997	blockFiles/set_29/main_unc/leftBlue\GB_LB_2.xlsx
323	main_unc	True	0.0	436	0	2.0	2.0	0.0	1	left	2.0	1.0	1.0	0	-0.059910770449800005	blockFiles/set_29/main_unc/leftBlue\GB_LB_2.xlsx
324	main_unc	True	0.0	436	0	2.0	2.0	0.0	0	left	1.0	1.0	1.0	1	0.0366260111704	blockFiles/set_29/main_unc/leftBlue\GB_LB_2.xlsx
325	main_unc	True	0.0	436	0	2.0	2.0	0.0	1	left	2.0	1.0	1.0	0	-0.0010165720619299998	blockFiles/set_29/main_unc/leftBlue\GB_LB_2.xlsx
326	main_unc	True	0.0	436	0	2.0	2.0	0.0	1	left	1.0	1.0	0.0	0	-0.0261224520579	blockFiles/set_29/main_unc/leftBlue\GB_LB_2.xlsx
327	main_unc	True	0.0	436	0	2.0	2.0	0.0	1	left	2.0	1.0	1.0	0	-0.0595456155576	blockFiles/set_29/main_unc/leftBlue\GB_LB_2.xlsx
328	main_unc	True	0.0	436	0	2.0	2.0	1.0	1	right	1.0	1.0	1.0	1	0.07242444569239999	blockFiles/set_29/main_unc/leftBlue\GB_LB_2.xlsx
329	main_unc	True	0.0	436	0	2.0	2.0	1.0	1	right	1.0	1.0	1.0	1	0.0184970274381	blockFiles/set_29/main_unc/leftBlue\GB_LB_2.xlsx
330	main_unc	True	0.0	436	0	2.0	2.0	0.0	1	left	2.0	1.0	1.0	0	-0.0764531642385	blockFiles/set_29/main_unc/leftBlue\GB_LB_2.xlsx
331	main_unc	True	0.0	436	0	2.0	2.0	0.0	1	left	2.0	1.0	1.0	0	-0.014447956252800001	blockFiles/set_29/main_unc/leftBlue\GB_LB_2.xlsx
332	main_unc	True	0.0	436	0	2.0	2.0	0.0	1	left	2.0	1.0	1.0	0	-0.0513932508603	blockFiles/set_29/main_unc/leftBlue\GB_LB_2.xlsx
333	main_unc	True	0.0	436	0	2.0	2.0	1.0	1	right	1.0	1.0	1.0	1	0.054266615044300005	blockFiles/set_29/main_unc/leftBlue\GB_LB_2.xlsx
334	main_unc	True	0.0	436	0	3.0	3.0	0.0	1	left	1.0	1.0	1.0	0	-0.00155489686877	blockFiles/set_29/main_unc/rightBlue\GB_RB_5.xlsx
335	main_unc	True	0.0	436	0	3.0	3.0	1.0	1	right	2.0	1.0	1.0	1	0.025363448485699998	blockFiles/set_29/main_unc/rightBlue\GB_RB_5.xlsx
336	main_unc	True	0.0	436	0	3.0	3.0	0.0	1	left	1.0	1.0	1.0	0	-0.06960047762839999	blockFiles/set_29/main_unc/rightBlue\GB_RB_5.xlsx
337	main_unc	True	0.0	436	0	3.0	3.0	0.0	1	left	1.0	1.0	1.0	0	-0.0617906961218	blockFiles/set_29/main_unc/rightBlue\GB_RB_5.xlsx
338	main_unc	True	0.0	436	0	3.0	3.0	0.0	1	left	1.0	1.0	1.0	0	-0.0094139190577	blockFiles/set_29/main_unc/rightBlue\GB_RB_5.xlsx
339	main_unc	True	0.0	436	0	3.0	3.0	0.0	1	left	1.0	0.0	1.0	0	-0.0539066245034	blockFiles/set_29/main_unc/rightBlue\GB_RB_5.xlsx
340	main_unc	True	0.0	436	0	3.0	3.0	0.0	1	left	1.0	0.0	1.0	0	-0.042557539790900004	blockFiles/set_29/main_unc/rightBlue\GB_RB_5.xlsx
341	main_unc	True	0.0	436	0	3.0	3.0	1.0	1	right	2.0	1.0	1.0	1	0.078334035445	blockFiles/set_29/main_unc/rightBlue\GB_RB_5.xlsx
342	main_unc	True	0.0	436	0	3.0	3.0	0.0	0	left	2.0	1.0	1.0	1	0.0190684204921	blockFiles/set_29/main_unc/rightBlue\GB_RB_5.xlsx
343	main_unc	True	0.0	436	0	3.0	3.0	0.0	0	left	2.0	1.0	1.0	1	0.059100514855199994	blockFiles/set_29/main_unc/rightBlue\GB_RB_5.xlsx
344	main_unc	True	0.0	436	0	3.0	3.0	0.0	1	left	1.0	0.0	1.0	0	-0.0448970173299	blockFiles/set_29/main_unc/rightBlue\GB_RB_5.xlsx
345	main_unc	True	0.0	436	0	3.0	3.0	0.0	1	left	1.0	1.0	1.0	0	-0.028108408860900002	blockFiles/set_29/main_unc/rightBlue\GB_RB_5.xlsx
346	main_unc	True	0.0	436	0	3.0	3.0	1.0	1	right	2.0	1.0	1.0	1	0.0642124646716	blockFiles/set_29/main_unc/rightBlue\GB_RB_5.xlsx
347	main_unc	True	0.0	436	0	3.0	3.0	0.0	1	left	1.0	0.0	1.0	0	-0.0396780550852	blockFiles/set_29/main_unc/rightBlue\GB_RB_5.xlsx
348	main_unc	True	0.0	436	0	3.0	3.0	0.0	1	left	1.0	1.0	1.0	0	-0.047856743838599995	blockFiles/set_29/main_unc/rightBlue\GB_RB_5.xlsx
349	main_unc	True	0.0	436	0	3.0	3.0	0.0	1	left	2.0	0.0	0.0	0	-0.038719800114599995	blockFiles/set_29/main_unc/rightBlue\GB_RB_5.xlsx
350	main_unc	True	0.0	436	0	3.0	3.0	0.0	0	left	2.0	1.0	1.0	1	0.025908490810500003	blockFiles/set_29/main_unc/rightBlue\GB_RB_5.xlsx
351	main_unc	True	0.0	436	0	3.0	3.0	1.0	1	right	2.0	1.0	1.0	1	0.0251139177382	blockFiles/set_29/main_unc/rightBlue\GB_RB_5.xlsx
352	main_unc	True	0.0	436	0	3.0	3.0	1.0	0	right	2.0	0.0	0.0	0	-9.04848240316e-05	blockFiles/set_29/main_unc/rightBlue\GB_RB_5.xlsx
353	main_unc	True	0.0	436	0	3.0	3.0	1.0	1	right	2.0	0.0	1.0	1	0.049131746515600004	blockFiles/set_29/main_unc/rightBlue\GB_RB_5.xlsx
354	main_unc	True	0.0	436	0	3.0	3.0	1.0	1	right	2.0	1.0	1.0	1	0.068607423231	blockFiles/set_29/main_unc/rightBlue\GB_RB_5.xlsx
355	main_unc	True	0.0	436	0	3.0	3.0	1.0	1	right	2.0	1.0	1.0	1	0.0745623555593	blockFiles/set_29/main_unc/rightBlue\GB_RB_5.xlsx
356	main_unc	True	0.0	436	0	3.0	3.0	1.0	1	right	2.0	1.0	1.0	1	0.008915269654239999	blockFiles/set_29/main_unc/rightBlue\GB_RB_5.xlsx
357	main_unc	True	0.0	436	0	3.0	3.0	1.0	0	right	1.0	1.0	1.0	0	-0.028632690534	blockFiles/set_29/main_unc/rightBlue\GB_RB_5.xlsx
358	main_unc	True	1.0	436	0	3.0	3.0	1.0	1	right	n/a	0.0	n/a	1	0.00659158760682	blockFiles/set_29/main_unc/rightBlue\GB_RB_5.xlsx
359	main_unc	True	0.0	436	0	3.0	3.0	1.0	1	right	2.0	1.0	1.0	1	0.00659158760682	blockFiles/set_29/main_unc/rightBlue\GB_RB_5.xlsx
360	main_unc	True	1.0	436	0	4.0	4.0	n/a	0	None	n/a	0.0	n/a	1	0.0640511456504	blockFiles/set_29/main_unc/rightBlue\GB_RB_4.xlsx
361	main_unc	True	0.0	436	0	4.0	4.0	1.0	1	right	1.0	0.0	0.0	1	0.0356334450841	blockFiles/set_29/main_unc/rightBlue\GB_RB_4.xlsx
362	main_unc	True	0.0	436	0	4.0	4.0	1.0	1	right	1.0	0.0	0.0	1	0.0285701957531	blockFiles/set_29/main_unc/rightBlue\GB_RB_4.xlsx
363	main_unc	True	0.0	436	0	4.0	4.0	1.0	1	right	2.0	1.0	1.0	1	0.04674087191000001	blockFiles/set_29/main_unc/rightBlue\GB_RB_4.xlsx
364	main_unc	True	0.0	436	0	4.0	4.0	0.0	1	left	1.0	1.0	1.0	0	-0.030685541667	blockFiles/set_29/main_unc/rightBlue\GB_RB_4.xlsx
365	main_unc	True	0.0	436	0	4.0	4.0	0.0	0	left	1.0	0.0	0.0	1	0.000148100126535	blockFiles/set_29/main_unc/rightBlue\GB_RB_4.xlsx
366	main_unc	True	0.0	436	0	4.0	4.0	0.0	1	left	1.0	1.0	1.0	0	-0.0749074311554	blockFiles/set_29/main_unc/rightBlue\GB_RB_4.xlsx
367	main_unc	True	0.0	436	0	4.0	4.0	0.0	1	left	1.0	0.0	1.0	0	-0.07867756498980001	blockFiles/set_29/main_unc/rightBlue\GB_RB_4.xlsx
368	main_unc	True	0.0	436	0	4.0	4.0	1.0	1	right	2.0	1.0	1.0	1	0.031366833187599995	blockFiles/set_29/main_unc/rightBlue\GB_RB_4.xlsx
369	main_unc	True	0.0	436	0	4.0	4.0	0.0	1	left	1.0	1.0	1.0	0	-0.023702145125700003	blockFiles/set_29/main_unc/rightBlue\GB_RB_4.xlsx
370	main_unc	True	0.0	436	0	4.0	4.0	0.0	1	left	1.0	1.0	1.0	0	-0.030055802818400004	blockFiles/set_29/main_unc/rightBlue\GB_RB_4.xlsx
371	main_unc	True	0.0	436	0	4.0	4.0	0.0	1	left	2.0	0.0	0.0	0	-0.0480016697198	blockFiles/set_29/main_unc/rightBlue\GB_RB_4.xlsx
372	main_unc	True	0.0	436	0	4.0	4.0	1.0	1	right	2.0	1.0	1.0	1	0.0140603287518	blockFiles/set_29/main_unc/rightBlue\GB_RB_4.xlsx
373	main_unc	True	0.0	436	0	4.0	4.0	0.0	0	left	1.0	0.0	0.0	1	0.0461661988124	blockFiles/set_29/main_unc/rightBlue\GB_RB_4.xlsx
374	main_unc	True	0.0	436	0	4.0	4.0	0.0	1	left	1.0	1.0	1.0	0	-0.0623645660095	blockFiles/set_29/main_unc/rightBlue\GB_RB_4.xlsx
375	main_unc	True	0.0	436	0	4.0	4.0	0.0	0	left	1.0	0.0	0.0	1	0.024030977562099997	blockFiles/set_29/main_unc/rightBlue\GB_RB_4.xlsx
376	main_unc	True	0.0	436	0	4.0	4.0	0.0	1	left	1.0	0.0	1.0	0	-0.0174293286912	blockFiles/set_29/main_unc/rightBlue\GB_RB_4.xlsx
377	main_unc	True	0.0	436	0	4.0	4.0	0.0	1	left	2.0	1.0	0.0	0	-0.065239761807	blockFiles/set_29/main_unc/rightBlue\GB_RB_4.xlsx
378	main_unc	True	0.0	436	0	4.0	4.0	0.0	1	left	1.0	1.0	1.0	0	-0.026993935182699998	blockFiles/set_29/main_unc/rightBlue\GB_RB_4.xlsx
379	main_unc	True	0.0	436	0	4.0	4.0	0.0	1	left	1.0	1.0	1.0	0	-0.06672670096160001	blockFiles/set_29/main_unc/rightBlue\GB_RB_4.xlsx
380	main_unc	True	0.0	436	0	4.0	4.0	0.0	0	left	2.0	1.0	1.0	1	0.023174708616	blockFiles/set_29/main_unc/rightBlue\GB_RB_4.xlsx
381	main_unc	True	0.0	436	0	4.0	4.0	0.0	0	left	1.0	0.0	0.0	1	0.033084170091900005	blockFiles/set_29/main_unc/rightBlue\GB_RB_4.xlsx
382	main_unc	True	0.0	436	0	4.0	4.0	0.0	1	left	1.0	1.0	1.0	0	-0.054662214797	blockFiles/set_29/main_unc/rightBlue\GB_RB_4.xlsx
383	main_unc	True	0.0	436	0	4.0	4.0	0.0	1	left	1.0	0.0	1.0	0	-0.00633877402171	blockFiles/set_29/main_unc/rightBlue\GB_RB_4.xlsx
384	main_unc	True	0.0	436	0	4.0	4.0	0.0	0	left	2.0	1.0	1.0	1	0.0513193682954	blockFiles/set_29/main_unc/rightBlue\GB_RB_4.xlsx
385	main_unc	True	0.0	436	0	4.0	4.0	1.0	1	right	2.0	1.0	1.0	1	0.0640511456504	blockFiles/set_29/main_unc/rightBlue\GB_RB_4.xlsx
386	main_unc	True	1.0	436	0	5.0	5.0	n/a	0	None	n/a	0.0	n/a	1	0.0744277995266	blockFiles/set_29/main_unc/leftBlue\GB_LB_4.xlsx
387	main_unc	True	0.0	436	0	5.0	5.0	0.0	1	left	2.0	1.0	1.0	0	-0.041199526544699994	blockFiles/set_29/main_unc/leftBlue\GB_LB_4.xlsx
388	main_unc	True	0.0	436	0	5.0	5.0	1.0	1	right	1.0	1.0	1.0	1	0.008959933668379999	blockFiles/set_29/main_unc/leftBlue\GB_LB_4.xlsx
389	main_unc	True	0.0	436	0	5.0	5.0	0.0	1	left	2.0	0.0	1.0	0	-0.0672269320302	blockFiles/set_29/main_unc/leftBlue\GB_LB_4.xlsx
390	main_unc	True	0.0	436	0	5.0	5.0	0.0	1	left	2.0	1.0	1.0	0	-0.0252683062665	blockFiles/set_29/main_unc/leftBlue\GB_LB_4.xlsx
391	main_unc	True	0.0	436	0	5.0	5.0	0.0	1	left	2.0	1.0	1.0	0	-0.0309762176685	blockFiles/set_29/main_unc/leftBlue\GB_LB_4.xlsx
392	main_unc	True	0.0	436	0	5.0	5.0	0.0	0	left	1.0	0.0	1.0	1	0.0209544336237	blockFiles/set_29/main_unc/leftBlue\GB_LB_4.xlsx
393	main_unc	True	0.0	436	0	5.0	5.0	0.0	1	left	2.0	1.0	1.0	0	-0.0511222594604	blockFiles/set_29/main_unc/leftBlue\GB_LB_4.xlsx
394	main_unc	True	0.0	436	0	5.0	5.0	1.0	1	right	1.0	1.0	1.0	1	0.0591028965823	blockFiles/set_29/main_unc/leftBlue\GB_LB_4.xlsx
395	main_unc	True	0.0	436	0	5.0	5.0	0.0	0	left	2.0	0.0	0.0	1	0.008674900252370001	blockFiles/set_29/main_unc/leftBlue\GB_LB_4.xlsx
396	main_unc	True	0.0	436	0	5.0	5.0	0.0	1	left	2.0	1.0	1.0	0	-0.0703661337867	blockFiles/set_29/main_unc/leftBlue\GB_LB_4.xlsx
397	main_unc	True	0.0	436	0	5.0	5.0	1.0	0	right	2.0	1.0	1.0	0	-0.030404944662	blockFiles/set_29/main_unc/leftBlue\GB_LB_4.xlsx
398	main_unc	True	0.0	436	0	5.0	5.0	0.0	0	left	1.0	1.0	1.0	1	0.0489328931272	blockFiles/set_29/main_unc/leftBlue\GB_LB_4.xlsx
399	main_unc	True	0.0	436	0	5.0	5.0	1.0	1	right	1.0	1.0	1.0	1	0.00204690594226	blockFiles/set_29/main_unc/leftBlue\GB_LB_4.xlsx
400	main_unc	True	0.0	436	0	5.0	5.0	0.0	1	left	2.0	1.0	1.0	0	-0.0533956020512	blockFiles/set_29/main_unc/leftBlue\GB_LB_4.xlsx
401	main_unc	True	0.0	436	0	5.0	5.0	0.0	0	left	1.0	1.0	1.0	1	0.0104810430855	blockFiles/set_29/main_unc/leftBlue\GB_LB_4.xlsx
402	main_unc	True	0.0	436	0	5.0	5.0	1.0	1	right	1.0	1.0	1.0	1	0.0777914739028	blockFiles/set_29/main_unc/leftBlue\GB_LB_4.xlsx
403	main_unc	True	0.0	436	0	5.0	5.0	0.0	0	left	1.0	0.0	1.0	1	0.0186599750631	blockFiles/set_29/main_unc/leftBlue\GB_LB_4.xlsx
404	main_unc	True	0.0	436	0	5.0	5.0	0.0	1	left	2.0	1.0	1.0	0	-0.0075268901698299995	blockFiles/set_29/main_unc/leftBlue\GB_LB_4.xlsx
405	main_unc	True	0.0	436	0	5.0	5.0	1.0	1	right	1.0	1.0	1.0	1	0.0426959980838	blockFiles/set_29/main_unc/leftBlue\GB_LB_4.xlsx
406	main_unc	True	0.0	436	0	5.0	5.0	0.0	1	left	1.0	0.0	0.0	0	-0.0372718913667	blockFiles/set_29/main_unc/leftBlue\GB_LB_4.xlsx
407	main_unc	True	0.0	436	0	5.0	5.0	1.0	1	right	1.0	1.0	1.0	1	0.0458942240477	blockFiles/set_29/main_unc/leftBlue\GB_LB_4.xlsx
408	main_unc	True	0.0	436	0	5.0	5.0	1.0	1	right	1.0	0.0	1.0	1	0.0465299293026	blockFiles/set_29/main_unc/leftBlue\GB_LB_4.xlsx
409	main_unc	True	0.0	436	0	5.0	5.0	0.0	1	left	1.0	1.0	0.0	0	-0.00360675025731	blockFiles/set_29/main_unc/leftBlue\GB_LB_4.xlsx
410	main_unc	True	0.0	436	0	5.0	5.0	0.0	1	left	1.0	0.0	0.0	0	-0.0712965195999	blockFiles/set_29/main_unc/leftBlue\GB_LB_4.xlsx
411	main_unc	True	0.0	436	0	5.0	5.0	1.0	1	right	1.0	1.0	1.0	1	0.0744277995266	blockFiles/set_29/main_unc/leftBlue\GB_LB_4.xlsx
412	main_unc	True	0.0	436	0	6.0	6.0	0.0	1	left	1.0	1.0	1.0	0	-0.0695508177951	blockFiles/set_29/main_unc/rightBlue\GB_RB_3.xlsx
413	main_unc	True	0.0	436	0	6.0	6.0	0.0	1	left	1.0	1.0	1.0	0	-0.022811730932400003	blockFiles/set_29/main_unc/rightBlue\GB_RB_3.xlsx
414	main_unc	True	0.0	436	0	6.0	6.0	0.0	0	left	2.0	1.0	1.0	1	0.0405613844655	blockFiles/set_29/main_unc/rightBlue\GB_RB_3.xlsx
415	main_unc	True	0.0	436	0	6.0	6.0	0.0	1	left	1.0	1.0	1.0	0	-0.032424916755400005	blockFiles/set_29/main_unc/rightBlue\GB_RB_3.xlsx
416	main_unc	True	0.0	436	0	6.0	6.0	1.0	1	right	2.0	0.0	1.0	1	0.0436714569479	blockFiles/set_29/main_unc/rightBlue\GB_RB_3.xlsx
417	main_unc	True	0.0	436	0	6.0	6.0	1.0	1	right	2.0	1.0	1.0	1	0.024590271282900002	blockFiles/set_29/main_unc/rightBlue\GB_RB_3.xlsx
418	main_unc	True	0.0	436	0	6.0	6.0	0.0	1	left	1.0	1.0	1.0	0	-0.0191790167615	blockFiles/set_29/main_unc/rightBlue\GB_RB_3.xlsx
419	main_unc	True	0.0	436	0	6.0	6.0	0.0	1	left	1.0	1.0	1.0	0	-0.029806699492000002	blockFiles/set_29/main_unc/rightBlue\GB_RB_3.xlsx
420	main_unc	True	0.0	436	0	6.0	6.0	0.0	1	left	1.0	1.0	1.0	0	-0.0702763124369	blockFiles/set_29/main_unc/rightBlue\GB_RB_3.xlsx
421	main_unc	True	0.0	436	0	6.0	6.0	0.0	1	left	1.0	1.0	1.0	0	-0.0450798460282	blockFiles/set_29/main_unc/rightBlue\GB_RB_3.xlsx
422	main_unc	True	0.0	436	0	6.0	6.0	0.0	0	left	2.0	1.0	1.0	1	0.0741777774505	blockFiles/set_29/main_unc/rightBlue\GB_RB_3.xlsx
423	main_unc	True	0.0	436	0	6.0	6.0	1.0	1	right	2.0	0.0	1.0	1	0.0233528573625	blockFiles/set_29/main_unc/rightBlue\GB_RB_3.xlsx
424	main_unc	True	0.0	436	0	6.0	6.0	1.0	0	right	1.0	1.0	1.0	0	-0.0363623600453	blockFiles/set_29/main_unc/rightBlue\GB_RB_3.xlsx
425	main_unc	True	0.0	436	0	6.0	6.0	0.0	1	left	1.0	0.0	1.0	0	-0.0187871987559	blockFiles/set_29/main_unc/rightBlue\GB_RB_3.xlsx
426	main_unc	True	0.0	436	0	6.0	6.0	0.0	1	left	1.0	1.0	1.0	0	-0.017610765770099998	blockFiles/set_29/main_unc/rightBlue\GB_RB_3.xlsx
427	main_unc	True	1.0	436	0	6.0	6.0	0.0	1	left	n/a	0.0	n/a	0	-0.06979866860430001	blockFiles/set_29/main_unc/rightBlue\GB_RB_3.xlsx
428	main_unc	True	0.0	436	0	6.0	6.0	1.0	1	right	2.0	1.0	1.0	1	0.05694138489659999	blockFiles/set_29/main_unc/rightBlue\GB_RB_3.xlsx
429	main_unc	True	1.0	436	0	6.0	6.0	n/a	0	None	n/a	0.0	n/a	1	0.0302936911955	blockFiles/set_29/main_unc/rightBlue\GB_RB_3.xlsx
430	main_unc	True	0.0	436	0	6.0	6.0	1.0	1	right	1.0	1.0	0.0	1	0.011693701129399998	blockFiles/set_29/main_unc/rightBlue\GB_RB_3.xlsx
431	main_unc	True	0.0	436	0	6.0	6.0	1.0	1	right	2.0	1.0	1.0	1	0.0531016569585	blockFiles/set_29/main_unc/rightBlue\GB_RB_3.xlsx
432	main_unc	True	0.0	436	0	6.0	6.0	1.0	0	right	2.0	0.0	0.0	0	-0.018737242836500002	blockFiles/set_29/main_unc/rightBlue\GB_RB_3.xlsx
433	main_unc	True	0.0	436	0	6.0	6.0	1.0	1	right	1.0	1.0	0.0	1	0.0640149876103	blockFiles/set_29/main_unc/rightBlue\GB_RB_3.xlsx
434	main_unc	True	0.0	436	0	6.0	6.0	0.0	0	left	1.0	0.0	0.0	1	0.0169715488888	blockFiles/set_29/main_unc/rightBlue\GB_RB_3.xlsx
435	main_unc	True	0.0	436	0	6.0	6.0	0.0	1	left	1.0	1.0	1.0	0	-0.07832813877610001	blockFiles/set_29/main_unc/rightBlue\GB_RB_3.xlsx
436	main_unc	True	0.0	436	0	6.0	6.0	1.0	1	right	2.0	1.0	1.0	1	0.0309993638471	blockFiles/set_29/main_unc/rightBlue\GB_RB_3.xlsx
437	main_unc	True	0.0	436	0	6.0	6.0	0.0	1	left	1.0	1.0	1.0	0	-0.06979866860430001	blockFiles/set_29/main_unc/rightBlue\GB_RB_3.xlsx
438	main_unc	True	0.0	436	0	6.0	6.0	1.0	1	right	2.0	1.0	1.0	1	0.0302936911955	blockFiles/set_29/main_unc/rightBlue\GB_RB_3.xlsx
439	main_unc	True	0.0	436	0	7.0	7.0	0.0	1	left	2.0	1.0	1.0	0	-0.0293069861084	blockFiles/set_29/main_unc/leftBlue\GB_LB_5.xlsx
440	main_unc	True	0.0	436	0	7.0	7.0	1.0	1	right	1.0	1.0	1.0	1	0.014584814514999999	blockFiles/set_29/main_unc/leftBlue\GB_LB_5.xlsx
441	main_unc	True	0.0	436	0	7.0	7.0	1.0	1	right	1.0	0.0	1.0	1	0.0617098477855	blockFiles/set_29/main_unc/leftBlue\GB_LB_5.xlsx
442	main_unc	True	0.0	436	0	7.0	7.0	1.0	1	right	1.0	1.0	1.0	1	0.0395555725507	blockFiles/set_29/main_unc/leftBlue\GB_LB_5.xlsx
443	main_unc	True	0.0	436	0	7.0	7.0	1.0	1	right	1.0	1.0	1.0	1	0.0774164382555	blockFiles/set_29/main_unc/leftBlue\GB_LB_5.xlsx
444	main_unc	True	0.0	436	0	7.0	7.0	1.0	0	right	1.0	0.0	0.0	0	-0.0235171629116	blockFiles/set_29/main_unc/leftBlue\GB_LB_5.xlsx
445	main_unc	True	0.0	436	0	7.0	7.0	1.0	1	right	1.0	1.0	1.0	1	0.0350418696925	blockFiles/set_29/main_unc/leftBlue\GB_LB_5.xlsx
446	main_unc	True	0.0	436	0	7.0	7.0	0.0	1	left	2.0	1.0	1.0	0	-0.0545322636142	blockFiles/set_29/main_unc/leftBlue\GB_LB_5.xlsx
447	main_unc	True	0.0	436	0	7.0	7.0	1.0	1	right	2.0	1.0	0.0	1	0.0198493885808	blockFiles/set_29/main_unc/leftBlue\GB_LB_5.xlsx
448	main_unc	True	0.0	436	0	7.0	7.0	0.0	1	left	2.0	1.0	1.0	0	-0.042950785011099994	blockFiles/set_29/main_unc/leftBlue\GB_LB_5.xlsx
449	main_unc	True	0.0	436	0	7.0	7.0	0.0	1	left	2.0	0.0	1.0	0	-0.049830370284599995	blockFiles/set_29/main_unc/leftBlue\GB_LB_5.xlsx
450	main_unc	True	0.0	436	0	7.0	7.0	0.0	1	left	2.0	1.0	1.0	0	-0.00958562033251	blockFiles/set_29/main_unc/leftBlue\GB_LB_5.xlsx
451	main_unc	True	0.0	436	0	7.0	7.0	0.0	1	left	2.0	1.0	1.0	0	-0.0743090794608	blockFiles/set_29/main_unc/leftBlue\GB_LB_5.xlsx
452	main_unc	True	0.0	436	0	7.0	7.0	0.0	0	left	2.0	1.0	0.0	1	0.00367205906659	blockFiles/set_29/main_unc/leftBlue\GB_LB_5.xlsx
453	main_unc	True	0.0	436	0	7.0	7.0	0.0	0	left	1.0	0.0	1.0	1	0.0606167369895	blockFiles/set_29/main_unc/leftBlue\GB_LB_5.xlsx
454	main_unc	True	1.0	436	0	7.0	7.0	n/a	0	None	n/a	0.0	n/a	0	-0.0575807456486	blockFiles/set_29/main_unc/leftBlue\GB_LB_5.xlsx
455	main_unc	True	0.0	436	0	7.0	7.0	0.0	1	left	1.0	0.0	0.0	0	-0.0192622985877	blockFiles/set_29/main_unc/leftBlue\GB_LB_5.xlsx
456	main_unc	True	0.0	436	0	7.0	7.0	0.0	0	left	1.0	1.0	1.0	1	0.00103230839595	blockFiles/set_29/main_unc/leftBlue\GB_LB_5.xlsx
457	main_unc	True	0.0	436	0	7.0	7.0	0.0	1	left	2.0	1.0	1.0	0	-0.043552232012199994	blockFiles/set_29/main_unc/leftBlue\GB_LB_5.xlsx
458	main_unc	True	0.0	436	0	7.0	7.0	1.0	1	right	1.0	1.0	1.0	1	0.0693407101557	blockFiles/set_29/main_unc/leftBlue\GB_LB_5.xlsx
459	main_unc	True	0.0	436	0	7.0	7.0	1.0	1	right	1.0	1.0	1.0	1	0.060540266782	blockFiles/set_29/main_unc/leftBlue\GB_LB_5.xlsx
460	main_unc	True	0.0	436	0	7.0	7.0	0.0	1	left	2.0	1.0	1.0	0	-0.0236560188979	blockFiles/set_29/main_unc/leftBlue\GB_LB_5.xlsx
461	main_unc	True	0.0	436	0	7.0	7.0	0.0	0	left	2.0	0.0	0.0	1	0.0171068833955	blockFiles/set_29/main_unc/leftBlue\GB_LB_5.xlsx
462	main_unc	True	0.0	436	0	7.0	7.0	0.0	1	left	2.0	1.0	1.0	0	-0.030093337576799998	blockFiles/set_29/main_unc/leftBlue\GB_LB_5.xlsx
463	main_unc	True	0.0	436	0	7.0	7.0	1.0	1	right	1.0	0.0	1.0	1	0.0772922858596	blockFiles/set_29/main_unc/leftBlue\GB_LB_5.xlsx
464	main_unc	True	0.0	436	0	7.0	7.0	0.0	1	left	1.0	0.0	0.0	0	-0.0575807456486	blockFiles/set_29/main_unc/leftBlue\GB_LB_5.xlsx
465	main_unc	True	0.0	436	0	8.0	8.0	0.0	1	left	2.0	1.0	1.0	0	-0.0559684065543	blockFiles/set_29/main_unc/leftBlue\GB_LB_3.xlsx
466	main_unc	True	0.0	436	0	8.0	8.0	0.0	1	left	2.0	1.0	1.0	0	-0.0238866104372	blockFiles/set_29/main_unc/leftBlue\GB_LB_3.xlsx
467	main_unc	True	0.0	436	0	8.0	8.0	0.0	0	left	1.0	1.0	1.0	1	0.026017617732299998	blockFiles/set_29/main_unc/leftBlue\GB_LB_3.xlsx
468	main_unc	True	0.0	436	0	8.0	8.0	1.0	1	right	2.0	0.0	0.0	1	0.0319214082882	blockFiles/set_29/main_unc/leftBlue\GB_LB_3.xlsx
469	main_unc	True	0.0	436	0	8.0	8.0	0.0	1	left	2.0	1.0	1.0	0	-0.0126981913112	blockFiles/set_29/main_unc/leftBlue\GB_LB_3.xlsx
470	main_unc	True	0.0	436	0	8.0	8.0	0.0	0	left	1.0	1.0	1.0	1	0.0177790540643	blockFiles/set_29/main_unc/leftBlue\GB_LB_3.xlsx
471	main_unc	True	0.0	436	0	8.0	8.0	1.0	1	right	2.0	0.0	0.0	1	0.0797947769053	blockFiles/set_29/main_unc/leftBlue\GB_LB_3.xlsx
472	main_unc	True	0.0	436	0	8.0	8.0	1.0	1	right	2.0	0.0	0.0	1	0.0443505518138	blockFiles/set_29/main_unc/leftBlue\GB_LB_3.xlsx
473	main_unc	True	0.0	436	0	8.0	8.0	0.0	1	left	2.0	0.0	1.0	0	-0.0147198570333	blockFiles/set_29/main_unc/leftBlue\GB_LB_3.xlsx
474	main_unc	True	0.0	436	0	8.0	8.0	0.0	1	left	1.0	0.0	0.0	0	-0.0204953552969	blockFiles/set_29/main_unc/leftBlue\GB_LB_3.xlsx
475	main_unc	True	0.0	436	0	8.0	8.0	0.0	1	left	2.0	1.0	1.0	0	-0.040423676688199996	blockFiles/set_29/main_unc/leftBlue\GB_LB_3.xlsx
476	main_unc	True	0.0	436	0	8.0	8.0	0.0	0	left	1.0	1.0	1.0	1	0.021571911685200004	blockFiles/set_29/main_unc/leftBlue\GB_LB_3.xlsx
477	main_unc	True	0.0	436	0	8.0	8.0	0.0	1	left	2.0	1.0	1.0	0	-0.038711286392099996	blockFiles/set_29/main_unc/leftBlue\GB_LB_3.xlsx
478	main_unc	True	0.0	436	0	8.0	8.0	0.0	1	left	2.0	0.0	1.0	0	-0.07966386606919999	blockFiles/set_29/main_unc/leftBlue\GB_LB_3.xlsx
479	main_unc	True	0.0	436	0	8.0	8.0	1.0	1	right	2.0	0.0	0.0	1	0.0154441919178	blockFiles/set_29/main_unc/leftBlue\GB_LB_3.xlsx
480	main_unc	True	0.0	436	0	8.0	8.0	0.0	1	left	2.0	1.0	1.0	0	-0.06813389107580001	blockFiles/set_29/main_unc/leftBlue\GB_LB_3.xlsx
481	main_unc	True	0.0	436	0	8.0	8.0	1.0	1	right	1.0	1.0	1.0	1	0.0246158112213	blockFiles/set_29/main_unc/leftBlue\GB_LB_3.xlsx
482	main_unc	True	0.0	436	0	8.0	8.0	0.0	1	left	2.0	0.0	1.0	0	-0.0355489005148	blockFiles/set_29/main_unc/leftBlue\GB_LB_3.xlsx
483	main_unc	True	0.0	436	0	8.0	8.0	1.0	1	right	1.0	0.0	1.0	1	0.0657957722247	blockFiles/set_29/main_unc/leftBlue\GB_LB_3.xlsx
484	main_unc	True	0.0	436	0	8.0	8.0	1.0	1	right	1.0	1.0	1.0	1	0.038035267405199996	blockFiles/set_29/main_unc/leftBlue\GB_LB_3.xlsx
485	main_unc	True	0.0	436	0	8.0	8.0	0.0	0	left	1.0	1.0	1.0	1	0.031582013461700004	blockFiles/set_29/main_unc/leftBlue\GB_LB_3.xlsx
486	main_unc	True	0.0	436	0	8.0	8.0	1.0	1	right	1.0	1.0	1.0	1	0.05556019043549999	blockFiles/set_29/main_unc/leftBlue\GB_LB_3.xlsx
487	main_unc	True	0.0	436	0	8.0	8.0	1.0	0	right	2.0	1.0	1.0	0	-0.0106015773676	blockFiles/set_29/main_unc/leftBlue\GB_LB_3.xlsx
488	main_unc	True	0.0	436	0	8.0	8.0	0.0	1	left	1.0	0.0	0.0	0	-0.0563215607032	blockFiles/set_29/main_unc/leftBlue\GB_LB_3.xlsx
489	main_unc	True	1.0	436	0	8.0	8.0	n/a	0	None	n/a	0.0	n/a	0	-0.0601392075606	blockFiles/set_29/main_unc/leftBlue\GB_LB_3.xlsx
490	main_unc	True	0.0	436	0	8.0	8.0	0.0	1	left	2.0	0.0	1.0	0	-0.0601392075606	blockFiles/set_29/main_unc/leftBlue\GB_LB_3.xlsx
491	main_unc	True	0.0	436	0	9.0	9.0	0.0	1	left	1.0	0.0	1.0	0	-0.0243583103642	blockFiles/set_29/main_unc/rightBlue\GB_RB_6.xlsx
492	main_unc	True	0.0	436	0	9.0	9.0	0.0	0	left	1.0	1.0	0.0	1	0.054969011805999994	blockFiles/set_29/main_unc/rightBlue\GB_RB_6.xlsx
493	main_unc	True	0.0	436	0	9.0	9.0	0.0	1	left	2.0	0.0	0.0	0	-0.0142565847747	blockFiles/set_29/main_unc/rightBlue\GB_RB_6.xlsx
494	main_unc	True	0.0	436	0	9.0	9.0	0.0	1	left	2.0	0.0	0.0	0	-0.0578290751763	blockFiles/set_29/main_unc/rightBlue\GB_RB_6.xlsx
495	main_unc	True	0.0	436	0	9.0	9.0	1.0	1	right	2.0	1.0	1.0	1	0.007193805594	blockFiles/set_29/main_unc/rightBlue\GB_RB_6.xlsx
496	main_unc	True	0.0	436	0	9.0	9.0	1.0	1	right	2.0	1.0	1.0	1	0.0594299155846	blockFiles/set_29/main_unc/rightBlue\GB_RB_6.xlsx
497	main_unc	True	0.0	436	0	9.0	9.0	0.0	0	left	1.0	0.0	0.0	1	0.0237081778981	blockFiles/set_29/main_unc/rightBlue\GB_RB_6.xlsx
498	main_unc	True	0.0	436	0	9.0	9.0	0.0	1	left	1.0	1.0	1.0	0	-0.0710228791647	blockFiles/set_29/main_unc/rightBlue\GB_RB_6.xlsx
499	main_unc	True	0.0	436	0	9.0	9.0	1.0	1	right	2.0	1.0	1.0	1	0.0237433603965	blockFiles/set_29/main_unc/rightBlue\GB_RB_6.xlsx
500	main_unc	True	0.0	436	0	9.0	9.0	1.0	1	right	2.0	1.0	1.0	1	0.029892311338299997	blockFiles/set_29/main_unc/rightBlue\GB_RB_6.xlsx
501	main_unc	True	0.0	436	0	9.0	9.0	1.0	1	right	2.0	1.0	1.0	1	0.0684839911573	blockFiles/set_29/main_unc/rightBlue\GB_RB_6.xlsx
502	main_unc	True	0.0	436	0	9.0	9.0	0.0	1	left	1.0	0.0	1.0	0	-0.0273561084457	blockFiles/set_29/main_unc/rightBlue\GB_RB_6.xlsx
503	main_unc	True	0.0	436	0	9.0	9.0	1.0	1	right	2.0	1.0	1.0	1	0.020056541580700003	blockFiles/set_29/main_unc/rightBlue\GB_RB_6.xlsx
504	main_unc	True	0.0	436	0	9.0	9.0	0.0	1	left	1.0	1.0	1.0	0	-0.071296226643	blockFiles/set_29/main_unc/rightBlue\GB_RB_6.xlsx
505	main_unc	True	0.0	436	0	9.0	9.0	1.0	1	right	2.0	0.0	1.0	1	0.05358411327	blockFiles/set_29/main_unc/rightBlue\GB_RB_6.xlsx
506	main_unc	True	0.0	436	0	9.0	9.0	0.0	1	left	1.0	1.0	1.0	0	-0.017368924152099997	blockFiles/set_29/main_unc/rightBlue\GB_RB_6.xlsx
507	main_unc	True	0.0	436	0	9.0	9.0	0.0	1	left	2.0	0.0	0.0	0	-0.07393098948520001	blockFiles/set_29/main_unc/rightBlue\GB_RB_6.xlsx
508	main_unc	True	0.0	436	0	9.0	9.0	1.0	1	right	2.0	1.0	1.0	1	0.036710584517599995	blockFiles/set_29/main_unc/rightBlue\GB_RB_6.xlsx
509	main_unc	True	0.0	436	0	9.0	9.0	0.0	1	left	1.0	1.0	1.0	0	-0.0704761502333	blockFiles/set_29/main_unc/rightBlue\GB_RB_6.xlsx
510	main_unc	True	0.0	436	0	9.0	9.0	1.0	1	right	2.0	0.0	1.0	1	0.0403749825619	blockFiles/set_29/main_unc/rightBlue\GB_RB_6.xlsx
511	main_unc	True	0.0	436	0	9.0	9.0	1.0	0	right	1.0	1.0	1.0	0	-0.00165049877018	blockFiles/set_29/main_unc/rightBlue\GB_RB_6.xlsx
512	main_unc	True	0.0	436	0	9.0	9.0	0.0	1	left	1.0	1.0	1.0	0	-0.045615745633800005	blockFiles/set_29/main_unc/rightBlue\GB_RB_6.xlsx
513	main_unc	True	0.0	436	0	9.0	9.0	1.0	1	right	2.0	0.0	1.0	1	0.019661315605	blockFiles/set_29/main_unc/rightBlue\GB_RB_6.xlsx
514	main_unc	True	0.0	436	0	9.0	9.0	1.0	1	right	2.0	1.0	1.0	1	0.05922535840419999	blockFiles/set_29/main_unc/rightBlue\GB_RB_6.xlsx
515	main_unc	True	0.0	436	0	9.0	9.0	1.0	0	right	2.0	0.0	0.0	0	-0.0106790426373	blockFiles/set_29/main_unc/rightBlue\GB_RB_6.xlsx
516	main_unc	True	0.0	436	0	10.0	10.0	0.0	1	left	2.0	0.0	0.0	0	-0.022759871222099996	blockFiles/set_29/main_unc/rightBlue\GB_RB_2.xlsx
517	main_unc	True	0.0	436	0	10.0	10.0	1.0	0	right	1.0	0.0	1.0	0	-0.00688137596473	blockFiles/set_29/main_unc/rightBlue\GB_RB_2.xlsx
518	main_unc	True	0.0	436	0	10.0	10.0	0.0	1	left	1.0	1.0	1.0	0	-0.0702707992308	blockFiles/set_29/main_unc/rightBlue\GB_RB_2.xlsx
519	main_unc	True	1.0	436	0	10.0	10.0	1.0	1	right	n/a	0.0	n/a	1	0.0706038169377	blockFiles/set_29/main_unc/rightBlue\GB_RB_2.xlsx
520	main_unc	True	0.0	436	0	10.0	10.0	0.0	1	left	1.0	0.0	1.0	0	-0.022517288718400003	blockFiles/set_29/main_unc/rightBlue\GB_RB_2.xlsx
521	main_unc	True	0.0	436	0	10.0	10.0	1.0	1	right	2.0	1.0	1.0	1	0.0194107214548	blockFiles/set_29/main_unc/rightBlue\GB_RB_2.xlsx
522	main_unc	True	0.0	436	0	10.0	10.0	1.0	1	right	2.0	0.0	1.0	1	0.0520257610269	blockFiles/set_29/main_unc/rightBlue\GB_RB_2.xlsx
523	main_unc	True	0.0	436	0	10.0	10.0	0.0	0	left	2.0	0.0	1.0	1	0.00851814094931	blockFiles/set_29/main_unc/rightBlue\GB_RB_2.xlsx
524	main_unc	True	0.0	436	0	10.0	10.0	1.0	1	right	2.0	1.0	1.0	1	0.0180084446445	blockFiles/set_29/main_unc/rightBlue\GB_RB_2.xlsx
525	main_unc	True	0.0	436	0	10.0	10.0	0.0	1	left	1.0	1.0	1.0	0	-0.049151179418	blockFiles/set_29/main_unc/rightBlue\GB_RB_2.xlsx
526	main_unc	True	0.0	436	0	10.0	10.0	0.0	1	left	1.0	1.0	1.0	0	-0.041741172634099995	blockFiles/set_29/main_unc/rightBlue\GB_RB_2.xlsx
527	main_unc	True	0.0	436	0	10.0	10.0	0.0	1	left	1.0	0.0	1.0	0	-0.0622459447384	blockFiles/set_29/main_unc/rightBlue\GB_RB_2.xlsx
528	main_unc	True	0.0	436	0	10.0	10.0	1.0	1	right	2.0	1.0	1.0	1	0.0649952401035	blockFiles/set_29/main_unc/rightBlue\GB_RB_2.xlsx
529	main_unc	True	1.0	436	0	10.0	10.0	n/a	0	None	n/a	0.0	n/a	0	-0.045926208272599994	blockFiles/set_29/main_unc/rightBlue\GB_RB_2.xlsx
530	main_unc	True	0.0	436	0	10.0	10.0	0.0	1	left	2.0	0.0	0.0	0	-0.00320108165964	blockFiles/set_29/main_unc/rightBlue\GB_RB_2.xlsx
531	main_unc	True	0.0	436	0	10.0	10.0	1.0	1	right	1.0	0.0	0.0	1	0.07168084450069999	blockFiles/set_29/main_unc/rightBlue\GB_RB_2.xlsx
532	main_unc	True	0.0	436	0	10.0	10.0	1.0	1	right	1.0	0.0	0.0	1	0.036520511005099995	blockFiles/set_29/main_unc/rightBlue\GB_RB_2.xlsx
533	main_unc	True	0.0	436	0	10.0	10.0	1.0	1	right	1.0	0.0	0.0	1	0.0141479079984	blockFiles/set_29/main_unc/rightBlue\GB_RB_2.xlsx
534	main_unc	True	0.0	436	0	10.0	10.0	0.0	1	left	1.0	1.0	1.0	0	-0.038664716314500004	blockFiles/set_29/main_unc/rightBlue\GB_RB_2.xlsx
535	main_unc	True	0.0	436	0	10.0	10.0	0.0	1	left	2.0	0.0	0.0	0	-0.078280578088	blockFiles/set_29/main_unc/rightBlue\GB_RB_2.xlsx
536	main_unc	True	0.0	436	0	10.0	10.0	0.0	1	left	1.0	0.0	1.0	0	-0.0356595560536	blockFiles/set_29/main_unc/rightBlue\GB_RB_2.xlsx
537	main_unc	True	0.0	436	0	10.0	10.0	0.0	1	left	1.0	1.0	1.0	0	-0.0550603142194	blockFiles/set_29/main_unc/rightBlue\GB_RB_2.xlsx
538	main_unc	True	0.0	436	0	10.0	10.0	1.0	1	right	2.0	1.0	1.0	1	0.0260530310683	blockFiles/set_29/main_unc/rightBlue\GB_RB_2.xlsx
539	main_unc	True	0.0	436	0	10.0	10.0	1.0	1	right	2.0	1.0	1.0	1	0.007255470715459999	blockFiles/set_29/main_unc/rightBlue\GB_RB_2.xlsx
540	main_unc	True	0.0	436	0	10.0	10.0	1.0	0	right	2.0	0.0	0.0	0	-0.0215686548129	blockFiles/set_29/main_unc/rightBlue\GB_RB_2.xlsx
541	main_unc	True	0.0	436	0	10.0	10.0	1.0	1	right	2.0	1.0	1.0	1	0.0706038169377	blockFiles/set_29/main_unc/rightBlue\GB_RB_2.xlsx
542	main_unc	True	0.0	436	0	10.0	10.0	0.0	1	left	1.0	1.0	1.0	0	-0.045926208272599994	blockFiles/set_29/main_unc/rightBlue\GB_RB_2.xlsx
543	main_unc	True	0.0	436	0	11.0	11.0	1.0	1	right	2.0	1.0	1.0	1	0.0369432676211	blockFiles/set_29/main_unc/rightBlue\GB_RB_1.xlsx
544	main_unc	True	0.0	436	0	11.0	11.0	0.0	1	left	1.0	1.0	1.0	0	-0.036037556417300005	blockFiles/set_29/main_unc/rightBlue\GB_RB_1.xlsx
545	main_unc	True	0.0	436	0	11.0	11.0	0.0	0	left	2.0	1.0	1.0	1	0.0622744360939	blockFiles/set_29/main_unc/rightBlue\GB_RB_1.xlsx
546	main_unc	True	0.0	436	0	11.0	11.0	0.0	1	left	1.0	0.0	1.0	0	-0.0720710714161	blockFiles/set_29/main_unc/rightBlue\GB_RB_1.xlsx
547	main_unc	True	0.0	436	0	11.0	11.0	1.0	0	right	1.0	1.0	1.0	0	-0.007641885466869999	blockFiles/set_29/main_unc/rightBlue\GB_RB_1.xlsx
548	main_unc	True	0.0	436	0	11.0	11.0	1.0	1	right	2.0	1.0	1.0	1	0.0709541733563	blockFiles/set_29/main_unc/rightBlue\GB_RB_1.xlsx
549	main_unc	True	0.0	436	0	11.0	11.0	1.0	1	right	2.0	1.0	1.0	1	0.0353205326572	blockFiles/set_29/main_unc/rightBlue\GB_RB_1.xlsx
550	main_unc	True	0.0	436	0	11.0	11.0	0.0	1	left	1.0	1.0	1.0	0	-0.057182716988	blockFiles/set_29/main_unc/rightBlue\GB_RB_1.xlsx
551	main_unc	True	0.0	436	0	11.0	11.0	0.0	1	left	2.0	0.0	0.0	0	-0.005546809118239999	blockFiles/set_29/main_unc/rightBlue\GB_RB_1.xlsx
552	main_unc	True	0.0	436	0	11.0	11.0	0.0	1	left	1.0	0.0	1.0	0	-0.0416101781651	blockFiles/set_29/main_unc/rightBlue\GB_RB_1.xlsx
553	main_unc	True	0.0	436	0	11.0	11.0	0.0	1	left	1.0	1.0	1.0	0	-0.027423130963	blockFiles/set_29/main_unc/rightBlue\GB_RB_1.xlsx
554	main_unc	True	0.0	436	0	11.0	11.0	1.0	1	right	2.0	1.0	1.0	1	0.047076609060199996	blockFiles/set_29/main_unc/rightBlue\GB_RB_1.xlsx
555	main_unc	True	0.0	436	0	11.0	11.0	0.0	0	left	1.0	0.0	0.0	1	0.0136786613613	blockFiles/set_29/main_unc/rightBlue\GB_RB_1.xlsx
556	main_unc	True	0.0	436	0	11.0	11.0	0.0	1	left	2.0	1.0	0.0	0	-0.0324354772642	blockFiles/set_29/main_unc/rightBlue\GB_RB_1.xlsx
557	main_unc	True	0.0	436	0	11.0	11.0	0.0	1	left	1.0	1.0	1.0	0	-0.058091112859500006	blockFiles/set_29/main_unc/rightBlue\GB_RB_1.xlsx
558	main_unc	True	0.0	436	0	11.0	11.0	0.0	1	left	2.0	0.0	0.0	0	-0.0676472022571	blockFiles/set_29/main_unc/rightBlue\GB_RB_1.xlsx
559	main_unc	True	0.0	436	0	11.0	11.0	0.0	1	left	1.0	1.0	1.0	0	-0.0649497062899	blockFiles/set_29/main_unc/rightBlue\GB_RB_1.xlsx
560	main_unc	True	1.0	436	0	11.0	11.0	n/a	0	None	n/a	0.0	n/a	1	0.0228061536513	blockFiles/set_29/main_unc/rightBlue\GB_RB_1.xlsx
561	main_unc	True	0.0	436	0	11.0	11.0	0.0	1	left	1.0	0.0	1.0	0	-0.0394374400377	blockFiles/set_29/main_unc/rightBlue\GB_RB_1.xlsx
562	main_unc	True	0.0	436	0	11.0	11.0	1.0	1	right	1.0	0.0	0.0	1	0.0069634085707399995	blockFiles/set_29/main_unc/rightBlue\GB_RB_1.xlsx
563	main_unc	True	0.0	436	0	11.0	11.0	0.0	1	left	1.0	1.0	1.0	0	-0.06485555551950001	blockFiles/set_29/main_unc/rightBlue\GB_RB_1.xlsx
564	main_unc	True	0.0	436	0	11.0	11.0	1.0	1	right	2.0	1.0	1.0	1	0.015308628547900001	blockFiles/set_29/main_unc/rightBlue\GB_RB_1.xlsx
565	main_unc	True	0.0	436	0	11.0	11.0	1.0	1	right	2.0	1.0	1.0	1	0.0666445706598	blockFiles/set_29/main_unc/rightBlue\GB_RB_1.xlsx
566	main_unc	True	0.0	436	0	11.0	11.0	1.0	1	right	2.0	1.0	1.0	1	0.0113317867368	blockFiles/set_29/main_unc/rightBlue\GB_RB_1.xlsx
567	main_unc	True	0.0	436	0	11.0	11.0	0.0	1	left	1.0	1.0	1.0	0	-0.05357493031769999	blockFiles/set_29/main_unc/rightBlue\GB_RB_1.xlsx
568	main_unc	True	0.0	436	0	11.0	11.0	0.0	0	left	2.0	1.0	1.0	1	0.0228061536513	blockFiles/set_29/main_unc/rightBlue\GB_RB_1.xlsx
