	trial_type	complete	missIndex	participant	id	blockNumber	b_t	d_t	decision1.corr	decision1.keys	a_t	r_t	decision2.corr	s_t	u_t	block_file
0	main_safe	True	0.0	871	0	0.0	0.0	1.0	1	right	2.0	0.0	1.0	1	0.08	blockFiles/set_30/main_safe/rightBlue\GB_RB_2.xlsx
1	main_safe	True	0.0	871	0	0.0	0.0	1.0	1	right	2.0	1.0	1.0	1	0.08	blockFiles/set_30/main_safe/rightBlue\GB_RB_2.xlsx
2	main_safe	True	0.0	871	0	0.0	0.0	1.0	1	right	2.0	1.0	1.0	1	0.08	blockFiles/set_30/main_safe/rightBlue\GB_RB_2.xlsx
3	main_safe	True	0.0	871	0	0.0	0.0	1.0	1	right	2.0	1.0	1.0	1	0.08	blockFiles/set_30/main_safe/rightBlue\GB_RB_2.xlsx
4	main_safe	True	0.0	871	0	0.0	0.0	0.0	1	left	1.0	1.0	1.0	0	-0.08	blockFiles/set_30/main_safe/rightBlue\GB_RB_2.xlsx
5	main_safe	True	0.0	871	0	0.0	0.0	1.0	1	right	2.0	0.0	1.0	1	0.08	blockFiles/set_30/main_safe/rightBlue\GB_RB_2.xlsx
6	main_safe	True	0.0	871	0	0.0	0.0	0.0	1	left	1.0	1.0	1.0	0	-0.08	blockFiles/set_30/main_safe/rightBlue\GB_RB_2.xlsx
7	main_safe	True	0.0	871	0	0.0	0.0	1.0	1	right	2.0	1.0	1.0	1	0.08	blockFiles/set_30/main_safe/rightBlue\GB_RB_2.xlsx
8	main_safe	True	0.0	871	0	0.0	0.0	1.0	1	right	2.0	1.0	1.0	1	0.08	blockFiles/set_30/main_safe/rightBlue\GB_RB_2.xlsx
9	main_safe	True	0.0	871	0	0.0	0.0	1.0	1	right	2.0	1.0	1.0	1	0.08	blockFiles/set_30/main_safe/rightBlue\GB_RB_2.xlsx
10	main_safe	True	0.0	871	0	0.0	0.0	0.0	1	left	1.0	1.0	1.0	0	-0.08	blockFiles/set_30/main_safe/rightBlue\GB_RB_2.xlsx
11	main_safe	True	0.0	871	0	0.0	0.0	0.0	1	left	1.0	1.0	1.0	0	-0.08	blockFiles/set_30/main_safe/rightBlue\GB_RB_2.xlsx
12	main_safe	True	0.0	871	0	0.0	0.0	1.0	1	right	2.0	1.0	1.0	1	0.08	blockFiles/set_30/main_safe/rightBlue\GB_RB_2.xlsx
13	main_safe	True	0.0	871	0	0.0	0.0	1.0	1	right	2.0	0.0	1.0	1	0.08	blockFiles/set_30/main_safe/rightBlue\GB_RB_2.xlsx
14	main_safe	True	0.0	871	0	0.0	0.0	0.0	1	left	1.0	1.0	1.0	0	-0.08	blockFiles/set_30/main_safe/rightBlue\GB_RB_2.xlsx
15	main_safe	True	0.0	871	0	0.0	0.0	0.0	1	left	1.0	1.0	1.0	0	-0.08	blockFiles/set_30/main_safe/rightBlue\GB_RB_2.xlsx
16	main_safe	True	0.0	871	0	0.0	0.0	1.0	1	right	2.0	1.0	1.0	1	0.08	blockFiles/set_30/main_safe/rightBlue\GB_RB_2.xlsx
17	main_safe	True	0.0	871	0	0.0	0.0	0.0	1	left	1.0	0.0	1.0	0	-0.08	blockFiles/set_30/main_safe/rightBlue\GB_RB_2.xlsx
18	main_safe	True	0.0	871	0	0.0	0.0	0.0	1	left	1.0	0.0	1.0	0	-0.08	blockFiles/set_30/main_safe/rightBlue\GB_RB_2.xlsx
19	main_safe	True	0.0	871	0	0.0	0.0	1.0	1	right	2.0	1.0	1.0	1	0.08	blockFiles/set_30/main_safe/rightBlue\GB_RB_2.xlsx
20	main_safe	True	0.0	871	0	0.0	0.0	0.0	1	left	1.0	1.0	1.0	0	-0.08	blockFiles/set_30/main_safe/rightBlue\GB_RB_2.xlsx
21	main_safe	True	0.0	871	0	0.0	0.0	0.0	1	left	1.0	0.0	1.0	0	-0.08	blockFiles/set_30/main_safe/rightBlue\GB_RB_2.xlsx
22	main_safe	True	0.0	871	0	0.0	0.0	0.0	1	left	1.0	1.0	1.0	0	-0.08	blockFiles/set_30/main_safe/rightBlue\GB_RB_2.xlsx
23	main_safe	True	0.0	871	0	0.0	0.0	0.0	1	left	1.0	1.0	1.0	0	-0.08	blockFiles/set_30/main_safe/rightBlue\GB_RB_2.xlsx
24	main_safe	True	0.0	871	0	0.0	0.0	1.0	1	right	2.0	1.0	1.0	1	0.08	blockFiles/set_30/main_safe/rightBlue\GB_RB_2.xlsx
25	main_safe	True	0.0	871	0	1.0	1.0	0.0	1	left	2.0	0.0	0.0	0	-0.08	blockFiles/set_30/main_safe/rightBlue\GB_RB_3.xlsx
26	main_safe	True	0.0	871	0	1.0	1.0	1.0	1	right	1.0	0.0	0.0	1	0.08	blockFiles/set_30/main_safe/rightBlue\GB_RB_3.xlsx
27	main_safe	True	0.0	871	0	1.0	1.0	0.0	1	left	2.0	0.0	0.0	0	-0.08	blockFiles/set_30/main_safe/rightBlue\GB_RB_3.xlsx
28	main_safe	True	0.0	871	0	1.0	1.0	0.0	1	left	1.0	1.0	1.0	0	-0.08	blockFiles/set_30/main_safe/rightBlue\GB_RB_3.xlsx
29	main_safe	True	0.0	871	0	1.0	1.0	1.0	1	right	2.0	0.0	1.0	1	0.08	blockFiles/set_30/main_safe/rightBlue\GB_RB_3.xlsx
30	main_safe	True	0.0	871	0	1.0	1.0	1.0	1	right	2.0	1.0	1.0	1	0.08	blockFiles/set_30/main_safe/rightBlue\GB_RB_3.xlsx
31	main_safe	True	0.0	871	0	1.0	1.0	0.0	1	left	1.0	1.0	1.0	0	-0.08	blockFiles/set_30/main_safe/rightBlue\GB_RB_3.xlsx
32	main_safe	True	0.0	871	0	1.0	1.0	1.0	1	right	2.0	0.0	1.0	1	0.08	blockFiles/set_30/main_safe/rightBlue\GB_RB_3.xlsx
33	main_safe	True	0.0	871	0	1.0	1.0	1.0	1	right	2.0	1.0	1.0	1	0.08	blockFiles/set_30/main_safe/rightBlue\GB_RB_3.xlsx
34	main_safe	True	0.0	871	0	1.0	1.0	1.0	1	right	2.0	1.0	1.0	1	0.08	blockFiles/set_30/main_safe/rightBlue\GB_RB_3.xlsx
35	main_safe	True	0.0	871	0	1.0	1.0	1.0	1	right	2.0	0.0	1.0	1	0.08	blockFiles/set_30/main_safe/rightBlue\GB_RB_3.xlsx
36	main_safe	True	0.0	871	0	1.0	1.0	0.0	1	left	1.0	0.0	1.0	0	-0.08	blockFiles/set_30/main_safe/rightBlue\GB_RB_3.xlsx
37	main_safe	True	0.0	871	0	1.0	1.0	1.0	1	right	2.0	1.0	1.0	1	0.08	blockFiles/set_30/main_safe/rightBlue\GB_RB_3.xlsx
38	main_safe	True	0.0	871	0	1.0	1.0	1.0	1	right	2.0	0.0	1.0	1	0.08	blockFiles/set_30/main_safe/rightBlue\GB_RB_3.xlsx
39	main_safe	True	0.0	871	0	1.0	1.0	0.0	1	left	1.0	1.0	1.0	0	-0.08	blockFiles/set_30/main_safe/rightBlue\GB_RB_3.xlsx
40	main_safe	True	0.0	871	0	1.0	1.0	0.0	1	left	1.0	1.0	1.0	0	-0.08	blockFiles/set_30/main_safe/rightBlue\GB_RB_3.xlsx
41	main_safe	True	0.0	871	0	1.0	1.0	0.0	1	left	1.0	1.0	1.0	0	-0.08	blockFiles/set_30/main_safe/rightBlue\GB_RB_3.xlsx
42	main_safe	True	0.0	871	0	1.0	1.0	0.0	1	left	1.0	1.0	1.0	0	-0.08	blockFiles/set_30/main_safe/rightBlue\GB_RB_3.xlsx
43	main_safe	True	0.0	871	0	1.0	1.0	1.0	1	right	2.0	1.0	1.0	1	0.08	blockFiles/set_30/main_safe/rightBlue\GB_RB_3.xlsx
44	main_safe	True	0.0	871	0	1.0	1.0	1.0	1	right	2.0	1.0	1.0	1	0.08	blockFiles/set_30/main_safe/rightBlue\GB_RB_3.xlsx
45	main_safe	True	0.0	871	0	1.0	1.0	1.0	1	right	2.0	1.0	1.0	1	0.08	blockFiles/set_30/main_safe/rightBlue\GB_RB_3.xlsx
46	main_safe	True	0.0	871	0	1.0	1.0	0.0	1	left	1.0	1.0	1.0	0	-0.08	blockFiles/set_30/main_safe/rightBlue\GB_RB_3.xlsx
47	main_safe	True	0.0	871	0	1.0	1.0	0.0	1	left	1.0	1.0	1.0	0	-0.08	blockFiles/set_30/main_safe/rightBlue\GB_RB_3.xlsx
48	main_safe	True	0.0	871	0	1.0	1.0	0.0	1	left	1.0	1.0	1.0	0	-0.08	blockFiles/set_30/main_safe/rightBlue\GB_RB_3.xlsx
49	main_safe	True	0.0	871	0	1.0	1.0	0.0	1	left	1.0	1.0	1.0	0	-0.08	blockFiles/set_30/main_safe/rightBlue\GB_RB_3.xlsx
50	main_safe	True	0.0	871	0	2.0	2.0	0.0	1	left	2.0	1.0	1.0	0	-0.08	blockFiles/set_30/main_safe/leftBlue\GB_LB_1.xlsx
51	main_safe	True	0.0	871	0	2.0	2.0	0.0	1	left	2.0	1.0	1.0	0	-0.08	blockFiles/set_30/main_safe/leftBlue\GB_LB_1.xlsx
52	main_safe	True	0.0	871	0	2.0	2.0	1.0	1	right	1.0	1.0	1.0	1	0.08	blockFiles/set_30/main_safe/leftBlue\GB_LB_1.xlsx
53	main_safe	True	0.0	871	0	2.0	2.0	1.0	1	right	1.0	1.0	1.0	1	0.08	blockFiles/set_30/main_safe/leftBlue\GB_LB_1.xlsx
54	main_safe	True	0.0	871	0	2.0	2.0	0.0	1	left	2.0	1.0	1.0	0	-0.08	blockFiles/set_30/main_safe/leftBlue\GB_LB_1.xlsx
55	main_safe	True	0.0	871	0	2.0	2.0	1.0	1	right	1.0	0.0	1.0	1	0.08	blockFiles/set_30/main_safe/leftBlue\GB_LB_1.xlsx
56	main_safe	True	0.0	871	0	2.0	2.0	1.0	1	right	1.0	1.0	1.0	1	0.08	blockFiles/set_30/main_safe/leftBlue\GB_LB_1.xlsx
57	main_safe	True	0.0	871	0	2.0	2.0	1.0	1	right	1.0	0.0	1.0	1	0.08	blockFiles/set_30/main_safe/leftBlue\GB_LB_1.xlsx
58	main_safe	True	0.0	871	0	2.0	2.0	1.0	1	right	1.0	1.0	1.0	1	0.08	blockFiles/set_30/main_safe/leftBlue\GB_LB_1.xlsx
59	main_safe	True	0.0	871	0	2.0	2.0	1.0	1	right	1.0	1.0	1.0	1	0.08	blockFiles/set_30/main_safe/leftBlue\GB_LB_1.xlsx
60	main_safe	True	0.0	871	0	2.0	2.0	0.0	1	left	2.0	1.0	1.0	0	-0.08	blockFiles/set_30/main_safe/leftBlue\GB_LB_1.xlsx
61	main_safe	True	0.0	871	0	2.0	2.0	0.0	1	left	2.0	1.0	1.0	0	-0.08	blockFiles/set_30/main_safe/leftBlue\GB_LB_1.xlsx
62	main_safe	True	0.0	871	0	2.0	2.0	0.0	1	left	2.0	1.0	1.0	0	-0.08	blockFiles/set_30/main_safe/leftBlue\GB_LB_1.xlsx
63	main_safe	True	0.0	871	0	2.0	2.0	0.0	1	left	2.0	1.0	1.0	0	-0.08	blockFiles/set_30/main_safe/leftBlue\GB_LB_1.xlsx
64	main_safe	True	0.0	871	0	2.0	2.0	1.0	1	right	1.0	1.0	1.0	1	0.08	blockFiles/set_30/main_safe/leftBlue\GB_LB_1.xlsx
65	main_safe	True	0.0	871	0	2.0	2.0	0.0	1	left	2.0	1.0	1.0	0	-0.08	blockFiles/set_30/main_safe/leftBlue\GB_LB_1.xlsx
66	main_safe	True	0.0	871	0	2.0	2.0	1.0	1	right	1.0	0.0	1.0	1	0.08	blockFiles/set_30/main_safe/leftBlue\GB_LB_1.xlsx
67	main_safe	True	0.0	871	0	2.0	2.0	0.0	1	left	2.0	1.0	1.0	0	-0.08	blockFiles/set_30/main_safe/leftBlue\GB_LB_1.xlsx
68	main_safe	True	0.0	871	0	2.0	2.0	1.0	1	right	1.0	1.0	1.0	1	0.08	blockFiles/set_30/main_safe/leftBlue\GB_LB_1.xlsx
69	main_safe	True	0.0	871	0	2.0	2.0	1.0	1	right	1.0	1.0	1.0	1	0.08	blockFiles/set_30/main_safe/leftBlue\GB_LB_1.xlsx
70	main_safe	True	0.0	871	0	2.0	2.0	0.0	1	left	2.0	1.0	1.0	0	-0.08	blockFiles/set_30/main_safe/leftBlue\GB_LB_1.xlsx
71	main_safe	True	0.0	871	0	2.0	2.0	1.0	1	right	1.0	1.0	1.0	1	0.08	blockFiles/set_30/main_safe/leftBlue\GB_LB_1.xlsx
72	main_safe	True	0.0	871	0	2.0	2.0	0.0	1	left	2.0	1.0	1.0	0	-0.08	blockFiles/set_30/main_safe/leftBlue\GB_LB_1.xlsx
73	main_safe	True	0.0	871	0	2.0	2.0	1.0	1	right	1.0	0.0	1.0	1	0.08	blockFiles/set_30/main_safe/leftBlue\GB_LB_1.xlsx
74	main_safe	True	0.0	871	0	2.0	2.0	1.0	1	right	1.0	1.0	1.0	1	0.08	blockFiles/set_30/main_safe/leftBlue\GB_LB_1.xlsx
75	main_safe	True	0.0	871	0	3.0	3.0	0.0	1	left	1.0	1.0	1.0	0	-0.08	blockFiles/set_30/main_safe/rightBlue\GB_RB_1.xlsx
76	main_safe	True	0.0	871	0	3.0	3.0	1.0	1	right	2.0	1.0	1.0	1	0.08	blockFiles/set_30/main_safe/rightBlue\GB_RB_1.xlsx
77	main_safe	True	0.0	871	0	3.0	3.0	1.0	1	right	2.0	0.0	1.0	1	0.08	blockFiles/set_30/main_safe/rightBlue\GB_RB_1.xlsx
78	main_safe	True	0.0	871	0	3.0	3.0	0.0	1	left	1.0	1.0	1.0	0	-0.08	blockFiles/set_30/main_safe/rightBlue\GB_RB_1.xlsx
79	main_safe	True	0.0	871	0	3.0	3.0	0.0	1	left	1.0	1.0	1.0	0	-0.08	blockFiles/set_30/main_safe/rightBlue\GB_RB_1.xlsx
80	main_safe	True	0.0	871	0	3.0	3.0	1.0	1	right	2.0	1.0	1.0	1	0.08	blockFiles/set_30/main_safe/rightBlue\GB_RB_1.xlsx
81	main_safe	True	0.0	871	0	3.0	3.0	0.0	1	left	1.0	1.0	1.0	0	-0.08	blockFiles/set_30/main_safe/rightBlue\GB_RB_1.xlsx
82	main_safe	True	0.0	871	0	3.0	3.0	1.0	1	right	2.0	0.0	1.0	1	0.08	blockFiles/set_30/main_safe/rightBlue\GB_RB_1.xlsx
83	main_safe	True	0.0	871	0	3.0	3.0	1.0	1	right	2.0	1.0	1.0	1	0.08	blockFiles/set_30/main_safe/rightBlue\GB_RB_1.xlsx
84	main_safe	True	0.0	871	0	3.0	3.0	1.0	1	right	2.0	1.0	1.0	1	0.08	blockFiles/set_30/main_safe/rightBlue\GB_RB_1.xlsx
85	main_safe	True	0.0	871	0	3.0	3.0	0.0	1	left	1.0	0.0	1.0	0	-0.08	blockFiles/set_30/main_safe/rightBlue\GB_RB_1.xlsx
86	main_safe	True	0.0	871	0	3.0	3.0	0.0	1	left	1.0	1.0	1.0	0	-0.08	blockFiles/set_30/main_safe/rightBlue\GB_RB_1.xlsx
87	main_safe	True	0.0	871	0	3.0	3.0	1.0	1	right	2.0	1.0	1.0	1	0.08	blockFiles/set_30/main_safe/rightBlue\GB_RB_1.xlsx
88	main_safe	True	0.0	871	0	3.0	3.0	1.0	1	right	2.0	1.0	1.0	1	0.08	blockFiles/set_30/main_safe/rightBlue\GB_RB_1.xlsx
89	main_safe	True	0.0	871	0	3.0	3.0	0.0	1	left	1.0	1.0	1.0	0	-0.08	blockFiles/set_30/main_safe/rightBlue\GB_RB_1.xlsx
90	main_safe	True	0.0	871	0	3.0	3.0	1.0	1	right	2.0	1.0	1.0	1	0.08	blockFiles/set_30/main_safe/rightBlue\GB_RB_1.xlsx
91	main_safe	True	0.0	871	0	3.0	3.0	0.0	1	left	1.0	0.0	1.0	0	-0.08	blockFiles/set_30/main_safe/rightBlue\GB_RB_1.xlsx
92	main_safe	True	0.0	871	0	3.0	3.0	0.0	1	left	1.0	0.0	1.0	0	-0.08	blockFiles/set_30/main_safe/rightBlue\GB_RB_1.xlsx
93	main_safe	True	0.0	871	0	3.0	3.0	1.0	1	right	2.0	1.0	1.0	1	0.08	blockFiles/set_30/main_safe/rightBlue\GB_RB_1.xlsx
94	main_safe	True	0.0	871	0	3.0	3.0	1.0	1	right	2.0	1.0	1.0	1	0.08	blockFiles/set_30/main_safe/rightBlue\GB_RB_1.xlsx
95	main_safe	True	0.0	871	0	3.0	3.0	1.0	1	right	2.0	1.0	1.0	1	0.08	blockFiles/set_30/main_safe/rightBlue\GB_RB_1.xlsx
96	main_safe	True	0.0	871	0	3.0	3.0	0.0	1	left	1.0	1.0	1.0	0	-0.08	blockFiles/set_30/main_safe/rightBlue\GB_RB_1.xlsx
97	main_safe	True	0.0	871	0	3.0	3.0	1.0	1	right	2.0	1.0	1.0	1	0.08	blockFiles/set_30/main_safe/rightBlue\GB_RB_1.xlsx
98	main_safe	True	0.0	871	0	3.0	3.0	0.0	1	left	1.0	0.0	1.0	0	-0.08	blockFiles/set_30/main_safe/rightBlue\GB_RB_1.xlsx
99	main_safe	True	0.0	871	0	3.0	3.0	0.0	1	left	1.0	1.0	1.0	0	-0.08	blockFiles/set_30/main_safe/rightBlue\GB_RB_1.xlsx
100	main_safe	True	0.0	871	0	4.0	4.0	1.0	1	right	1.0	0.0	1.0	1	0.08	blockFiles/set_30/main_safe/leftBlue\GB_LB_2.xlsx
101	main_safe	True	0.0	871	0	4.0	4.0	0.0	1	left	2.0	1.0	1.0	0	-0.08	blockFiles/set_30/main_safe/leftBlue\GB_LB_2.xlsx
102	main_safe	True	0.0	871	0	4.0	4.0	0.0	1	left	2.0	1.0	1.0	0	-0.08	blockFiles/set_30/main_safe/leftBlue\GB_LB_2.xlsx
103	main_safe	True	0.0	871	0	4.0	4.0	1.0	1	right	1.0	0.0	1.0	1	0.08	blockFiles/set_30/main_safe/leftBlue\GB_LB_2.xlsx
104	main_safe	True	0.0	871	0	4.0	4.0	0.0	1	left	2.0	1.0	1.0	0	-0.08	blockFiles/set_30/main_safe/leftBlue\GB_LB_2.xlsx
105	main_safe	True	0.0	871	0	4.0	4.0	1.0	1	right	1.0	1.0	1.0	1	0.08	blockFiles/set_30/main_safe/leftBlue\GB_LB_2.xlsx
106	main_safe	True	0.0	871	0	4.0	4.0	1.0	1	right	2.0	0.0	0.0	1	0.08	blockFiles/set_30/main_safe/leftBlue\GB_LB_2.xlsx
107	main_safe	True	0.0	871	0	4.0	4.0	0.0	1	left	2.0	1.0	1.0	0	-0.08	blockFiles/set_30/main_safe/leftBlue\GB_LB_2.xlsx
108	main_safe	True	0.0	871	0	4.0	4.0	0.0	1	left	2.0	1.0	1.0	0	-0.08	blockFiles/set_30/main_safe/leftBlue\GB_LB_2.xlsx
109	main_safe	True	0.0	871	0	4.0	4.0	1.0	1	right	1.0	1.0	1.0	1	0.08	blockFiles/set_30/main_safe/leftBlue\GB_LB_2.xlsx
110	main_safe	True	0.0	871	0	4.0	4.0	0.0	1	left	2.0	1.0	1.0	0	-0.08	blockFiles/set_30/main_safe/leftBlue\GB_LB_2.xlsx
111	main_safe	True	0.0	871	0	4.0	4.0	0.0	1	left	2.0	0.0	1.0	0	-0.08	blockFiles/set_30/main_safe/leftBlue\GB_LB_2.xlsx
112	main_safe	True	0.0	871	0	4.0	4.0	1.0	1	right	1.0	1.0	1.0	1	0.08	blockFiles/set_30/main_safe/leftBlue\GB_LB_2.xlsx
113	main_safe	True	0.0	871	0	4.0	4.0	0.0	1	left	2.0	1.0	1.0	0	-0.08	blockFiles/set_30/main_safe/leftBlue\GB_LB_2.xlsx
114	main_safe	True	0.0	871	0	4.0	4.0	0.0	1	left	2.0	1.0	1.0	0	-0.08	blockFiles/set_30/main_safe/leftBlue\GB_LB_2.xlsx
115	main_safe	True	0.0	871	0	4.0	4.0	0.0	1	left	2.0	1.0	1.0	0	-0.08	blockFiles/set_30/main_safe/leftBlue\GB_LB_2.xlsx
116	main_safe	True	0.0	871	0	4.0	4.0	1.0	1	right	1.0	1.0	1.0	1	0.08	blockFiles/set_30/main_safe/leftBlue\GB_LB_2.xlsx
117	main_safe	True	0.0	871	0	4.0	4.0	1.0	1	right	1.0	0.0	1.0	1	0.08	blockFiles/set_30/main_safe/leftBlue\GB_LB_2.xlsx
118	main_safe	True	0.0	871	0	4.0	4.0	0.0	1	left	2.0	1.0	1.0	0	-0.08	blockFiles/set_30/main_safe/leftBlue\GB_LB_2.xlsx
119	main_safe	True	0.0	871	0	4.0	4.0	0.0	1	left	2.0	1.0	1.0	0	-0.08	blockFiles/set_30/main_safe/leftBlue\GB_LB_2.xlsx
120	main_safe	True	0.0	871	0	4.0	4.0	1.0	1	right	1.0	1.0	1.0	1	0.08	blockFiles/set_30/main_safe/leftBlue\GB_LB_2.xlsx
121	main_safe	True	0.0	871	0	4.0	4.0	1.0	1	right	1.0	1.0	1.0	1	0.08	blockFiles/set_30/main_safe/leftBlue\GB_LB_2.xlsx
122	main_safe	True	0.0	871	0	4.0	4.0	1.0	1	right	1.0	1.0	1.0	1	0.08	blockFiles/set_30/main_safe/leftBlue\GB_LB_2.xlsx
123	main_safe	True	0.0	871	0	4.0	4.0	1.0	1	right	1.0	1.0	1.0	1	0.08	blockFiles/set_30/main_safe/leftBlue\GB_LB_2.xlsx
124	main_safe	True	0.0	871	0	4.0	4.0	1.0	1	right	1.0	1.0	1.0	1	0.08	blockFiles/set_30/main_safe/leftBlue\GB_LB_2.xlsx
125	main_safe	True	0.0	871	0	5.0	5.0	0.0	1	left	1.0	0.0	0.0	0	-0.08	blockFiles/set_30/main_safe/leftBlue\GB_LB_3.xlsx
126	main_safe	True	0.0	871	0	5.0	5.0	0.0	1	left	1.0	1.0	0.0	0	-0.08	blockFiles/set_30/main_safe/leftBlue\GB_LB_3.xlsx
127	main_safe	True	0.0	871	0	5.0	5.0	0.0	1	left	1.0	0.0	0.0	0	-0.08	blockFiles/set_30/main_safe/leftBlue\GB_LB_3.xlsx
128	main_safe	True	0.0	871	0	5.0	5.0	0.0	1	left	1.0	0.0	0.0	0	-0.08	blockFiles/set_30/main_safe/leftBlue\GB_LB_3.xlsx
129	main_safe	True	0.0	871	0	5.0	5.0	0.0	1	left	2.0	1.0	1.0	0	-0.08	blockFiles/set_30/main_safe/leftBlue\GB_LB_3.xlsx
130	main_safe	True	0.0	871	0	5.0	5.0	0.0	1	left	2.0	1.0	1.0	0	-0.08	blockFiles/set_30/main_safe/leftBlue\GB_LB_3.xlsx
131	main_safe	True	0.0	871	0	5.0	5.0	1.0	1	right	1.0	1.0	1.0	1	0.08	blockFiles/set_30/main_safe/leftBlue\GB_LB_3.xlsx
132	main_safe	True	0.0	871	0	5.0	5.0	1.0	1	right	1.0	0.0	1.0	1	0.08	blockFiles/set_30/main_safe/leftBlue\GB_LB_3.xlsx
133	main_safe	True	0.0	871	0	5.0	5.0	0.0	1	left	2.0	1.0	1.0	0	-0.08	blockFiles/set_30/main_safe/leftBlue\GB_LB_3.xlsx
134	main_safe	True	0.0	871	0	5.0	5.0	1.0	1	right	1.0	1.0	1.0	1	0.08	blockFiles/set_30/main_safe/leftBlue\GB_LB_3.xlsx
135	main_safe	True	0.0	871	0	5.0	5.0	1.0	1	right	1.0	1.0	1.0	1	0.08	blockFiles/set_30/main_safe/leftBlue\GB_LB_3.xlsx
136	main_safe	True	0.0	871	0	5.0	5.0	0.0	1	left	2.0	1.0	1.0	0	-0.08	blockFiles/set_30/main_safe/leftBlue\GB_LB_3.xlsx
137	main_safe	True	0.0	871	0	5.0	5.0	1.0	1	right	1.0	1.0	1.0	1	0.08	blockFiles/set_30/main_safe/leftBlue\GB_LB_3.xlsx
138	main_safe	True	0.0	871	0	5.0	5.0	0.0	1	left	2.0	1.0	1.0	0	-0.08	blockFiles/set_30/main_safe/leftBlue\GB_LB_3.xlsx
139	main_safe	True	0.0	871	0	5.0	5.0	1.0	1	right	1.0	1.0	1.0	1	0.08	blockFiles/set_30/main_safe/leftBlue\GB_LB_3.xlsx
140	main_safe	True	0.0	871	0	5.0	5.0	1.0	1	right	2.0	1.0	0.0	1	0.08	blockFiles/set_30/main_safe/leftBlue\GB_LB_3.xlsx
141	main_safe	True	0.0	871	0	5.0	5.0	1.0	1	right	1.0	1.0	1.0	1	0.08	blockFiles/set_30/main_safe/leftBlue\GB_LB_3.xlsx
142	main_safe	True	0.0	871	0	5.0	5.0	0.0	1	left	2.0	1.0	1.0	0	-0.08	blockFiles/set_30/main_safe/leftBlue\GB_LB_3.xlsx
143	main_safe	True	0.0	871	0	5.0	5.0	0.0	1	left	2.0	1.0	1.0	0	-0.08	blockFiles/set_30/main_safe/leftBlue\GB_LB_3.xlsx
144	main_safe	True	0.0	871	0	5.0	5.0	1.0	1	right	1.0	1.0	1.0	1	0.08	blockFiles/set_30/main_safe/leftBlue\GB_LB_3.xlsx
145	main_safe	True	0.0	871	0	5.0	5.0	1.0	1	right	1.0	1.0	1.0	1	0.08	blockFiles/set_30/main_safe/leftBlue\GB_LB_3.xlsx
146	main_safe	True	0.0	871	0	5.0	5.0	1.0	1	right	1.0	1.0	1.0	1	0.08	blockFiles/set_30/main_safe/leftBlue\GB_LB_3.xlsx
147	main_safe	True	0.0	871	0	5.0	5.0	0.0	1	left	2.0	0.0	1.0	0	-0.08	blockFiles/set_30/main_safe/leftBlue\GB_LB_3.xlsx
148	main_safe	True	0.0	871	0	5.0	5.0	1.0	1	right	1.0	1.0	1.0	1	0.08	blockFiles/set_30/main_safe/leftBlue\GB_LB_3.xlsx
149	main_safe	True	0.0	871	0	5.0	5.0	0.0	1	left	2.0	1.0	1.0	0	-0.08	blockFiles/set_30/main_safe/leftBlue\GB_LB_3.xlsx
150	patches	True	n/a	871	0	n/a	n/a	0.0	0	left	n/a	n/a	n/a	1	0.00944324269891	blockFiles/set_30/main_PD/GB_runPatches1.xlsx
151	patches	True	n/a	871	0	n/a	n/a	n/a	0	None	n/a	n/a	n/a	1	0.012238136473999999	blockFiles/set_30/main_PD/GB_runPatches1.xlsx
152	patches	True	n/a	871	0	n/a	n/a	0.0	1	left	n/a	n/a	n/a	0	-0.0313130654395	blockFiles/set_30/main_PD/GB_runPatches1.xlsx
153	patches	True	n/a	871	0	n/a	n/a	1.0	1	right	n/a	n/a	n/a	1	0.0731469761394	blockFiles/set_30/main_PD/GB_runPatches1.xlsx
154	patches	True	n/a	871	0	n/a	n/a	0.0	0	left	n/a	n/a	n/a	1	0.00325006123632	blockFiles/set_30/main_PD/GB_runPatches1.xlsx
155	patches	True	n/a	871	0	n/a	n/a	0.0	1	left	n/a	n/a	n/a	0	-0.0684628771059	blockFiles/set_30/main_PD/GB_runPatches1.xlsx
156	patches	True	n/a	871	0	n/a	n/a	0.0	1	left	n/a	n/a	n/a	0	-0.0646266408265	blockFiles/set_30/main_PD/GB_runPatches1.xlsx
157	patches	True	n/a	871	0	n/a	n/a	0.0	1	left	n/a	n/a	n/a	0	-0.026839296408	blockFiles/set_30/main_PD/GB_runPatches1.xlsx
158	patches	True	n/a	871	0	n/a	n/a	0.0	1	left	n/a	n/a	n/a	0	-0.047180222831699994	blockFiles/set_30/main_PD/GB_runPatches1.xlsx
159	patches	True	n/a	871	0	n/a	n/a	0.0	1	left	n/a	n/a	n/a	0	-0.049601377844799996	blockFiles/set_30/main_PD/GB_runPatches1.xlsx
160	patches	True	n/a	871	0	n/a	n/a	1.0	1	right	n/a	n/a	n/a	1	0.0118463703617	blockFiles/set_30/main_PD/GB_runPatches1.xlsx
161	patches	True	n/a	871	0	n/a	n/a	1.0	1	right	n/a	n/a	n/a	1	0.0303228327632	blockFiles/set_30/main_PD/GB_runPatches1.xlsx
162	patches	True	n/a	871	0	n/a	n/a	0.0	1	left	n/a	n/a	n/a	0	-0.0123586600274	blockFiles/set_30/main_PD/GB_runPatches1.xlsx
163	patches	True	n/a	871	0	n/a	n/a	1.0	1	right	n/a	n/a	n/a	1	0.0723824032024	blockFiles/set_30/main_PD/GB_runPatches1.xlsx
164	patches	True	n/a	871	0	n/a	n/a	0.0	1	left	n/a	n/a	n/a	0	-0.057754180114699995	blockFiles/set_30/main_PD/GB_runPatches1.xlsx
165	patches	True	n/a	871	0	n/a	n/a	1.0	1	right	n/a	n/a	n/a	1	0.0635910536349	blockFiles/set_30/main_PD/GB_runPatches1.xlsx
166	patches	True	n/a	871	0	n/a	n/a	0.0	1	left	n/a	n/a	n/a	0	-0.0312538979948	blockFiles/set_30/main_PD/GB_runPatches1.xlsx
167	patches	True	n/a	871	0	n/a	n/a	0.0	1	left	n/a	n/a	n/a	0	-0.026588808484400005	blockFiles/set_30/main_PD/GB_runPatches1.xlsx
168	patches	True	n/a	871	0	n/a	n/a	0.0	0	left	n/a	n/a	n/a	1	0.0198567632958	blockFiles/set_30/main_PD/GB_runPatches1.xlsx
169	patches	True	n/a	871	0	n/a	n/a	1.0	1	right	n/a	n/a	n/a	1	0.0536086869612	blockFiles/set_30/main_PD/GB_runPatches1.xlsx
170	patches	True	n/a	871	0	n/a	n/a	0.0	1	left	n/a	n/a	n/a	0	-0.0470208229311	blockFiles/set_30/main_PD/GB_runPatches1.xlsx
171	patches	True	n/a	871	0	n/a	n/a	1.0	1	right	n/a	n/a	n/a	1	0.0414729890972	blockFiles/set_30/main_PD/GB_runPatches1.xlsx
172	patches	True	n/a	871	0	n/a	n/a	1.0	1	right	n/a	n/a	n/a	1	0.0719578661956	blockFiles/set_30/main_PD/GB_runPatches1.xlsx
173	patches	True	n/a	871	0	n/a	n/a	0.0	0	left	n/a	n/a	n/a	1	0.00436494084075	blockFiles/set_30/main_PD/GB_runPatches1.xlsx
174	patches	True	n/a	871	0	n/a	n/a	1.0	1	right	n/a	n/a	n/a	1	0.073316302076	blockFiles/set_30/main_PD/GB_runPatches1.xlsx
175	patches	True	n/a	871	0	n/a	n/a	0.0	0	left	n/a	n/a	n/a	1	0.011464765761	blockFiles/set_30/main_PD/GB_runPatches1.xlsx
176	patches	True	n/a	871	0	n/a	n/a	0.0	0	left	n/a	n/a	n/a	1	0.0332268519886	blockFiles/set_30/main_PD/GB_runPatches1.xlsx
177	patches	True	n/a	871	0	n/a	n/a	1.0	1	right	n/a	n/a	n/a	1	0.0589729373157	blockFiles/set_30/main_PD/GB_runPatches1.xlsx
178	patches	True	n/a	871	0	n/a	n/a	0.0	1	left	n/a	n/a	n/a	0	-0.016887064892799997	blockFiles/set_30/main_PD/GB_runPatches1.xlsx
179	patches	True	n/a	871	0	n/a	n/a	0.0	1	left	n/a	n/a	n/a	0	-0.00695678845048	blockFiles/set_30/main_PD/GB_runPatches1.xlsx
180	patches	True	n/a	871	0	n/a	n/a	0.0	1	left	n/a	n/a	n/a	0	-0.0667679788545	blockFiles/set_30/main_PD/GB_runPatches1.xlsx
181	patches	True	n/a	871	0	n/a	n/a	0.0	0	left	n/a	n/a	n/a	1	0.021513710897400003	blockFiles/set_30/main_PD/GB_runPatches1.xlsx
182	patches	True	n/a	871	0	n/a	n/a	1.0	1	right	n/a	n/a	n/a	1	0.06434457192200001	blockFiles/set_30/main_PD/GB_runPatches1.xlsx
183	patches	True	n/a	871	0	n/a	n/a	1.0	1	right	n/a	n/a	n/a	1	0.0583202037215	blockFiles/set_30/main_PD/GB_runPatches1.xlsx
184	patches	True	n/a	871	0	n/a	n/a	0.0	1	left	n/a	n/a	n/a	0	-0.0250688782334	blockFiles/set_30/main_PD/GB_runPatches1.xlsx
185	patches	True	n/a	871	0	n/a	n/a	0.0	1	left	n/a	n/a	n/a	0	-0.0371213675663	blockFiles/set_30/main_PD/GB_runPatches1.xlsx
186	patches	True	n/a	871	0	n/a	n/a	1.0	1	right	n/a	n/a	n/a	1	0.0533829405159	blockFiles/set_30/main_PD/GB_runPatches1.xlsx
187	patches	True	n/a	871	0	n/a	n/a	0.0	0	left	n/a	n/a	n/a	1	0.034416074678300004	blockFiles/set_30/main_PD/GB_runPatches1.xlsx
188	patches	True	n/a	871	0	n/a	n/a	1.0	1	right	n/a	n/a	n/a	1	0.0458730535023	blockFiles/set_30/main_PD/GB_runPatches1.xlsx
189	patches	True	n/a	871	0	n/a	n/a	0.0	1	left	n/a	n/a	n/a	0	-0.061989051829999996	blockFiles/set_30/main_PD/GB_runPatches1.xlsx
190	patches	True	n/a	871	0	n/a	n/a	1.0	1	right	n/a	n/a	n/a	1	0.0257583730109	blockFiles/set_30/main_PD/GB_runPatches1.xlsx
191	patches	True	n/a	871	0	n/a	n/a	0.0	0	left	n/a	n/a	n/a	1	0.00756202543154	blockFiles/set_30/main_PD/GB_runPatches1.xlsx
192	patches	True	n/a	871	0	n/a	n/a	0.0	1	left	n/a	n/a	n/a	0	-0.0674738791026	blockFiles/set_30/main_PD/GB_runPatches1.xlsx
193	patches	True	n/a	871	0	n/a	n/a	0.0	1	left	n/a	n/a	n/a	0	-0.028883378226299997	blockFiles/set_30/main_PD/GB_runPatches1.xlsx
194	patches	True	n/a	871	0	n/a	n/a	1.0	1	right	n/a	n/a	n/a	1	0.0406961531565	blockFiles/set_30/main_PD/GB_runPatches1.xlsx
195	patches	True	n/a	871	0	n/a	n/a	0.0	1	left	n/a	n/a	n/a	0	-0.009004234708850001	blockFiles/set_30/main_PD/GB_runPatches1.xlsx
196	patches	True	n/a	871	0	n/a	n/a	0.0	1	left	n/a	n/a	n/a	0	-0.045631768032900005	blockFiles/set_30/main_PD/GB_runPatches1.xlsx
197	patches	True	n/a	871	0	n/a	n/a	n/a	0	None	n/a	n/a	n/a	1	0.0322152622417	blockFiles/set_30/main_PD/GB_runPatches1.xlsx
198	patches	True	n/a	871	0	n/a	n/a	1.0	1	right	n/a	n/a	n/a	1	0.07995567565780001	blockFiles/set_30/main_PD/GB_runPatches1.xlsx
199	patches	True	n/a	871	0	n/a	n/a	0.0	1	left	n/a	n/a	n/a	0	-0.0521289622597	blockFiles/set_30/main_PD/GB_runPatches1.xlsx
200	patches	True	n/a	871	0	n/a	n/a	1.0	1	right	n/a	n/a	n/a	1	0.0603620385937	blockFiles/set_30/main_PD/GB_runPatches1.xlsx
201	patches	True	n/a	871	0	n/a	n/a	1.0	1	right	n/a	n/a	n/a	1	0.0455148621462	blockFiles/set_30/main_PD/GB_runPatches1.xlsx
202	patches	True	n/a	871	0	n/a	n/a	0.0	1	left	n/a	n/a	n/a	0	-0.007999877035619999	blockFiles/set_30/main_PD/GB_runPatches1.xlsx
203	patches	True	n/a	871	0	n/a	n/a	1.0	1	right	n/a	n/a	n/a	1	0.0443339794129	blockFiles/set_30/main_PD/GB_runPatches1.xlsx
204	patches	True	n/a	871	0	n/a	n/a	1.0	1	right	n/a	n/a	n/a	1	0.0518732173927	blockFiles/set_30/main_PD/GB_runPatches1.xlsx
205	patches	True	n/a	871	0	n/a	n/a	0.0	1	left	n/a	n/a	n/a	0	-0.0547499242239	blockFiles/set_30/main_PD/GB_runPatches1.xlsx
206	patches	True	n/a	871	0	n/a	n/a	1.0	1	right	n/a	n/a	n/a	1	0.0530086412095	blockFiles/set_30/main_PD/GB_runPatches1.xlsx
207	patches	True	n/a	871	0	n/a	n/a	0.0	1	left	n/a	n/a	n/a	0	-0.0789575006813	blockFiles/set_30/main_PD/GB_runPatches1.xlsx
208	patches	True	n/a	871	0	n/a	n/a	0.0	1	left	n/a	n/a	n/a	0	-0.0394817114808	blockFiles/set_30/main_PD/GB_runPatches1.xlsx
209	patches	True	n/a	871	0	n/a	n/a	0.0	1	left	n/a	n/a	n/a	0	-0.00887328738347	blockFiles/set_30/main_PD/GB_runPatches1.xlsx
210	patches	True	n/a	871	0	n/a	n/a	0.0	1	left	n/a	n/a	n/a	0	-0.00791147395968	blockFiles/set_30/main_PD/GB_runPatches1.xlsx
211	patches	True	n/a	871	0	n/a	n/a	0.0	0	left	n/a	n/a	n/a	1	0.0259996821545	blockFiles/set_30/main_PD/GB_runPatches1.xlsx
212	patches	True	n/a	871	0	n/a	n/a	1.0	1	right	n/a	n/a	n/a	1	0.010778081361200002	blockFiles/set_30/main_PD/GB_runPatches1.xlsx
213	patches	True	n/a	871	0	n/a	n/a	0.0	1	left	n/a	n/a	n/a	0	-0.0625492441282	blockFiles/set_30/main_PD/GB_runPatches1.xlsx
214	patches	True	n/a	871	0	n/a	n/a	0.0	1	left	n/a	n/a	n/a	0	-0.0659644826502	blockFiles/set_30/main_PD/GB_runPatches1.xlsx
215	patches	True	n/a	871	0	n/a	n/a	1.0	1	right	n/a	n/a	n/a	1	0.0519899286702	blockFiles/set_30/main_PD/GB_runPatches1.xlsx
216	patches	True	n/a	871	0	n/a	n/a	0.0	1	left	n/a	n/a	n/a	0	-0.0414177331887	blockFiles/set_30/main_PD/GB_runPatches1.xlsx
217	patches	True	n/a	871	0	n/a	n/a	0.0	0	left	n/a	n/a	n/a	1	0.0439907412976	blockFiles/set_30/main_PD/GB_runPatches1.xlsx
218	patches	True	n/a	871	0	n/a	n/a	0.0	0	left	n/a	n/a	n/a	1	0.0302249025181	blockFiles/set_30/main_PD/GB_runPatches1.xlsx
219	patches	True	n/a	871	0	n/a	n/a	1.0	1	right	n/a	n/a	n/a	1	0.031362665277	blockFiles/set_30/main_PD/GB_runPatches1.xlsx
220	patches	True	n/a	871	0	n/a	n/a	0.0	1	left	n/a	n/a	n/a	0	-0.0325119554438	blockFiles/set_30/main_PD/GB_runPatches1.xlsx
221	patches	True	n/a	871	0	n/a	n/a	0.0	0	left	n/a	n/a	n/a	1	0.0370172069967	blockFiles/set_30/main_PD/GB_runPatches1.xlsx
222	patches	True	n/a	871	0	n/a	n/a	0.0	0	left	n/a	n/a	n/a	1	0.0358580793254	blockFiles/set_30/main_PD/GB_runPatches1.xlsx
223	patches	True	n/a	871	0	n/a	n/a	0.0	1	left	n/a	n/a	n/a	0	-0.00719216674566	blockFiles/set_30/main_PD/GB_runPatches1.xlsx
224	patches	True	n/a	871	0	n/a	n/a	0.0	0	left	n/a	n/a	n/a	1	0.043733181227000005	blockFiles/set_30/main_PD/GB_runPatches1.xlsx
225	patches	True	n/a	871	0	n/a	n/a	1.0	1	right	n/a	n/a	n/a	1	0.05089176123959999	blockFiles/set_30/main_PD/GB_runPatches1.xlsx
226	patches	True	n/a	871	0	n/a	n/a	0.0	1	left	n/a	n/a	n/a	0	-0.0570064060949	blockFiles/set_30/main_PD/GB_runPatches1.xlsx
227	patches	True	n/a	871	0	n/a	n/a	0.0	1	left	n/a	n/a	n/a	0	-0.0737736462429	blockFiles/set_30/main_PD/GB_runPatches1.xlsx
228	patches	True	n/a	871	0	n/a	n/a	0.0	0	left	n/a	n/a	n/a	1	0.00963948296383	blockFiles/set_30/main_PD/GB_runPatches1.xlsx
229	patches	True	n/a	871	0	n/a	n/a	0.0	1	left	n/a	n/a	n/a	0	-0.027257651463200003	blockFiles/set_30/main_PD/GB_runPatches1.xlsx
230	patches	True	n/a	871	0	n/a	n/a	0.0	1	left	n/a	n/a	n/a	0	-0.0717761120759	blockFiles/set_30/main_PD/GB_runPatches1.xlsx
231	patches	True	n/a	871	0	n/a	n/a	0.0	0	left	n/a	n/a	n/a	1	0.033630088456000004	blockFiles/set_30/main_PD/GB_runPatches1.xlsx
232	patches	True	n/a	871	0	n/a	n/a	0.0	1	left	n/a	n/a	n/a	0	-0.00736342674121	blockFiles/set_30/main_PD/GB_runPatches1.xlsx
233	patches	True	n/a	871	0	n/a	n/a	n/a	0	None	n/a	n/a	n/a	0	-0.00756319377571	blockFiles/set_30/main_PD/GB_runPatches1.xlsx
234	patches	True	n/a	871	0	n/a	n/a	0.0	1	left	n/a	n/a	n/a	0	-0.04581311982130001	blockFiles/set_30/main_PD/GB_runPatches1.xlsx
235	patches	True	n/a	871	0	n/a	n/a	0.0	1	left	n/a	n/a	n/a	0	-0.0697970416583	blockFiles/set_30/main_PD/GB_runPatches1.xlsx
236	patches	True	n/a	871	0	n/a	n/a	1.0	0	right	n/a	n/a	n/a	0	-0.0228964384086	blockFiles/set_30/main_PD/GB_runPatches1.xlsx
237	patches	True	n/a	871	0	n/a	n/a	0.0	1	left	n/a	n/a	n/a	0	-0.051571174170800003	blockFiles/set_30/main_PD/GB_runPatches1.xlsx
238	patches	True	n/a	871	0	n/a	n/a	n/a	0	None	n/a	n/a	n/a	1	0.0176203538105	blockFiles/set_30/main_PD/GB_runPatches1.xlsx
239	patches	True	n/a	871	0	n/a	n/a	0.0	1	left	n/a	n/a	n/a	0	-0.07397212635730001	blockFiles/set_30/main_PD/GB_runPatches1.xlsx
240	patches	True	n/a	871	0	n/a	n/a	0.0	0	left	n/a	n/a	n/a	1	0.00663359384984	blockFiles/set_30/main_PD/GB_runPatches1.xlsx
241	patches	True	n/a	871	0	n/a	n/a	0.0	0	left	n/a	n/a	n/a	1	0.051260205116099994	blockFiles/set_30/main_PD/GB_runPatches1.xlsx
242	patches	True	n/a	871	0	n/a	n/a	1.0	0	right	n/a	n/a	n/a	0	-0.035326381120800006	blockFiles/set_30/main_PD/GB_runPatches1.xlsx
243	patches	True	n/a	871	0	n/a	n/a	1.0	1	right	n/a	n/a	n/a	1	0.05463288046419999	blockFiles/set_30/main_PD/GB_runPatches1.xlsx
244	patches	True	n/a	871	0	n/a	n/a	0.0	1	left	n/a	n/a	n/a	0	-0.0416281305067	blockFiles/set_30/main_PD/GB_runPatches1.xlsx
245	patches	True	n/a	871	0	n/a	n/a	0.0	1	left	n/a	n/a	n/a	0	-0.0527489778213	blockFiles/set_30/main_PD/GB_runPatches1.xlsx
246	patches	True	n/a	871	0	n/a	n/a	1.0	0	right	n/a	n/a	n/a	0	-0.008117132764310002	blockFiles/set_30/main_PD/GB_runPatches1.xlsx
247	patches	True	n/a	871	0	n/a	n/a	0.0	1	left	n/a	n/a	n/a	0	-0.0797608782165	blockFiles/set_30/main_PD/GB_runPatches1.xlsx
248	patches	True	n/a	871	0	n/a	n/a	0.0	1	left	n/a	n/a	n/a	0	-0.0349890847318	blockFiles/set_30/main_PD/GB_runPatches1.xlsx
249	patches	True	n/a	871	0	n/a	n/a	0.0	0	left	n/a	n/a	n/a	1	0.0306746222079	blockFiles/set_30/main_PD/GB_runPatches1.xlsx
250	main_unc	True	0.0	871	0	0.0	0.0	0.0	0	left	2.0	1.0	1.0	1	0.0174103590474	blockFiles/set_30/main_unc/rightBlue\GB_RB_4.xlsx
251	main_unc	True	1.0	871	0	0.0	0.0	n/a	0	None	n/a	0.0	n/a	1	0.0372062020376	blockFiles/set_30/main_unc/rightBlue\GB_RB_4.xlsx
252	main_unc	True	0.0	871	0	0.0	0.0	0.0	1	left	1.0	1.0	1.0	0	-0.0355882677622	blockFiles/set_30/main_unc/rightBlue\GB_RB_4.xlsx
253	main_unc	True	0.0	871	0	0.0	0.0	0.0	1	left	1.0	1.0	1.0	0	-0.0645028349757	blockFiles/set_30/main_unc/rightBlue\GB_RB_4.xlsx
254	main_unc	True	0.0	871	0	0.0	0.0	1.0	1	right	2.0	0.0	1.0	1	0.052350497506599994	blockFiles/set_30/main_unc/rightBlue\GB_RB_4.xlsx
255	main_unc	True	0.0	871	0	0.0	0.0	1.0	1	right	2.0	1.0	1.0	1	0.0668122259714	blockFiles/set_30/main_unc/rightBlue\GB_RB_4.xlsx
256	main_unc	True	0.0	871	0	0.0	0.0	0.0	0	left	1.0	0.0	0.0	1	0.0051070711202900005	blockFiles/set_30/main_unc/rightBlue\GB_RB_4.xlsx
257	main_unc	True	0.0	871	0	0.0	0.0	1.0	1	right	2.0	1.0	1.0	1	0.018169396109900003	blockFiles/set_30/main_unc/rightBlue\GB_RB_4.xlsx
258	main_unc	True	0.0	871	0	0.0	0.0	0.0	1	left	1.0	1.0	1.0	0	-0.060957377702	blockFiles/set_30/main_unc/rightBlue\GB_RB_4.xlsx
259	main_unc	True	0.0	871	0	0.0	0.0	0.0	1	left	1.0	1.0	1.0	0	-0.0651958936453	blockFiles/set_30/main_unc/rightBlue\GB_RB_4.xlsx
260	main_unc	True	0.0	871	0	0.0	0.0	0.0	1	left	1.0	0.0	1.0	0	-0.0416569688916	blockFiles/set_30/main_unc/rightBlue\GB_RB_4.xlsx
261	main_unc	True	0.0	871	0	0.0	0.0	1.0	1	right	2.0	1.0	1.0	1	0.055965410098400004	blockFiles/set_30/main_unc/rightBlue\GB_RB_4.xlsx
262	main_unc	True	0.0	871	0	0.0	0.0	0.0	1	left	1.0	1.0	1.0	0	-0.022389267161500002	blockFiles/set_30/main_unc/rightBlue\GB_RB_4.xlsx
263	main_unc	True	0.0	871	0	0.0	0.0	1.0	1	right	2.0	1.0	1.0	1	0.0025610792264299997	blockFiles/set_30/main_unc/rightBlue\GB_RB_4.xlsx
264	main_unc	True	0.0	871	0	0.0	0.0	0.0	1	left	1.0	0.0	1.0	0	-0.051084922049199996	blockFiles/set_30/main_unc/rightBlue\GB_RB_4.xlsx
265	main_unc	True	0.0	871	0	0.0	0.0	1.0	1	right	2.0	0.0	1.0	1	0.045878398008599997	blockFiles/set_30/main_unc/rightBlue\GB_RB_4.xlsx
266	main_unc	True	0.0	871	0	0.0	0.0	0.0	1	left	1.0	1.0	1.0	0	-0.0641549813934	blockFiles/set_30/main_unc/rightBlue\GB_RB_4.xlsx
267	main_unc	True	0.0	871	0	0.0	0.0	0.0	1	left	2.0	1.0	0.0	0	-0.0198311722092	blockFiles/set_30/main_unc/rightBlue\GB_RB_4.xlsx
268	main_unc	True	0.0	871	0	0.0	0.0	1.0	1	right	2.0	1.0	1.0	1	0.0410512862168	blockFiles/set_30/main_unc/rightBlue\GB_RB_4.xlsx
269	main_unc	True	0.0	871	0	0.0	0.0	1.0	1	right	2.0	1.0	1.0	1	0.04774871006609999	blockFiles/set_30/main_unc/rightBlue\GB_RB_4.xlsx
270	main_unc	True	0.0	871	0	0.0	0.0	0.0	1	left	1.0	1.0	1.0	0	-0.057804784644400004	blockFiles/set_30/main_unc/rightBlue\GB_RB_4.xlsx
271	main_unc	True	1.0	871	0	0.0	0.0	n/a	0	None	n/a	0.0	n/a	0	-0.00456220220774	blockFiles/set_30/main_unc/rightBlue\GB_RB_4.xlsx
272	main_unc	True	0.0	871	0	0.0	0.0	0.0	1	left	1.0	1.0	1.0	0	-0.0397637560405	blockFiles/set_30/main_unc/rightBlue\GB_RB_4.xlsx
273	main_unc	True	0.0	871	0	0.0	0.0	0.0	0	left	2.0	1.0	1.0	1	0.026730013247599996	blockFiles/set_30/main_unc/rightBlue\GB_RB_4.xlsx
274	main_unc	True	0.0	871	0	0.0	0.0	0.0	1	left	1.0	0.0	1.0	0	-0.0317264119349	blockFiles/set_30/main_unc/rightBlue\GB_RB_4.xlsx
275	main_unc	True	0.0	871	0	0.0	0.0	1.0	1	right	2.0	1.0	1.0	1	0.0372062020376	blockFiles/set_30/main_unc/rightBlue\GB_RB_4.xlsx
276	main_unc	True	0.0	871	0	0.0	0.0	1.0	0	right	2.0	0.0	0.0	0	-0.00456220220774	blockFiles/set_30/main_unc/rightBlue\GB_RB_4.xlsx
277	main_unc	True	0.0	871	0	1.0	1.0	1.0	1	right	1.0	0.0	0.0	1	0.0682376661524	blockFiles/set_30/main_unc/rightBlue\GB_RB_6.xlsx
278	main_unc	True	0.0	871	0	1.0	1.0	0.0	1	left	2.0	0.0	0.0	0	-0.0207174387015	blockFiles/set_30/main_unc/rightBlue\GB_RB_6.xlsx
279	main_unc	True	0.0	871	0	1.0	1.0	0.0	1	left	2.0	0.0	0.0	0	-0.06551072705540001	blockFiles/set_30/main_unc/rightBlue\GB_RB_6.xlsx
280	main_unc	True	0.0	871	0	1.0	1.0	0.0	1	left	1.0	0.0	1.0	0	-0.06453665265809999	blockFiles/set_30/main_unc/rightBlue\GB_RB_6.xlsx
281	main_unc	True	0.0	871	0	1.0	1.0	0.0	1	left	1.0	1.0	1.0	0	-0.0413757479563	blockFiles/set_30/main_unc/rightBlue\GB_RB_6.xlsx
282	main_unc	True	0.0	871	0	1.0	1.0	0.0	0	left	1.0	0.0	0.0	1	0.027073506694299997	blockFiles/set_30/main_unc/rightBlue\GB_RB_6.xlsx
283	main_unc	True	0.0	871	0	1.0	1.0	1.0	1	right	2.0	1.0	1.0	1	0.0184302094392	blockFiles/set_30/main_unc/rightBlue\GB_RB_6.xlsx
284	main_unc	True	0.0	871	0	1.0	1.0	1.0	1	right	2.0	1.0	1.0	1	0.0563538015634	blockFiles/set_30/main_unc/rightBlue\GB_RB_6.xlsx
285	main_unc	True	0.0	871	0	1.0	1.0	1.0	1	right	2.0	1.0	1.0	1	0.0515871245787	blockFiles/set_30/main_unc/rightBlue\GB_RB_6.xlsx
286	main_unc	True	0.0	871	0	1.0	1.0	0.0	1	left	1.0	0.0	1.0	0	-0.052900760509099996	blockFiles/set_30/main_unc/rightBlue\GB_RB_6.xlsx
287	main_unc	True	0.0	871	0	1.0	1.0	1.0	1	right	2.0	0.0	1.0	1	0.027390655521299996	blockFiles/set_30/main_unc/rightBlue\GB_RB_6.xlsx
288	main_unc	True	0.0	871	0	1.0	1.0	0.0	1	left	1.0	1.0	1.0	0	-0.0738794170506	blockFiles/set_30/main_unc/rightBlue\GB_RB_6.xlsx
289	main_unc	True	0.0	871	0	1.0	1.0	0.0	1	left	1.0	1.0	1.0	0	-0.0377618901059	blockFiles/set_30/main_unc/rightBlue\GB_RB_6.xlsx
290	main_unc	True	0.0	871	0	1.0	1.0	1.0	1	right	2.0	1.0	1.0	1	0.030257852431400004	blockFiles/set_30/main_unc/rightBlue\GB_RB_6.xlsx
291	main_unc	True	0.0	871	0	1.0	1.0	0.0	0	left	2.0	1.0	1.0	1	0.00615628700703	blockFiles/set_30/main_unc/rightBlue\GB_RB_6.xlsx
292	main_unc	True	0.0	871	0	1.0	1.0	0.0	1	left	1.0	1.0	1.0	0	-0.0723073440045	blockFiles/set_30/main_unc/rightBlue\GB_RB_6.xlsx
293	main_unc	True	0.0	871	0	1.0	1.0	0.0	0	left	1.0	0.0	0.0	1	0.00023039514198900003	blockFiles/set_30/main_unc/rightBlue\GB_RB_6.xlsx
294	main_unc	True	0.0	871	0	1.0	1.0	0.0	1	left	1.0	1.0	1.0	0	-0.0604105263017	blockFiles/set_30/main_unc/rightBlue\GB_RB_6.xlsx
295	main_unc	True	0.0	871	0	1.0	1.0	0.0	1	left	1.0	1.0	1.0	0	-0.06062937187030001	blockFiles/set_30/main_unc/rightBlue\GB_RB_6.xlsx
296	main_unc	True	0.0	871	0	1.0	1.0	1.0	1	right	2.0	1.0	1.0	1	0.06601104805250001	blockFiles/set_30/main_unc/rightBlue\GB_RB_6.xlsx
297	main_unc	True	0.0	871	0	1.0	1.0	1.0	1	right	2.0	0.0	1.0	1	0.0584153611772	blockFiles/set_30/main_unc/rightBlue\GB_RB_6.xlsx
298	main_unc	True	0.0	871	0	1.0	1.0	0.0	1	left	1.0	1.0	1.0	0	-0.017432152125999998	blockFiles/set_30/main_unc/rightBlue\GB_RB_6.xlsx
299	main_unc	True	0.0	871	0	1.0	1.0	0.0	0	left	1.0	1.0	0.0	1	0.00828199058771	blockFiles/set_30/main_unc/rightBlue\GB_RB_6.xlsx
300	main_unc	True	0.0	871	0	1.0	1.0	0.0	1	left	1.0	1.0	1.0	0	-0.04403934115540001	blockFiles/set_30/main_unc/rightBlue\GB_RB_6.xlsx
301	main_unc	True	0.0	871	0	1.0	1.0	1.0	1	right	2.0	1.0	1.0	1	0.07863649724050001	blockFiles/set_30/main_unc/rightBlue\GB_RB_6.xlsx
302	main_unc	True	0.0	871	0	2.0	2.0	1.0	1	right	1.0	1.0	1.0	1	0.0623334302194	blockFiles/set_30/main_unc/leftBlue\GB_LB_4.xlsx
303	main_unc	True	0.0	871	0	2.0	2.0	0.0	1	left	2.0	0.0	1.0	0	-0.0624905663729	blockFiles/set_30/main_unc/leftBlue\GB_LB_4.xlsx
304	main_unc	True	0.0	871	0	2.0	2.0	0.0	1	left	2.0	1.0	1.0	0	-0.0391047876701	blockFiles/set_30/main_unc/leftBlue\GB_LB_4.xlsx
305	main_unc	True	0.0	871	0	2.0	2.0	0.0	0	left	1.0	1.0	1.0	1	0.034312102925	blockFiles/set_30/main_unc/leftBlue\GB_LB_4.xlsx
306	main_unc	True	0.0	871	0	2.0	2.0	1.0	1	right	1.0	1.0	1.0	1	0.043936775494400004	blockFiles/set_30/main_unc/leftBlue\GB_LB_4.xlsx
307	main_unc	True	0.0	871	0	2.0	2.0	0.0	1	left	2.0	1.0	1.0	0	-0.06985446002330001	blockFiles/set_30/main_unc/leftBlue\GB_LB_4.xlsx
308	main_unc	True	0.0	871	0	2.0	2.0	1.0	0	right	1.0	0.0	0.0	0	-0.0019504881836500002	blockFiles/set_30/main_unc/leftBlue\GB_LB_4.xlsx
309	main_unc	True	0.0	871	0	2.0	2.0	1.0	1	right	1.0	1.0	1.0	1	0.0545184101351	blockFiles/set_30/main_unc/leftBlue\GB_LB_4.xlsx
310	main_unc	True	0.0	871	0	2.0	2.0	1.0	1	right	1.0	1.0	1.0	1	0.010757718570499999	blockFiles/set_30/main_unc/leftBlue\GB_LB_4.xlsx
311	main_unc	True	0.0	871	0	2.0	2.0	0.0	1	left	2.0	1.0	1.0	0	-0.0683770422451	blockFiles/set_30/main_unc/leftBlue\GB_LB_4.xlsx
312	main_unc	True	0.0	871	0	2.0	2.0	0.0	1	left	2.0	1.0	1.0	0	-0.0162163589522	blockFiles/set_30/main_unc/leftBlue\GB_LB_4.xlsx
313	main_unc	True	0.0	871	0	2.0	2.0	0.0	1	left	2.0	1.0	1.0	0	-0.0232317538187	blockFiles/set_30/main_unc/leftBlue\GB_LB_4.xlsx
314	main_unc	True	0.0	871	0	2.0	2.0	1.0	1	right	1.0	1.0	1.0	1	0.0577170166373	blockFiles/set_30/main_unc/leftBlue\GB_LB_4.xlsx
315	main_unc	True	0.0	871	0	2.0	2.0	1.0	1	right	1.0	1.0	1.0	1	0.07232943248	blockFiles/set_30/main_unc/leftBlue\GB_LB_4.xlsx
316	main_unc	True	0.0	871	0	2.0	2.0	1.0	1	right	1.0	1.0	1.0	1	0.00589744880795	blockFiles/set_30/main_unc/leftBlue\GB_LB_4.xlsx
317	main_unc	True	0.0	871	0	2.0	2.0	0.0	1	left	2.0	0.0	1.0	0	-0.042739987876300005	blockFiles/set_30/main_unc/leftBlue\GB_LB_4.xlsx
318	main_unc	True	0.0	871	0	2.0	2.0	1.0	0	right	2.0	1.0	1.0	0	-0.00385880174115	blockFiles/set_30/main_unc/leftBlue\GB_LB_4.xlsx
319	main_unc	True	0.0	871	0	2.0	2.0	1.0	1	right	1.0	1.0	1.0	1	0.054079794939599996	blockFiles/set_30/main_unc/leftBlue\GB_LB_4.xlsx
320	main_unc	True	0.0	871	0	2.0	2.0	0.0	1	left	2.0	1.0	1.0	0	-0.07051718736069999	blockFiles/set_30/main_unc/leftBlue\GB_LB_4.xlsx
321	main_unc	True	0.0	871	0	2.0	2.0	0.0	1	left	2.0	1.0	1.0	0	-0.06526083411650001	blockFiles/set_30/main_unc/leftBlue\GB_LB_4.xlsx
322	main_unc	True	1.0	871	0	2.0	2.0	n/a	0	None	n/a	0.0	n/a	1	0.0030364067107399996	blockFiles/set_30/main_unc/leftBlue\GB_LB_4.xlsx
323	main_unc	True	0.0	871	0	2.0	2.0	0.0	1	left	2.0	0.0	1.0	0	-0.0565095899254	blockFiles/set_30/main_unc/leftBlue\GB_LB_4.xlsx
324	main_unc	True	0.0	871	0	2.0	2.0	0.0	1	left	2.0	1.0	1.0	0	-0.0235292187147	blockFiles/set_30/main_unc/leftBlue\GB_LB_4.xlsx
325	main_unc	True	0.0	871	0	2.0	2.0	1.0	1	right	1.0	0.0	1.0	1	0.04949150230740001	blockFiles/set_30/main_unc/leftBlue\GB_LB_4.xlsx
326	main_unc	True	0.0	871	0	2.0	2.0	0.0	1	left	2.0	0.0	1.0	0	-0.0523846756294	blockFiles/set_30/main_unc/leftBlue\GB_LB_4.xlsx
327	main_unc	True	0.0	871	0	2.0	2.0	0.0	0	left	2.0	0.0	0.0	1	0.0030364067107399996	blockFiles/set_30/main_unc/leftBlue\GB_LB_4.xlsx
328	main_unc	True	0.0	871	0	3.0	3.0	1.0	1	right	1.0	0.0	0.0	1	0.05169661428780001	blockFiles/set_30/main_unc/rightBlue\GB_RB_1.xlsx
329	main_unc	True	0.0	871	0	3.0	3.0	0.0	1	left	2.0	0.0	0.0	0	-0.008038765490060001	blockFiles/set_30/main_unc/rightBlue\GB_RB_1.xlsx
330	main_unc	True	0.0	871	0	3.0	3.0	0.0	1	left	2.0	0.0	0.0	0	-0.06522141518069999	blockFiles/set_30/main_unc/rightBlue\GB_RB_1.xlsx
331	main_unc	True	0.0	871	0	3.0	3.0	0.0	1	left	2.0	0.0	0.0	0	-0.0663390737772	blockFiles/set_30/main_unc/rightBlue\GB_RB_1.xlsx
332	main_unc	True	0.0	871	0	3.0	3.0	1.0	1	right	2.0	1.0	1.0	1	0.0600233965181	blockFiles/set_30/main_unc/rightBlue\GB_RB_1.xlsx
333	main_unc	True	0.0	871	0	3.0	3.0	0.0	1	left	1.0	0.0	1.0	0	-0.0302004816197	blockFiles/set_30/main_unc/rightBlue\GB_RB_1.xlsx
334	main_unc	True	0.0	871	0	3.0	3.0	1.0	1	right	2.0	0.0	1.0	1	0.0337973360345	blockFiles/set_30/main_unc/rightBlue\GB_RB_1.xlsx
335	main_unc	True	0.0	871	0	3.0	3.0	1.0	0	right	2.0	0.0	0.0	0	-0.010656401366	blockFiles/set_30/main_unc/rightBlue\GB_RB_1.xlsx
336	main_unc	True	0.0	871	0	3.0	3.0	1.0	1	right	2.0	1.0	1.0	1	0.0405885366909	blockFiles/set_30/main_unc/rightBlue\GB_RB_1.xlsx
337	main_unc	True	0.0	871	0	3.0	3.0	1.0	1	right	2.0	1.0	1.0	1	0.06024809982630001	blockFiles/set_30/main_unc/rightBlue\GB_RB_1.xlsx
338	main_unc	True	0.0	871	0	3.0	3.0	1.0	1	right	2.0	1.0	1.0	1	0.046902672890599996	blockFiles/set_30/main_unc/rightBlue\GB_RB_1.xlsx
339	main_unc	True	0.0	871	0	3.0	3.0	0.0	1	left	1.0	1.0	1.0	0	-0.07445442114030001	blockFiles/set_30/main_unc/rightBlue\GB_RB_1.xlsx
340	main_unc	True	0.0	871	0	3.0	3.0	1.0	0	right	2.0	1.0	0.0	0	-0.010621948353899999	blockFiles/set_30/main_unc/rightBlue\GB_RB_1.xlsx
341	main_unc	True	0.0	871	0	3.0	3.0	0.0	0	left	1.0	0.0	0.0	1	0.040723403859900004	blockFiles/set_30/main_unc/rightBlue\GB_RB_1.xlsx
342	main_unc	True	0.0	871	0	3.0	3.0	1.0	1	right	2.0	1.0	1.0	1	0.077739329543	blockFiles/set_30/main_unc/rightBlue\GB_RB_1.xlsx
343	main_unc	True	0.0	871	0	3.0	3.0	1.0	1	right	2.0	0.0	1.0	1	0.00725442549214	blockFiles/set_30/main_unc/rightBlue\GB_RB_1.xlsx
344	main_unc	True	0.0	871	0	3.0	3.0	0.0	1	left	1.0	1.0	1.0	0	-0.000744157209992	blockFiles/set_30/main_unc/rightBlue\GB_RB_1.xlsx
345	main_unc	True	0.0	871	0	3.0	3.0	0.0	1	left	1.0	1.0	1.0	0	-0.0273993516341	blockFiles/set_30/main_unc/rightBlue\GB_RB_1.xlsx
346	main_unc	True	0.0	871	0	3.0	3.0	0.0	1	left	1.0	1.0	1.0	0	-0.073201077655	blockFiles/set_30/main_unc/rightBlue\GB_RB_1.xlsx
347	main_unc	True	0.0	871	0	3.0	3.0	0.0	1	left	1.0	1.0	1.0	0	-0.0659969953261	blockFiles/set_30/main_unc/rightBlue\GB_RB_1.xlsx
348	main_unc	True	0.0	871	0	3.0	3.0	0.0	0	left	1.0	1.0	0.0	1	0.018115354925400003	blockFiles/set_30/main_unc/rightBlue\GB_RB_1.xlsx
349	main_unc	True	0.0	871	0	3.0	3.0	0.0	1	left	1.0	1.0	1.0	0	-0.0396151798405	blockFiles/set_30/main_unc/rightBlue\GB_RB_1.xlsx
350	main_unc	True	0.0	871	0	3.0	3.0	1.0	1	right	2.0	0.0	1.0	1	0.0677222735435	blockFiles/set_30/main_unc/rightBlue\GB_RB_1.xlsx
351	main_unc	True	0.0	871	0	3.0	3.0	0.0	1	left	1.0	1.0	1.0	0	-0.041675179414499997	blockFiles/set_30/main_unc/rightBlue\GB_RB_1.xlsx
352	main_unc	True	0.0	871	0	3.0	3.0	1.0	1	right	2.0	1.0	1.0	1	0.0547940943018	blockFiles/set_30/main_unc/rightBlue\GB_RB_1.xlsx
353	main_unc	True	0.0	871	0	4.0	4.0	1.0	1	right	1.0	1.0	0.0	1	0.062009879816300004	blockFiles/set_30/main_unc/rightBlue\GB_RB_3.xlsx
354	main_unc	True	0.0	871	0	4.0	4.0	1.0	1	right	1.0	1.0	0.0	1	0.0287338566221	blockFiles/set_30/main_unc/rightBlue\GB_RB_3.xlsx
355	main_unc	True	0.0	871	0	4.0	4.0	1.0	0	right	2.0	0.0	0.0	0	-0.011632281672200002	blockFiles/set_30/main_unc/rightBlue\GB_RB_3.xlsx
356	main_unc	True	0.0	871	0	4.0	4.0	0.0	1	left	2.0	0.0	0.0	0	-0.0538365845941	blockFiles/set_30/main_unc/rightBlue\GB_RB_3.xlsx
357	main_unc	True	0.0	871	0	4.0	4.0	1.0	1	right	1.0	0.0	0.0	1	0.06688840977850001	blockFiles/set_30/main_unc/rightBlue\GB_RB_3.xlsx
358	main_unc	True	0.0	871	0	4.0	4.0	0.0	1	left	2.0	1.0	0.0	0	-0.018411456868099998	blockFiles/set_30/main_unc/rightBlue\GB_RB_3.xlsx
359	main_unc	True	0.0	871	0	4.0	4.0	0.0	1	left	2.0	0.0	0.0	0	-0.0273386796936	blockFiles/set_30/main_unc/rightBlue\GB_RB_3.xlsx
360	main_unc	True	0.0	871	0	4.0	4.0	1.0	1	right	1.0	0.0	0.0	1	0.022817699257299998	blockFiles/set_30/main_unc/rightBlue\GB_RB_3.xlsx
361	main_unc	True	0.0	871	0	4.0	4.0	1.0	1	right	2.0	1.0	1.0	1	0.020400495398799998	blockFiles/set_30/main_unc/rightBlue\GB_RB_3.xlsx
362	main_unc	True	0.0	871	0	4.0	4.0	1.0	1	right	2.0	1.0	1.0	1	0.0645190449059	blockFiles/set_30/main_unc/rightBlue\GB_RB_3.xlsx
363	main_unc	True	0.0	871	0	4.0	4.0	0.0	1	left	1.0	1.0	1.0	0	-0.07312151221560001	blockFiles/set_30/main_unc/rightBlue\GB_RB_3.xlsx
364	main_unc	True	0.0	871	0	4.0	4.0	1.0	1	right	2.0	1.0	1.0	1	0.0105572423525	blockFiles/set_30/main_unc/rightBlue\GB_RB_3.xlsx
365	main_unc	True	0.0	871	0	4.0	4.0	0.0	1	left	1.0	1.0	1.0	0	-0.0109409379773	blockFiles/set_30/main_unc/rightBlue\GB_RB_3.xlsx
366	main_unc	True	0.0	871	0	4.0	4.0	1.0	1	right	2.0	1.0	1.0	1	0.034662247952099996	blockFiles/set_30/main_unc/rightBlue\GB_RB_3.xlsx
367	main_unc	True	0.0	871	0	4.0	4.0	0.0	1	left	1.0	0.0	1.0	0	-0.046363650038800004	blockFiles/set_30/main_unc/rightBlue\GB_RB_3.xlsx
368	main_unc	True	0.0	871	0	4.0	4.0	0.0	1	left	1.0	1.0	1.0	0	-0.0739928322099	blockFiles/set_30/main_unc/rightBlue\GB_RB_3.xlsx
369	main_unc	True	0.0	871	0	4.0	4.0	0.0	1	left	1.0	1.0	1.0	0	-0.022903124876299998	blockFiles/set_30/main_unc/rightBlue\GB_RB_3.xlsx
370	main_unc	True	0.0	871	0	4.0	4.0	0.0	1	left	1.0	1.0	1.0	0	-0.046312792506099994	blockFiles/set_30/main_unc/rightBlue\GB_RB_3.xlsx
371	main_unc	True	0.0	871	0	4.0	4.0	0.0	0	left	2.0	0.0	1.0	1	0.0307293634675	blockFiles/set_30/main_unc/rightBlue\GB_RB_3.xlsx
372	main_unc	True	0.0	871	0	4.0	4.0	0.0	1	left	1.0	1.0	1.0	0	-0.076906697806	blockFiles/set_30/main_unc/rightBlue\GB_RB_3.xlsx
373	main_unc	True	0.0	871	0	4.0	4.0	1.0	1	right	2.0	1.0	1.0	1	0.0447367051616	blockFiles/set_30/main_unc/rightBlue\GB_RB_3.xlsx
374	main_unc	True	0.0	871	0	4.0	4.0	0.0	1	left	1.0	0.0	1.0	0	-0.014256259575499999	blockFiles/set_30/main_unc/rightBlue\GB_RB_3.xlsx
375	main_unc	True	0.0	871	0	4.0	4.0	0.0	1	left	1.0	1.0	1.0	0	-0.0160604336113	blockFiles/set_30/main_unc/rightBlue\GB_RB_3.xlsx
376	main_unc	True	0.0	871	0	4.0	4.0	0.0	0	left	1.0	0.0	0.0	1	0.0282497139461	blockFiles/set_30/main_unc/rightBlue\GB_RB_3.xlsx
377	main_unc	True	0.0	871	0	4.0	4.0	1.0	1	right	2.0	1.0	1.0	1	0.039531912878199994	blockFiles/set_30/main_unc/rightBlue\GB_RB_3.xlsx
378	main_unc	True	0.0	871	0	5.0	5.0	1.0	1	right	1.0	1.0	1.0	1	0.042601006906500004	blockFiles/set_30/main_unc/leftBlue\GB_LB_5.xlsx
379	main_unc	True	0.0	871	0	5.0	5.0	0.0	1	left	2.0	1.0	1.0	0	-0.0453372658603	blockFiles/set_30/main_unc/leftBlue\GB_LB_5.xlsx
380	main_unc	True	0.0	871	0	5.0	5.0	0.0	1	left	2.0	1.0	1.0	0	-0.057624682355699994	blockFiles/set_30/main_unc/leftBlue\GB_LB_5.xlsx
381	main_unc	True	0.0	871	0	5.0	5.0	1.0	0	right	2.0	1.0	1.0	0	-0.0035492709092800005	blockFiles/set_30/main_unc/leftBlue\GB_LB_5.xlsx
382	main_unc	True	0.0	871	0	5.0	5.0	0.0	1	left	2.0	1.0	1.0	0	-0.0503967750072	blockFiles/set_30/main_unc/leftBlue\GB_LB_5.xlsx
383	main_unc	True	1.0	871	0	5.0	5.0	n/a	0	None	n/a	0.0	n/a	1	0.0338476090133	blockFiles/set_30/main_unc/leftBlue\GB_LB_5.xlsx
384	main_unc	True	0.0	871	0	5.0	5.0	1.0	1	right	1.0	1.0	1.0	1	0.00207205889747	blockFiles/set_30/main_unc/leftBlue\GB_LB_5.xlsx
385	main_unc	True	0.0	871	0	5.0	5.0	0.0	1	left	2.0	1.0	1.0	0	-0.031739531233900005	blockFiles/set_30/main_unc/leftBlue\GB_LB_5.xlsx
386	main_unc	True	0.0	871	0	5.0	5.0	0.0	1	left	2.0	0.0	1.0	0	-0.025534612573700002	blockFiles/set_30/main_unc/leftBlue\GB_LB_5.xlsx
387	main_unc	True	0.0	871	0	5.0	5.0	1.0	1	right	1.0	1.0	1.0	1	0.0641641884483	blockFiles/set_30/main_unc/leftBlue\GB_LB_5.xlsx
388	main_unc	True	0.0	871	0	5.0	5.0	0.0	0	left	1.0	1.0	1.0	1	0.0650215690956	blockFiles/set_30/main_unc/leftBlue\GB_LB_5.xlsx
389	main_unc	True	0.0	871	0	5.0	5.0	0.0	1	left	2.0	1.0	1.0	0	-0.0202841796167	blockFiles/set_30/main_unc/leftBlue\GB_LB_5.xlsx
390	main_unc	True	0.0	871	0	5.0	5.0	1.0	1	right	1.0	0.0	1.0	1	0.0516898635961	blockFiles/set_30/main_unc/leftBlue\GB_LB_5.xlsx
391	main_unc	True	0.0	871	0	5.0	5.0	0.0	0	left	2.0	0.0	0.0	1	0.005263367574660001	blockFiles/set_30/main_unc/leftBlue\GB_LB_5.xlsx
392	main_unc	True	0.0	871	0	5.0	5.0	0.0	1	left	2.0	1.0	1.0	0	-0.0543188300915	blockFiles/set_30/main_unc/leftBlue\GB_LB_5.xlsx
393	main_unc	True	0.0	871	0	5.0	5.0	0.0	1	left	2.0	0.0	1.0	0	-0.05788880638780001	blockFiles/set_30/main_unc/leftBlue\GB_LB_5.xlsx
394	main_unc	True	0.0	871	0	5.0	5.0	1.0	1	right	1.0	1.0	1.0	1	0.0431160437316	blockFiles/set_30/main_unc/leftBlue\GB_LB_5.xlsx
395	main_unc	True	0.0	871	0	5.0	5.0	1.0	1	right	1.0	1.0	1.0	1	0.0575842461735	blockFiles/set_30/main_unc/leftBlue\GB_LB_5.xlsx
396	main_unc	True	0.0	871	0	5.0	5.0	1.0	1	right	1.0	1.0	1.0	1	0.0619733063504	blockFiles/set_30/main_unc/leftBlue\GB_LB_5.xlsx
397	main_unc	True	0.0	871	0	5.0	5.0	0.0	1	left	2.0	0.0	1.0	0	-0.04059805464	blockFiles/set_30/main_unc/leftBlue\GB_LB_5.xlsx
398	main_unc	True	0.0	871	0	5.0	5.0	0.0	1	left	2.0	1.0	1.0	0	-0.014517432041499998	blockFiles/set_30/main_unc/leftBlue\GB_LB_5.xlsx
399	main_unc	True	0.0	871	0	5.0	5.0	0.0	1	left	2.0	1.0	1.0	0	-0.0244772580266	blockFiles/set_30/main_unc/leftBlue\GB_LB_5.xlsx
400	main_unc	True	0.0	871	0	5.0	5.0	0.0	0	left	2.0	0.0	0.0	1	0.0155796530657	blockFiles/set_30/main_unc/leftBlue\GB_LB_5.xlsx
401	main_unc	True	0.0	871	0	5.0	5.0	1.0	1	right	1.0	1.0	1.0	1	0.0656790416501	blockFiles/set_30/main_unc/leftBlue\GB_LB_5.xlsx
402	main_unc	True	0.0	871	0	5.0	5.0	1.0	1	right	1.0	1.0	1.0	1	0.0770111208595	blockFiles/set_30/main_unc/leftBlue\GB_LB_5.xlsx
403	main_unc	True	0.0	871	0	5.0	5.0	1.0	1	right	1.0	1.0	1.0	1	0.0338476090133	blockFiles/set_30/main_unc/leftBlue\GB_LB_5.xlsx
404	main_unc	True	0.0	871	0	6.0	6.0	0.0	1	left	2.0	1.0	1.0	0	-0.0724050295725	blockFiles/set_30/main_unc/leftBlue\GB_LB_3.xlsx
405	main_unc	True	0.0	871	0	6.0	6.0	0.0	1	left	2.0	1.0	1.0	0	-0.007294301893560001	blockFiles/set_30/main_unc/leftBlue\GB_LB_3.xlsx
406	main_unc	True	0.0	871	0	6.0	6.0	0.0	1	left	2.0	0.0	1.0	0	-0.0447561602667	blockFiles/set_30/main_unc/leftBlue\GB_LB_3.xlsx
407	main_unc	True	0.0	871	0	6.0	6.0	1.0	1	right	1.0	1.0	1.0	1	0.00478585094213	blockFiles/set_30/main_unc/leftBlue\GB_LB_3.xlsx
408	main_unc	True	0.0	871	0	6.0	6.0	1.0	1	right	1.0	1.0	1.0	1	0.0455503440835	blockFiles/set_30/main_unc/leftBlue\GB_LB_3.xlsx
409	main_unc	True	0.0	871	0	6.0	6.0	0.0	1	left	2.0	0.0	1.0	0	-0.00756280409172	blockFiles/set_30/main_unc/leftBlue\GB_LB_3.xlsx
410	main_unc	True	0.0	871	0	6.0	6.0	0.0	1	left	2.0	1.0	1.0	0	-0.0369968482479	blockFiles/set_30/main_unc/leftBlue\GB_LB_3.xlsx
411	main_unc	True	0.0	871	0	6.0	6.0	1.0	1	right	1.0	1.0	1.0	1	0.07996002454310001	blockFiles/set_30/main_unc/leftBlue\GB_LB_3.xlsx
412	main_unc	True	0.0	871	0	6.0	6.0	1.0	1	right	1.0	1.0	1.0	1	0.045171887297199995	blockFiles/set_30/main_unc/leftBlue\GB_LB_3.xlsx
413	main_unc	True	0.0	871	0	6.0	6.0	1.0	1	right	1.0	1.0	1.0	1	0.038969722073499996	blockFiles/set_30/main_unc/leftBlue\GB_LB_3.xlsx
414	main_unc	True	0.0	871	0	6.0	6.0	1.0	1	right	1.0	1.0	1.0	1	0.0334240521491	blockFiles/set_30/main_unc/leftBlue\GB_LB_3.xlsx
415	main_unc	True	0.0	871	0	6.0	6.0	1.0	1	right	1.0	1.0	1.0	1	0.0334725493938	blockFiles/set_30/main_unc/leftBlue\GB_LB_3.xlsx
416	main_unc	True	0.0	871	0	6.0	6.0	0.0	1	left	2.0	1.0	1.0	0	-0.023112779539099997	blockFiles/set_30/main_unc/leftBlue\GB_LB_3.xlsx
417	main_unc	True	0.0	871	0	6.0	6.0	1.0	1	right	1.0	1.0	1.0	1	0.0705483233742	blockFiles/set_30/main_unc/leftBlue\GB_LB_3.xlsx
418	main_unc	True	0.0	871	0	6.0	6.0	0.0	1	left	2.0	0.0	1.0	0	-0.0683605473489	blockFiles/set_30/main_unc/leftBlue\GB_LB_3.xlsx
419	main_unc	True	0.0	871	0	6.0	6.0	0.0	1	left	2.0	1.0	1.0	0	-0.0384278160892	blockFiles/set_30/main_unc/leftBlue\GB_LB_3.xlsx
420	main_unc	True	0.0	871	0	6.0	6.0	1.0	1	right	1.0	1.0	1.0	1	0.0783362438343	blockFiles/set_30/main_unc/leftBlue\GB_LB_3.xlsx
421	main_unc	True	0.0	871	0	6.0	6.0	0.0	0	left	2.0	1.0	0.0	1	0.05211593842130001	blockFiles/set_30/main_unc/leftBlue\GB_LB_3.xlsx
422	main_unc	True	0.0	871	0	6.0	6.0	0.0	0	left	1.0	1.0	1.0	1	0.0313100876287	blockFiles/set_30/main_unc/leftBlue\GB_LB_3.xlsx
423	main_unc	True	0.0	871	0	6.0	6.0	1.0	1	right	1.0	0.0	1.0	1	0.0171294144355	blockFiles/set_30/main_unc/leftBlue\GB_LB_3.xlsx
424	main_unc	True	0.0	871	0	6.0	6.0	0.0	1	left	2.0	0.0	1.0	0	-0.0140397831425	blockFiles/set_30/main_unc/leftBlue\GB_LB_3.xlsx
425	main_unc	True	0.0	871	0	6.0	6.0	1.0	1	right	1.0	1.0	1.0	1	0.074806242995	blockFiles/set_30/main_unc/leftBlue\GB_LB_3.xlsx
426	main_unc	True	0.0	871	0	6.0	6.0	0.0	1	left	2.0	1.0	1.0	0	-0.0257979853265	blockFiles/set_30/main_unc/leftBlue\GB_LB_3.xlsx
427	main_unc	True	0.0	871	0	6.0	6.0	0.0	1	left	2.0	1.0	1.0	0	-0.031762196775500004	blockFiles/set_30/main_unc/leftBlue\GB_LB_3.xlsx
428	main_unc	True	0.0	871	0	6.0	6.0	0.0	1	left	2.0	1.0	1.0	0	-0.051372885219800005	blockFiles/set_30/main_unc/leftBlue\GB_LB_3.xlsx
429	main_unc	True	0.0	871	0	7.0	7.0	0.0	1	left	2.0	1.0	1.0	0	-0.0727868426032	blockFiles/set_30/main_unc/leftBlue\GB_LB_1.xlsx
430	main_unc	True	0.0	871	0	7.0	7.0	0.0	0	left	2.0	1.0	0.0	1	0.0171545716375	blockFiles/set_30/main_unc/leftBlue\GB_LB_1.xlsx
431	main_unc	True	0.0	871	0	7.0	7.0	0.0	0	left	2.0	0.0	0.0	1	0.0209846095182	blockFiles/set_30/main_unc/leftBlue\GB_LB_1.xlsx
432	main_unc	True	0.0	871	0	7.0	7.0	0.0	1	left	2.0	0.0	1.0	0	-0.014464436192100001	blockFiles/set_30/main_unc/leftBlue\GB_LB_1.xlsx
433	main_unc	True	0.0	871	0	7.0	7.0	1.0	1	right	1.0	0.0	1.0	1	0.07185528092089999	blockFiles/set_30/main_unc/leftBlue\GB_LB_1.xlsx
434	main_unc	True	0.0	871	0	7.0	7.0	0.0	1	left	1.0	0.0	0.0	0	-0.0728506341763	blockFiles/set_30/main_unc/leftBlue\GB_LB_1.xlsx
435	main_unc	True	0.0	871	0	7.0	7.0	0.0	1	left	1.0	0.0	0.0	0	-0.020887509957000002	blockFiles/set_30/main_unc/leftBlue\GB_LB_1.xlsx
436	main_unc	True	0.0	871	0	7.0	7.0	1.0	1	right	1.0	1.0	1.0	1	0.0182403749041	blockFiles/set_30/main_unc/leftBlue\GB_LB_1.xlsx
437	main_unc	True	0.0	871	0	7.0	7.0	0.0	0	left	2.0	0.0	0.0	1	0.0071359032206199996	blockFiles/set_30/main_unc/leftBlue\GB_LB_1.xlsx
438	main_unc	True	0.0	871	0	7.0	7.0	0.0	1	left	2.0	1.0	1.0	0	-0.051871639695	blockFiles/set_30/main_unc/leftBlue\GB_LB_1.xlsx
439	main_unc	True	0.0	871	0	7.0	7.0	1.0	1	right	1.0	1.0	1.0	1	0.0632500372455	blockFiles/set_30/main_unc/leftBlue\GB_LB_1.xlsx
440	main_unc	True	0.0	871	0	7.0	7.0	0.0	0	left	1.0	0.0	1.0	1	0.026106175240099998	blockFiles/set_30/main_unc/leftBlue\GB_LB_1.xlsx
441	main_unc	True	0.0	871	0	7.0	7.0	0.0	1	left	2.0	1.0	1.0	0	-0.0444897024892	blockFiles/set_30/main_unc/leftBlue\GB_LB_1.xlsx
442	main_unc	True	0.0	871	0	7.0	7.0	0.0	0	left	2.0	0.0	0.0	1	0.017282940745400002	blockFiles/set_30/main_unc/leftBlue\GB_LB_1.xlsx
443	main_unc	True	0.0	871	0	7.0	7.0	1.0	1	right	1.0	1.0	1.0	1	0.0621026373282	blockFiles/set_30/main_unc/leftBlue\GB_LB_1.xlsx
444	main_unc	True	0.0	871	0	7.0	7.0	0.0	1	left	2.0	1.0	1.0	0	-0.0683297443949	blockFiles/set_30/main_unc/leftBlue\GB_LB_1.xlsx
445	main_unc	True	0.0	871	0	7.0	7.0	0.0	1	left	2.0	1.0	1.0	0	-0.0444516746514	blockFiles/set_30/main_unc/leftBlue\GB_LB_1.xlsx
446	main_unc	True	0.0	871	0	7.0	7.0	0.0	1	left	2.0	1.0	1.0	0	-0.0711765967123	blockFiles/set_30/main_unc/leftBlue\GB_LB_1.xlsx
447	main_unc	True	0.0	871	0	7.0	7.0	0.0	1	left	2.0	1.0	1.0	0	-0.0081605315581	blockFiles/set_30/main_unc/leftBlue\GB_LB_1.xlsx
448	main_unc	True	0.0	871	0	7.0	7.0	1.0	1	right	1.0	1.0	1.0	1	0.0178033730015	blockFiles/set_30/main_unc/leftBlue\GB_LB_1.xlsx
449	main_unc	True	0.0	871	0	7.0	7.0	1.0	0	right	1.0	0.0	0.0	0	-0.00277108866721	blockFiles/set_30/main_unc/leftBlue\GB_LB_1.xlsx
450	main_unc	True	0.0	871	0	7.0	7.0	1.0	1	right	1.0	1.0	1.0	1	0.0476985167712	blockFiles/set_30/main_unc/leftBlue\GB_LB_1.xlsx
451	main_unc	True	0.0	871	0	7.0	7.0	0.0	1	left	2.0	1.0	1.0	0	-0.0603997095488	blockFiles/set_30/main_unc/leftBlue\GB_LB_1.xlsx
452	main_unc	True	0.0	871	0	7.0	7.0	0.0	1	left	2.0	0.0	1.0	0	-0.0645219443925	blockFiles/set_30/main_unc/leftBlue\GB_LB_1.xlsx
453	main_unc	True	0.0	871	0	7.0	7.0	1.0	1	right	1.0	1.0	1.0	1	0.05974652059380001	blockFiles/set_30/main_unc/leftBlue\GB_LB_1.xlsx
454	main_unc	True	0.0	871	0	8.0	8.0	1.0	1	right	2.0	0.0	0.0	1	0.036187008041900004	blockFiles/set_30/main_unc/leftBlue\GB_LB_2.xlsx
455	main_unc	True	0.0	871	0	8.0	8.0	0.0	1	left	1.0	0.0	0.0	0	-0.07379941292110001	blockFiles/set_30/main_unc/leftBlue\GB_LB_2.xlsx
456	main_unc	True	0.0	871	0	8.0	8.0	1.0	1	right	2.0	0.0	0.0	1	0.0395370953158	blockFiles/set_30/main_unc/leftBlue\GB_LB_2.xlsx
457	main_unc	True	0.0	871	0	8.0	8.0	0.0	1	left	2.0	1.0	1.0	0	-0.049083582609900006	blockFiles/set_30/main_unc/leftBlue\GB_LB_2.xlsx
458	main_unc	True	0.0	871	0	8.0	8.0	0.0	1	left	2.0	1.0	1.0	0	-0.0545205406472	blockFiles/set_30/main_unc/leftBlue\GB_LB_2.xlsx
459	main_unc	True	0.0	871	0	8.0	8.0	0.0	1	left	2.0	1.0	1.0	0	-0.0417089100368	blockFiles/set_30/main_unc/leftBlue\GB_LB_2.xlsx
460	main_unc	True	0.0	871	0	8.0	8.0	0.0	0	left	2.0	0.0	0.0	1	0.00486311489716	blockFiles/set_30/main_unc/leftBlue\GB_LB_2.xlsx
461	main_unc	True	0.0	871	0	8.0	8.0	1.0	1	right	1.0	0.0	1.0	1	0.0030794761888699998	blockFiles/set_30/main_unc/leftBlue\GB_LB_2.xlsx
462	main_unc	True	0.0	871	0	8.0	8.0	0.0	1	left	2.0	1.0	1.0	0	-0.0280739412084	blockFiles/set_30/main_unc/leftBlue\GB_LB_2.xlsx
463	main_unc	True	0.0	871	0	8.0	8.0	0.0	1	left	2.0	1.0	1.0	0	-0.0647893520631	blockFiles/set_30/main_unc/leftBlue\GB_LB_2.xlsx
464	main_unc	True	0.0	871	0	8.0	8.0	1.0	1	right	1.0	1.0	1.0	1	0.05010986540469999	blockFiles/set_30/main_unc/leftBlue\GB_LB_2.xlsx
465	main_unc	True	0.0	871	0	8.0	8.0	1.0	1	right	1.0	1.0	1.0	1	0.0112393555604	blockFiles/set_30/main_unc/leftBlue\GB_LB_2.xlsx
466	main_unc	True	0.0	871	0	8.0	8.0	0.0	1	left	2.0	0.0	1.0	0	-0.0395849687979	blockFiles/set_30/main_unc/leftBlue\GB_LB_2.xlsx
467	main_unc	True	0.0	871	0	8.0	8.0	1.0	1	right	1.0	1.0	1.0	1	0.07796214856210001	blockFiles/set_30/main_unc/leftBlue\GB_LB_2.xlsx
468	main_unc	True	0.0	871	0	8.0	8.0	1.0	1	right	1.0	1.0	1.0	1	0.0437060293183	blockFiles/set_30/main_unc/leftBlue\GB_LB_2.xlsx
469	main_unc	True	0.0	871	0	8.0	8.0	0.0	1	left	2.0	0.0	1.0	0	-0.0750733955204	blockFiles/set_30/main_unc/leftBlue\GB_LB_2.xlsx
470	main_unc	True	0.0	871	0	8.0	8.0	1.0	1	right	1.0	1.0	1.0	1	0.0269645855203	blockFiles/set_30/main_unc/leftBlue\GB_LB_2.xlsx
471	main_unc	True	0.0	871	0	8.0	8.0	1.0	1	right	1.0	1.0	1.0	1	0.0639467502758	blockFiles/set_30/main_unc/leftBlue\GB_LB_2.xlsx
472	main_unc	True	0.0	871	0	8.0	8.0	0.0	1	left	2.0	1.0	1.0	0	-0.020293585173799998	blockFiles/set_30/main_unc/leftBlue\GB_LB_2.xlsx
473	main_unc	True	0.0	871	0	8.0	8.0	1.0	1	right	1.0	0.0	1.0	1	0.00984757604077	blockFiles/set_30/main_unc/leftBlue\GB_LB_2.xlsx
474	main_unc	True	0.0	871	0	8.0	8.0	1.0	1	right	1.0	0.0	1.0	1	0.0720650546998	blockFiles/set_30/main_unc/leftBlue\GB_LB_2.xlsx
475	main_unc	True	0.0	871	0	8.0	8.0	0.0	1	left	2.0	1.0	1.0	0	-0.0146616203338	blockFiles/set_30/main_unc/leftBlue\GB_LB_2.xlsx
476	main_unc	True	0.0	871	0	8.0	8.0	1.0	0	right	1.0	0.0	0.0	0	-0.0194579263777	blockFiles/set_30/main_unc/leftBlue\GB_LB_2.xlsx
477	main_unc	True	0.0	871	0	8.0	8.0	1.0	1	right	1.0	1.0	1.0	1	0.06959374800319999	blockFiles/set_30/main_unc/leftBlue\GB_LB_2.xlsx
478	main_unc	True	0.0	871	0	8.0	8.0	0.0	1	left	2.0	1.0	1.0	0	-0.058790862634800004	blockFiles/set_30/main_unc/leftBlue\GB_LB_2.xlsx
479	main_unc	True	0.0	871	0	9.0	9.0	0.0	0	left	1.0	0.0	0.0	1	0.0038461614586399995	blockFiles/set_30/main_unc/rightBlue\GB_RB_5.xlsx
480	main_unc	True	0.0	871	0	9.0	9.0	1.0	1	right	2.0	1.0	1.0	1	0.0388779192232	blockFiles/set_30/main_unc/rightBlue\GB_RB_5.xlsx
481	main_unc	True	0.0	871	0	9.0	9.0	0.0	1	left	1.0	1.0	1.0	0	-0.0633804319985	blockFiles/set_30/main_unc/rightBlue\GB_RB_5.xlsx
482	main_unc	True	0.0	871	0	9.0	9.0	1.0	1	right	1.0	0.0	0.0	1	0.0052382357791099995	blockFiles/set_30/main_unc/rightBlue\GB_RB_5.xlsx
483	main_unc	True	0.0	871	0	9.0	9.0	1.0	1	right	2.0	1.0	1.0	1	0.00896850554273	blockFiles/set_30/main_unc/rightBlue\GB_RB_5.xlsx
484	main_unc	True	0.0	871	0	9.0	9.0	0.0	1	left	1.0	1.0	1.0	0	-0.0642576195113	blockFiles/set_30/main_unc/rightBlue\GB_RB_5.xlsx
485	main_unc	True	0.0	871	0	9.0	9.0	0.0	1	left	1.0	1.0	1.0	0	-0.060519598424399995	blockFiles/set_30/main_unc/rightBlue\GB_RB_5.xlsx
486	main_unc	True	0.0	871	0	9.0	9.0	0.0	1	left	2.0	0.0	0.0	0	-0.006540775708850001	blockFiles/set_30/main_unc/rightBlue\GB_RB_5.xlsx
487	main_unc	True	0.0	871	0	9.0	9.0	0.0	1	left	1.0	1.0	1.0	0	-0.07034515194589999	blockFiles/set_30/main_unc/rightBlue\GB_RB_5.xlsx
488	main_unc	True	0.0	871	0	9.0	9.0	0.0	0	left	1.0	0.0	0.0	1	0.010476208608600001	blockFiles/set_30/main_unc/rightBlue\GB_RB_5.xlsx
489	main_unc	True	0.0	871	0	9.0	9.0	0.0	1	left	1.0	1.0	1.0	0	-0.0624657076783	blockFiles/set_30/main_unc/rightBlue\GB_RB_5.xlsx
490	main_unc	True	0.0	871	0	9.0	9.0	0.0	1	left	1.0	1.0	1.0	0	-0.0628015013784	blockFiles/set_30/main_unc/rightBlue\GB_RB_5.xlsx
491	main_unc	True	0.0	871	0	9.0	9.0	1.0	1	right	2.0	1.0	1.0	1	0.0291981439665	blockFiles/set_30/main_unc/rightBlue\GB_RB_5.xlsx
492	main_unc	True	0.0	871	0	9.0	9.0	1.0	1	right	2.0	1.0	1.0	1	0.0324193208478	blockFiles/set_30/main_unc/rightBlue\GB_RB_5.xlsx
493	main_unc	True	0.0	871	0	9.0	9.0	0.0	1	left	1.0	1.0	1.0	0	-0.0368249002099	blockFiles/set_30/main_unc/rightBlue\GB_RB_5.xlsx
494	main_unc	True	0.0	871	0	9.0	9.0	0.0	1	left	1.0	0.0	1.0	0	-0.0743636908755	blockFiles/set_30/main_unc/rightBlue\GB_RB_5.xlsx
495	main_unc	True	0.0	871	0	9.0	9.0	0.0	1	left	1.0	0.0	1.0	0	-0.059533033743500004	blockFiles/set_30/main_unc/rightBlue\GB_RB_5.xlsx
496	main_unc	True	0.0	871	0	9.0	9.0	0.0	1	left	1.0	1.0	1.0	0	-0.018343573175400002	blockFiles/set_30/main_unc/rightBlue\GB_RB_5.xlsx
497	main_unc	True	0.0	871	0	9.0	9.0	1.0	1	right	2.0	0.0	1.0	1	0.0646449155547	blockFiles/set_30/main_unc/rightBlue\GB_RB_5.xlsx
498	main_unc	True	0.0	871	0	9.0	9.0	1.0	1	right	2.0	1.0	1.0	1	0.0168360531144	blockFiles/set_30/main_unc/rightBlue\GB_RB_5.xlsx
499	main_unc	True	0.0	871	0	9.0	9.0	1.0	1	right	2.0	1.0	1.0	1	0.021705478802299998	blockFiles/set_30/main_unc/rightBlue\GB_RB_5.xlsx
500	main_unc	True	0.0	871	0	9.0	9.0	0.0	1	left	1.0	1.0	1.0	0	-0.024595524594200002	blockFiles/set_30/main_unc/rightBlue\GB_RB_5.xlsx
501	main_unc	True	0.0	871	0	9.0	9.0	1.0	1	right	2.0	0.0	1.0	1	0.0549478786252	blockFiles/set_30/main_unc/rightBlue\GB_RB_5.xlsx
502	main_unc	True	0.0	871	0	9.0	9.0	1.0	1	right	2.0	1.0	1.0	1	0.024682886041700002	blockFiles/set_30/main_unc/rightBlue\GB_RB_5.xlsx
503	main_unc	True	0.0	871	0	9.0	9.0	0.0	1	left	1.0	1.0	1.0	0	-0.07873676095160001	blockFiles/set_30/main_unc/rightBlue\GB_RB_5.xlsx
504	main_unc	True	0.0	871	0	10.0	10.0	0.0	0	left	1.0	1.0	1.0	1	0.009445411488409999	blockFiles/set_30/main_unc/leftBlue\GB_LB_6.xlsx
505	main_unc	True	0.0	871	0	10.0	10.0	1.0	1	right	2.0	0.0	0.0	1	0.0523757085204	blockFiles/set_30/main_unc/leftBlue\GB_LB_6.xlsx
506	main_unc	True	0.0	871	0	10.0	10.0	0.0	1	left	1.0	0.0	0.0	0	-0.0536813767999	blockFiles/set_30/main_unc/leftBlue\GB_LB_6.xlsx
507	main_unc	True	0.0	871	0	10.0	10.0	0.0	1	left	1.0	0.0	0.0	0	-0.0787582455948	blockFiles/set_30/main_unc/leftBlue\GB_LB_6.xlsx
508	main_unc	True	0.0	871	0	10.0	10.0	0.0	0	left	1.0	1.0	1.0	1	0.0232316426188	blockFiles/set_30/main_unc/leftBlue\GB_LB_6.xlsx
509	main_unc	True	0.0	871	0	10.0	10.0	1.0	1	right	1.0	1.0	1.0	1	0.0321502008103	blockFiles/set_30/main_unc/leftBlue\GB_LB_6.xlsx
510	main_unc	True	0.0	871	0	10.0	10.0	0.0	1	left	2.0	0.0	1.0	0	-0.0334589470178	blockFiles/set_30/main_unc/leftBlue\GB_LB_6.xlsx
511	main_unc	True	0.0	871	0	10.0	10.0	0.0	1	left	1.0	0.0	0.0	0	-0.00328431494534	blockFiles/set_30/main_unc/leftBlue\GB_LB_6.xlsx
512	main_unc	True	0.0	871	0	10.0	10.0	1.0	1	right	1.0	1.0	1.0	1	0.043715574890400004	blockFiles/set_30/main_unc/leftBlue\GB_LB_6.xlsx
513	main_unc	True	0.0	871	0	10.0	10.0	0.0	1	left	2.0	1.0	1.0	0	-0.0673080453649	blockFiles/set_30/main_unc/leftBlue\GB_LB_6.xlsx
514	main_unc	True	0.0	871	0	10.0	10.0	0.0	0	left	1.0	1.0	1.0	1	0.0056960481219	blockFiles/set_30/main_unc/leftBlue\GB_LB_6.xlsx
515	main_unc	True	0.0	871	0	10.0	10.0	1.0	1	right	1.0	0.0	1.0	1	0.0409130593576	blockFiles/set_30/main_unc/leftBlue\GB_LB_6.xlsx
516	main_unc	True	0.0	871	0	10.0	10.0	0.0	1	left	2.0	0.0	1.0	0	-0.0572017417289	blockFiles/set_30/main_unc/leftBlue\GB_LB_6.xlsx
517	main_unc	True	0.0	871	0	10.0	10.0	1.0	1	right	1.0	1.0	1.0	1	0.0200789778493	blockFiles/set_30/main_unc/leftBlue\GB_LB_6.xlsx
518	main_unc	True	0.0	871	0	10.0	10.0	0.0	1	left	2.0	1.0	1.0	0	-0.0297978658415	blockFiles/set_30/main_unc/leftBlue\GB_LB_6.xlsx
519	main_unc	True	0.0	871	0	10.0	10.0	1.0	1	right	1.0	1.0	1.0	1	0.04921287963169999	blockFiles/set_30/main_unc/leftBlue\GB_LB_6.xlsx
520	main_unc	True	0.0	871	0	10.0	10.0	0.0	1	left	2.0	1.0	1.0	0	-0.0481609455124	blockFiles/set_30/main_unc/leftBlue\GB_LB_6.xlsx
521	main_unc	True	0.0	871	0	10.0	10.0	1.0	0	right	1.0	0.0	0.0	0	-0.005279880706220001	blockFiles/set_30/main_unc/leftBlue\GB_LB_6.xlsx
522	main_unc	True	0.0	871	0	10.0	10.0	0.0	1	left	2.0	1.0	1.0	0	-0.0555001648702	blockFiles/set_30/main_unc/leftBlue\GB_LB_6.xlsx
523	main_unc	True	0.0	871	0	10.0	10.0	1.0	1	right	1.0	1.0	1.0	1	0.0798399258591	blockFiles/set_30/main_unc/leftBlue\GB_LB_6.xlsx
524	main_unc	True	0.0	871	0	10.0	10.0	0.0	1	left	2.0	1.0	1.0	0	-0.0321248668432	blockFiles/set_30/main_unc/leftBlue\GB_LB_6.xlsx
525	main_unc	True	0.0	871	0	10.0	10.0	0.0	1	left	2.0	1.0	1.0	0	-0.058763720151	blockFiles/set_30/main_unc/leftBlue\GB_LB_6.xlsx
526	main_unc	True	1.0	871	0	10.0	10.0	n/a	0	None	n/a	0.0	n/a	1	0.0308686209656	blockFiles/set_30/main_unc/leftBlue\GB_LB_6.xlsx
527	main_unc	True	0.0	871	0	10.0	10.0	1.0	1	right	1.0	1.0	1.0	1	0.0361117355339	blockFiles/set_30/main_unc/leftBlue\GB_LB_6.xlsx
528	main_unc	True	0.0	871	0	10.0	10.0	0.0	1	left	2.0	0.0	1.0	0	-0.0111187043414	blockFiles/set_30/main_unc/leftBlue\GB_LB_6.xlsx
529	main_unc	True	0.0	871	0	10.0	10.0	n/a	0	None	n/a	0.0	n/a	1	0.0308686209656	blockFiles/set_30/main_unc/leftBlue\GB_LB_6.xlsx
530	main_unc	True	0.0	871	0	10.0	10.0	1.0	1	right	1.0	0.0	1.0	1	0.0308686209656	blockFiles/set_30/main_unc/leftBlue\GB_LB_6.xlsx
531	main_unc	True	0.0	871	0	11.0	11.0	1.0	1	right	1.0	1.0	0.0	1	0.0313680034317	blockFiles/set_30/main_unc/rightBlue\GB_RB_2.xlsx
532	main_unc	True	0.0	871	0	11.0	11.0	0.0	1	left	2.0	0.0	0.0	0	-0.04441764213140001	blockFiles/set_30/main_unc/rightBlue\GB_RB_2.xlsx
533	main_unc	True	0.0	871	0	11.0	11.0	0.0	0	left	2.0	1.0	1.0	1	0.008420764524489999	blockFiles/set_30/main_unc/rightBlue\GB_RB_2.xlsx
534	main_unc	True	0.0	871	0	11.0	11.0	1.0	1	right	1.0	0.0	0.0	1	0.059396671578299996	blockFiles/set_30/main_unc/rightBlue\GB_RB_2.xlsx
535	main_unc	True	0.0	871	0	11.0	11.0	0.0	1	left	2.0	0.0	0.0	0	-0.0608065651171	blockFiles/set_30/main_unc/rightBlue\GB_RB_2.xlsx
536	main_unc	True	0.0	871	0	11.0	11.0	0.0	1	left	2.0	0.0	0.0	0	-0.07491183035080001	blockFiles/set_30/main_unc/rightBlue\GB_RB_2.xlsx
537	main_unc	True	0.0	871	0	11.0	11.0	1.0	1	right	2.0	1.0	1.0	1	0.0294899806567	blockFiles/set_30/main_unc/rightBlue\GB_RB_2.xlsx
538	main_unc	True	0.0	871	0	11.0	11.0	0.0	1	left	1.0	0.0	1.0	0	-0.0282440975495	blockFiles/set_30/main_unc/rightBlue\GB_RB_2.xlsx
539	main_unc	True	0.0	871	0	11.0	11.0	0.0	1	left	1.0	1.0	1.0	0	-0.015583986006700001	blockFiles/set_30/main_unc/rightBlue\GB_RB_2.xlsx
540	main_unc	True	0.0	871	0	11.0	11.0	1.0	1	right	2.0	1.0	1.0	1	0.0422468740307	blockFiles/set_30/main_unc/rightBlue\GB_RB_2.xlsx
541	main_unc	True	0.0	871	0	11.0	11.0	1.0	1	right	2.0	1.0	1.0	1	0.0455980973318	blockFiles/set_30/main_unc/rightBlue\GB_RB_2.xlsx
542	main_unc	True	0.0	871	0	11.0	11.0	0.0	1	left	1.0	0.0	1.0	0	-0.051922509744800005	blockFiles/set_30/main_unc/rightBlue\GB_RB_2.xlsx
543	main_unc	True	0.0	871	0	11.0	11.0	0.0	1	left	1.0	1.0	1.0	0	-0.0726087420993	blockFiles/set_30/main_unc/rightBlue\GB_RB_2.xlsx
544	main_unc	True	0.0	871	0	11.0	11.0	1.0	1	right	2.0	1.0	1.0	1	0.00824937419966	blockFiles/set_30/main_unc/rightBlue\GB_RB_2.xlsx
545	main_unc	True	0.0	871	0	11.0	11.0	0.0	1	left	1.0	1.0	1.0	0	-0.0356055642478	blockFiles/set_30/main_unc/rightBlue\GB_RB_2.xlsx
546	main_unc	True	0.0	871	0	11.0	11.0	1.0	1	right	2.0	1.0	1.0	1	0.030834813360099998	blockFiles/set_30/main_unc/rightBlue\GB_RB_2.xlsx
547	main_unc	True	0.0	871	0	11.0	11.0	0.0	1	left	1.0	1.0	1.0	0	-0.06721490960570001	blockFiles/set_30/main_unc/rightBlue\GB_RB_2.xlsx
548	main_unc	True	0.0	871	0	11.0	11.0	0.0	1	left	1.0	1.0	1.0	0	-0.0578362710774	blockFiles/set_30/main_unc/rightBlue\GB_RB_2.xlsx
549	main_unc	True	0.0	871	0	11.0	11.0	0.0	1	left	1.0	1.0	1.0	0	-0.0337252639048	blockFiles/set_30/main_unc/rightBlue\GB_RB_2.xlsx
550	main_unc	True	0.0	871	0	11.0	11.0	0.0	1	left	1.0	0.0	1.0	0	-0.0304334523715	blockFiles/set_30/main_unc/rightBlue\GB_RB_2.xlsx
551	main_unc	True	0.0	871	0	11.0	11.0	0.0	0	left	1.0	0.0	0.0	1	0.021846039108899998	blockFiles/set_30/main_unc/rightBlue\GB_RB_2.xlsx
552	main_unc	True	0.0	871	0	11.0	11.0	1.0	1	right	2.0	1.0	1.0	1	0.0481573645771	blockFiles/set_30/main_unc/rightBlue\GB_RB_2.xlsx
553	main_unc	True	0.0	871	0	11.0	11.0	0.0	1	left	1.0	1.0	1.0	0	-0.07855297354980001	blockFiles/set_30/main_unc/rightBlue\GB_RB_2.xlsx
554	main_unc	True	0.0	871	0	11.0	11.0	0.0	0	left	1.0	0.0	0.0	1	0.0161815479025	blockFiles/set_30/main_unc/rightBlue\GB_RB_2.xlsx
555	main_unc	True	0.0	871	0	11.0	11.0	1.0	1	right	2.0	1.0	1.0	1	0.06971433928239999	blockFiles/set_30/main_unc/rightBlue\GB_RB_2.xlsx
