	trial_type	complete	missIndex	participant	id	blockNumber	b_t	d_t	decision1.corr	decision1.keys	a_t	r_t	decision2.corr	s_t	u_t	block_file
0	main_safe	True	0.0	749	0	0.0	0.0	0.0	1	left	2.0	0.0	0.0	0	-0.08	blockFiles/set_34/main_safe/rightBlue\GB_RB_2.xlsx
1	main_safe	True	0.0	749	0	0.0	0.0	0.0	1	left	1.0	1.0	1.0	0	-0.08	blockFiles/set_34/main_safe/rightBlue\GB_RB_2.xlsx
2	main_safe	True	0.0	749	0	0.0	0.0	1.0	1	right	2.0	1.0	1.0	1	0.08	blockFiles/set_34/main_safe/rightBlue\GB_RB_2.xlsx
3	main_safe	True	0.0	749	0	0.0	0.0	1.0	1	right	2.0	1.0	1.0	1	0.08	blockFiles/set_34/main_safe/rightBlue\GB_RB_2.xlsx
4	main_safe	True	0.0	749	0	0.0	0.0	0.0	1	left	1.0	1.0	1.0	0	-0.08	blockFiles/set_34/main_safe/rightBlue\GB_RB_2.xlsx
5	main_safe	True	0.0	749	0	0.0	0.0	0.0	1	left	1.0	1.0	1.0	0	-0.08	blockFiles/set_34/main_safe/rightBlue\GB_RB_2.xlsx
6	main_safe	True	0.0	749	0	0.0	0.0	1.0	1	right	2.0	1.0	1.0	1	0.08	blockFiles/set_34/main_safe/rightBlue\GB_RB_2.xlsx
7	main_safe	True	0.0	749	0	0.0	0.0	0.0	1	left	2.0	1.0	0.0	0	-0.08	blockFiles/set_34/main_safe/rightBlue\GB_RB_2.xlsx
8	main_safe	True	0.0	749	0	0.0	0.0	1.0	1	right	1.0	1.0	0.0	1	0.08	blockFiles/set_34/main_safe/rightBlue\GB_RB_2.xlsx
9	main_safe	True	0.0	749	0	0.0	0.0	0.0	1	left	2.0	0.0	0.0	0	-0.08	blockFiles/set_34/main_safe/rightBlue\GB_RB_2.xlsx
10	main_safe	True	0.0	749	0	0.0	0.0	0.0	1	left	1.0	1.0	1.0	0	-0.08	blockFiles/set_34/main_safe/rightBlue\GB_RB_2.xlsx
11	main_safe	True	0.0	749	0	0.0	0.0	0.0	1	left	1.0	1.0	1.0	0	-0.08	blockFiles/set_34/main_safe/rightBlue\GB_RB_2.xlsx
12	main_safe	True	0.0	749	0	0.0	0.0	1.0	1	right	2.0	1.0	1.0	1	0.08	blockFiles/set_34/main_safe/rightBlue\GB_RB_2.xlsx
13	main_safe	True	0.0	749	0	0.0	0.0	1.0	1	right	2.0	0.0	1.0	1	0.08	blockFiles/set_34/main_safe/rightBlue\GB_RB_2.xlsx
14	main_safe	True	0.0	749	0	0.0	0.0	1.0	1	right	2.0	1.0	1.0	1	0.08	blockFiles/set_34/main_safe/rightBlue\GB_RB_2.xlsx
15	main_safe	True	0.0	749	0	0.0	0.0	1.0	1	right	2.0	0.0	1.0	1	0.08	blockFiles/set_34/main_safe/rightBlue\GB_RB_2.xlsx
16	main_safe	True	0.0	749	0	0.0	0.0	0.0	1	left	1.0	1.0	1.0	0	-0.08	blockFiles/set_34/main_safe/rightBlue\GB_RB_2.xlsx
17	main_safe	True	0.0	749	0	0.0	0.0	0.0	1	left	1.0	1.0	1.0	0	-0.08	blockFiles/set_34/main_safe/rightBlue\GB_RB_2.xlsx
18	main_safe	True	0.0	749	0	0.0	0.0	0.0	1	left	1.0	1.0	1.0	0	-0.08	blockFiles/set_34/main_safe/rightBlue\GB_RB_2.xlsx
19	main_safe	True	0.0	749	0	0.0	0.0	1.0	1	right	2.0	0.0	1.0	1	0.08	blockFiles/set_34/main_safe/rightBlue\GB_RB_2.xlsx
20	main_safe	True	0.0	749	0	0.0	0.0	1.0	1	right	2.0	1.0	1.0	1	0.08	blockFiles/set_34/main_safe/rightBlue\GB_RB_2.xlsx
21	main_safe	True	0.0	749	0	0.0	0.0	1.0	1	right	2.0	1.0	1.0	1	0.08	blockFiles/set_34/main_safe/rightBlue\GB_RB_2.xlsx
22	main_safe	True	0.0	749	0	0.0	0.0	0.0	1	left	1.0	1.0	1.0	0	-0.08	blockFiles/set_34/main_safe/rightBlue\GB_RB_2.xlsx
23	main_safe	True	0.0	749	0	0.0	0.0	1.0	1	right	2.0	1.0	1.0	1	0.08	blockFiles/set_34/main_safe/rightBlue\GB_RB_2.xlsx
24	main_safe	True	0.0	749	0	0.0	0.0	1.0	1	right	2.0	1.0	1.0	1	0.08	blockFiles/set_34/main_safe/rightBlue\GB_RB_2.xlsx
25	main_safe	True	0.0	749	0	1.0	1.0	0.0	1	left	2.0	1.0	1.0	0	-0.08	blockFiles/set_34/main_safe/leftBlue\GB_LB_3.xlsx
26	main_safe	True	0.0	749	0	1.0	1.0	1.0	1	right	1.0	1.0	1.0	1	0.08	blockFiles/set_34/main_safe/leftBlue\GB_LB_3.xlsx
27	main_safe	True	0.0	749	0	1.0	1.0	0.0	1	left	2.0	1.0	1.0	0	-0.08	blockFiles/set_34/main_safe/leftBlue\GB_LB_3.xlsx
28	main_safe	True	0.0	749	0	1.0	1.0	0.0	1	left	2.0	1.0	1.0	0	-0.08	blockFiles/set_34/main_safe/leftBlue\GB_LB_3.xlsx
29	main_safe	True	0.0	749	0	1.0	1.0	0.0	1	left	2.0	1.0	1.0	0	-0.08	blockFiles/set_34/main_safe/leftBlue\GB_LB_3.xlsx
30	main_safe	True	0.0	749	0	1.0	1.0	1.0	1	right	1.0	0.0	1.0	1	0.08	blockFiles/set_34/main_safe/leftBlue\GB_LB_3.xlsx
31	main_safe	True	0.0	749	0	1.0	1.0	1.0	1	right	1.0	1.0	1.0	1	0.08	blockFiles/set_34/main_safe/leftBlue\GB_LB_3.xlsx
32	main_safe	True	0.0	749	0	1.0	1.0	0.0	1	left	2.0	1.0	1.0	0	-0.08	blockFiles/set_34/main_safe/leftBlue\GB_LB_3.xlsx
33	main_safe	True	0.0	749	0	1.0	1.0	1.0	1	right	1.0	0.0	1.0	1	0.08	blockFiles/set_34/main_safe/leftBlue\GB_LB_3.xlsx
34	main_safe	True	0.0	749	0	1.0	1.0	0.0	1	left	2.0	1.0	1.0	0	-0.08	blockFiles/set_34/main_safe/leftBlue\GB_LB_3.xlsx
35	main_safe	True	0.0	749	0	1.0	1.0	1.0	1	right	1.0	0.0	1.0	1	0.08	blockFiles/set_34/main_safe/leftBlue\GB_LB_3.xlsx
36	main_safe	True	0.0	749	0	1.0	1.0	0.0	1	left	2.0	1.0	1.0	0	-0.08	blockFiles/set_34/main_safe/leftBlue\GB_LB_3.xlsx
37	main_safe	True	0.0	749	0	1.0	1.0	1.0	1	right	1.0	1.0	1.0	1	0.08	blockFiles/set_34/main_safe/leftBlue\GB_LB_3.xlsx
38	main_safe	True	0.0	749	0	1.0	1.0	1.0	1	right	1.0	1.0	1.0	1	0.08	blockFiles/set_34/main_safe/leftBlue\GB_LB_3.xlsx
39	main_safe	True	0.0	749	0	1.0	1.0	1.0	1	right	1.0	1.0	1.0	1	0.08	blockFiles/set_34/main_safe/leftBlue\GB_LB_3.xlsx
40	main_safe	True	0.0	749	0	1.0	1.0	0.0	1	left	2.0	0.0	1.0	0	-0.08	blockFiles/set_34/main_safe/leftBlue\GB_LB_3.xlsx
41	main_safe	True	0.0	749	0	1.0	1.0	1.0	1	right	1.0	1.0	1.0	1	0.08	blockFiles/set_34/main_safe/leftBlue\GB_LB_3.xlsx
42	main_safe	True	0.0	749	0	1.0	1.0	0.0	1	left	2.0	0.0	1.0	0	-0.08	blockFiles/set_34/main_safe/leftBlue\GB_LB_3.xlsx
43	main_safe	True	0.0	749	0	1.0	1.0	1.0	1	right	1.0	0.0	1.0	1	0.08	blockFiles/set_34/main_safe/leftBlue\GB_LB_3.xlsx
44	main_safe	True	0.0	749	0	1.0	1.0	0.0	1	left	2.0	1.0	1.0	0	-0.08	blockFiles/set_34/main_safe/leftBlue\GB_LB_3.xlsx
45	main_safe	True	0.0	749	0	1.0	1.0	0.0	1	left	2.0	1.0	1.0	0	-0.08	blockFiles/set_34/main_safe/leftBlue\GB_LB_3.xlsx
46	main_safe	True	0.0	749	0	1.0	1.0	1.0	1	right	1.0	1.0	1.0	1	0.08	blockFiles/set_34/main_safe/leftBlue\GB_LB_3.xlsx
47	main_safe	True	0.0	749	0	1.0	1.0	1.0	1	right	1.0	1.0	1.0	1	0.08	blockFiles/set_34/main_safe/leftBlue\GB_LB_3.xlsx
48	main_safe	True	0.0	749	0	1.0	1.0	1.0	1	right	1.0	1.0	1.0	1	0.08	blockFiles/set_34/main_safe/leftBlue\GB_LB_3.xlsx
49	main_safe	True	0.0	749	0	1.0	1.0	0.0	1	left	2.0	1.0	1.0	0	-0.08	blockFiles/set_34/main_safe/leftBlue\GB_LB_3.xlsx
50	main_safe	True	0.0	749	0	2.0	2.0	0.0	1	left	2.0	1.0	1.0	0	-0.08	blockFiles/set_34/main_safe/leftBlue\GB_LB_1.xlsx
51	main_safe	True	0.0	749	0	2.0	2.0	1.0	1	right	1.0	1.0	1.0	1	0.08	blockFiles/set_34/main_safe/leftBlue\GB_LB_1.xlsx
52	main_safe	True	0.0	749	0	2.0	2.0	1.0	1	right	1.0	1.0	1.0	1	0.08	blockFiles/set_34/main_safe/leftBlue\GB_LB_1.xlsx
53	main_safe	True	0.0	749	0	2.0	2.0	1.0	1	right	1.0	0.0	1.0	1	0.08	blockFiles/set_34/main_safe/leftBlue\GB_LB_1.xlsx
54	main_safe	True	0.0	749	0	2.0	2.0	1.0	1	right	1.0	1.0	1.0	1	0.08	blockFiles/set_34/main_safe/leftBlue\GB_LB_1.xlsx
55	main_safe	True	0.0	749	0	2.0	2.0	0.0	1	left	2.0	1.0	1.0	0	-0.08	blockFiles/set_34/main_safe/leftBlue\GB_LB_1.xlsx
56	main_safe	True	0.0	749	0	2.0	2.0	0.0	1	left	2.0	1.0	1.0	0	-0.08	blockFiles/set_34/main_safe/leftBlue\GB_LB_1.xlsx
57	main_safe	True	0.0	749	0	2.0	2.0	1.0	1	right	1.0	0.0	1.0	1	0.08	blockFiles/set_34/main_safe/leftBlue\GB_LB_1.xlsx
58	main_safe	True	0.0	749	0	2.0	2.0	0.0	1	left	2.0	1.0	1.0	0	-0.08	blockFiles/set_34/main_safe/leftBlue\GB_LB_1.xlsx
59	main_safe	True	0.0	749	0	2.0	2.0	0.0	1	left	2.0	1.0	1.0	0	-0.08	blockFiles/set_34/main_safe/leftBlue\GB_LB_1.xlsx
60	main_safe	True	0.0	749	0	2.0	2.0	0.0	1	left	2.0	1.0	1.0	0	-0.08	blockFiles/set_34/main_safe/leftBlue\GB_LB_1.xlsx
61	main_safe	True	0.0	749	0	2.0	2.0	1.0	1	right	1.0	1.0	1.0	1	0.08	blockFiles/set_34/main_safe/leftBlue\GB_LB_1.xlsx
62	main_safe	True	0.0	749	0	2.0	2.0	1.0	1	right	1.0	1.0	1.0	1	0.08	blockFiles/set_34/main_safe/leftBlue\GB_LB_1.xlsx
63	main_safe	True	0.0	749	0	2.0	2.0	0.0	1	left	2.0	1.0	1.0	0	-0.08	blockFiles/set_34/main_safe/leftBlue\GB_LB_1.xlsx
64	main_safe	True	0.0	749	0	2.0	2.0	1.0	1	right	1.0	0.0	1.0	1	0.08	blockFiles/set_34/main_safe/leftBlue\GB_LB_1.xlsx
65	main_safe	True	0.0	749	0	2.0	2.0	0.0	1	left	2.0	1.0	1.0	0	-0.08	blockFiles/set_34/main_safe/leftBlue\GB_LB_1.xlsx
66	main_safe	True	0.0	749	0	2.0	2.0	1.0	1	right	1.0	1.0	1.0	1	0.08	blockFiles/set_34/main_safe/leftBlue\GB_LB_1.xlsx
67	main_safe	True	0.0	749	0	2.0	2.0	0.0	1	left	2.0	1.0	1.0	0	-0.08	blockFiles/set_34/main_safe/leftBlue\GB_LB_1.xlsx
68	main_safe	True	0.0	749	0	2.0	2.0	1.0	1	right	1.0	0.0	1.0	1	0.08	blockFiles/set_34/main_safe/leftBlue\GB_LB_1.xlsx
69	main_safe	True	0.0	749	0	2.0	2.0	1.0	1	right	1.0	1.0	1.0	1	0.08	blockFiles/set_34/main_safe/leftBlue\GB_LB_1.xlsx
70	main_safe	True	0.0	749	0	2.0	2.0	0.0	1	left	2.0	1.0	1.0	0	-0.08	blockFiles/set_34/main_safe/leftBlue\GB_LB_1.xlsx
71	main_safe	True	0.0	749	0	2.0	2.0	1.0	1	right	1.0	1.0	1.0	1	0.08	blockFiles/set_34/main_safe/leftBlue\GB_LB_1.xlsx
72	main_safe	True	0.0	749	0	2.0	2.0	1.0	1	right	1.0	1.0	1.0	1	0.08	blockFiles/set_34/main_safe/leftBlue\GB_LB_1.xlsx
73	main_safe	True	0.0	749	0	2.0	2.0	0.0	1	left	2.0	1.0	1.0	0	-0.08	blockFiles/set_34/main_safe/leftBlue\GB_LB_1.xlsx
74	main_safe	True	0.0	749	0	2.0	2.0	1.0	1	right	1.0	1.0	1.0	1	0.08	blockFiles/set_34/main_safe/leftBlue\GB_LB_1.xlsx
75	main_safe	True	0.0	749	0	3.0	3.0	1.0	1	right	1.0	1.0	1.0	1	0.08	blockFiles/set_34/main_safe/leftBlue\GB_LB_2.xlsx
76	main_safe	True	0.0	749	0	3.0	3.0	0.0	1	left	2.0	1.0	1.0	0	-0.08	blockFiles/set_34/main_safe/leftBlue\GB_LB_2.xlsx
77	main_safe	True	0.0	749	0	3.0	3.0	0.0	1	left	2.0	1.0	1.0	0	-0.08	blockFiles/set_34/main_safe/leftBlue\GB_LB_2.xlsx
78	main_safe	True	0.0	749	0	3.0	3.0	1.0	1	right	1.0	0.0	1.0	1	0.08	blockFiles/set_34/main_safe/leftBlue\GB_LB_2.xlsx
79	main_safe	True	0.0	749	0	3.0	3.0	0.0	1	left	2.0	1.0	1.0	0	-0.08	blockFiles/set_34/main_safe/leftBlue\GB_LB_2.xlsx
80	main_safe	True	0.0	749	0	3.0	3.0	1.0	1	right	1.0	1.0	1.0	1	0.08	blockFiles/set_34/main_safe/leftBlue\GB_LB_2.xlsx
81	main_safe	True	0.0	749	0	3.0	3.0	1.0	1	right	1.0	1.0	1.0	1	0.08	blockFiles/set_34/main_safe/leftBlue\GB_LB_2.xlsx
82	main_safe	True	0.0	749	0	3.0	3.0	1.0	1	right	1.0	1.0	1.0	1	0.08	blockFiles/set_34/main_safe/leftBlue\GB_LB_2.xlsx
83	main_safe	True	1.0	749	0	3.0	3.0	0.0	1	left	n/a	0.0	n/a	0	-0.08	blockFiles/set_34/main_safe/leftBlue\GB_LB_2.xlsx
84	main_safe	True	0.0	749	0	3.0	3.0	0.0	0	left	1.0	1.0	1.0	1	0.08	blockFiles/set_34/main_safe/leftBlue\GB_LB_2.xlsx
85	main_safe	True	0.0	749	0	3.0	3.0	0.0	1	left	2.0	1.0	1.0	0	-0.08	blockFiles/set_34/main_safe/leftBlue\GB_LB_2.xlsx
86	main_safe	True	0.0	749	0	3.0	3.0	1.0	1	right	1.0	0.0	1.0	1	0.08	blockFiles/set_34/main_safe/leftBlue\GB_LB_2.xlsx
87	main_safe	True	0.0	749	0	3.0	3.0	0.0	1	left	2.0	1.0	1.0	0	-0.08	blockFiles/set_34/main_safe/leftBlue\GB_LB_2.xlsx
88	main_safe	True	0.0	749	0	3.0	3.0	0.0	1	left	2.0	1.0	1.0	0	-0.08	blockFiles/set_34/main_safe/leftBlue\GB_LB_2.xlsx
89	main_safe	True	0.0	749	0	3.0	3.0	0.0	1	left	2.0	1.0	1.0	0	-0.08	blockFiles/set_34/main_safe/leftBlue\GB_LB_2.xlsx
90	main_safe	True	0.0	749	0	3.0	3.0	0.0	1	left	2.0	1.0	1.0	0	-0.08	blockFiles/set_34/main_safe/leftBlue\GB_LB_2.xlsx
91	main_safe	True	0.0	749	0	3.0	3.0	0.0	1	left	2.0	1.0	1.0	0	-0.08	blockFiles/set_34/main_safe/leftBlue\GB_LB_2.xlsx
92	main_safe	True	0.0	749	0	3.0	3.0	1.0	1	right	1.0	0.0	1.0	1	0.08	blockFiles/set_34/main_safe/leftBlue\GB_LB_2.xlsx
93	main_safe	True	0.0	749	0	3.0	3.0	1.0	1	right	1.0	1.0	1.0	1	0.08	blockFiles/set_34/main_safe/leftBlue\GB_LB_2.xlsx
94	main_safe	True	0.0	749	0	3.0	3.0	0.0	1	left	2.0	1.0	1.0	0	-0.08	blockFiles/set_34/main_safe/leftBlue\GB_LB_2.xlsx
95	main_safe	True	0.0	749	0	3.0	3.0	1.0	1	right	1.0	1.0	1.0	1	0.08	blockFiles/set_34/main_safe/leftBlue\GB_LB_2.xlsx
96	main_safe	True	0.0	749	0	3.0	3.0	1.0	1	right	1.0	1.0	1.0	1	0.08	blockFiles/set_34/main_safe/leftBlue\GB_LB_2.xlsx
97	main_safe	True	0.0	749	0	3.0	3.0	0.0	1	left	2.0	1.0	1.0	0	-0.08	blockFiles/set_34/main_safe/leftBlue\GB_LB_2.xlsx
98	main_safe	True	0.0	749	0	3.0	3.0	1.0	1	right	1.0	1.0	1.0	1	0.08	blockFiles/set_34/main_safe/leftBlue\GB_LB_2.xlsx
99	main_safe	True	0.0	749	0	3.0	3.0	1.0	1	right	1.0	0.0	1.0	1	0.08	blockFiles/set_34/main_safe/leftBlue\GB_LB_2.xlsx
100	main_safe	True	0.0	749	0	3.0	3.0	0.0	1	left	2.0	1.0	1.0	0	-0.08	blockFiles/set_34/main_safe/leftBlue\GB_LB_2.xlsx
101	main_safe	True	0.0	749	0	4.0	4.0	1.0	1	right	1.0	0.0	0.0	1	0.08	blockFiles/set_34/main_safe/rightBlue\GB_RB_3.xlsx
102	main_safe	True	0.0	749	0	4.0	4.0	0.0	1	left	2.0	0.0	0.0	0	-0.08	blockFiles/set_34/main_safe/rightBlue\GB_RB_3.xlsx
103	main_safe	True	0.0	749	0	4.0	4.0	0.0	1	left	1.0	1.0	1.0	0	-0.08	blockFiles/set_34/main_safe/rightBlue\GB_RB_3.xlsx
104	main_safe	True	0.0	749	0	4.0	4.0	1.0	1	right	2.0	1.0	1.0	1	0.08	blockFiles/set_34/main_safe/rightBlue\GB_RB_3.xlsx
105	main_safe	True	0.0	749	0	4.0	4.0	0.0	1	left	1.0	0.0	1.0	0	-0.08	blockFiles/set_34/main_safe/rightBlue\GB_RB_3.xlsx
106	main_safe	True	0.0	749	0	4.0	4.0	1.0	1	right	2.0	1.0	1.0	1	0.08	blockFiles/set_34/main_safe/rightBlue\GB_RB_3.xlsx
107	main_safe	True	0.0	749	0	4.0	4.0	0.0	1	left	1.0	1.0	1.0	0	-0.08	blockFiles/set_34/main_safe/rightBlue\GB_RB_3.xlsx
108	main_safe	True	0.0	749	0	4.0	4.0	1.0	1	right	2.0	1.0	1.0	1	0.08	blockFiles/set_34/main_safe/rightBlue\GB_RB_3.xlsx
109	main_safe	True	0.0	749	0	4.0	4.0	0.0	1	left	1.0	1.0	1.0	0	-0.08	blockFiles/set_34/main_safe/rightBlue\GB_RB_3.xlsx
110	main_safe	True	0.0	749	0	4.0	4.0	0.0	1	left	1.0	0.0	1.0	0	-0.08	blockFiles/set_34/main_safe/rightBlue\GB_RB_3.xlsx
111	main_safe	True	0.0	749	0	4.0	4.0	1.0	1	right	2.0	0.0	1.0	1	0.08	blockFiles/set_34/main_safe/rightBlue\GB_RB_3.xlsx
112	main_safe	True	0.0	749	0	4.0	4.0	1.0	1	right	2.0	1.0	1.0	1	0.08	blockFiles/set_34/main_safe/rightBlue\GB_RB_3.xlsx
113	main_safe	True	0.0	749	0	4.0	4.0	1.0	1	right	2.0	1.0	1.0	1	0.08	blockFiles/set_34/main_safe/rightBlue\GB_RB_3.xlsx
114	main_safe	True	0.0	749	0	4.0	4.0	0.0	1	left	1.0	0.0	1.0	0	-0.08	blockFiles/set_34/main_safe/rightBlue\GB_RB_3.xlsx
115	main_safe	True	0.0	749	0	4.0	4.0	0.0	1	left	1.0	1.0	1.0	0	-0.08	blockFiles/set_34/main_safe/rightBlue\GB_RB_3.xlsx
116	main_safe	True	0.0	749	0	4.0	4.0	0.0	1	left	1.0	0.0	1.0	0	-0.08	blockFiles/set_34/main_safe/rightBlue\GB_RB_3.xlsx
117	main_safe	True	0.0	749	0	4.0	4.0	1.0	1	right	2.0	1.0	1.0	1	0.08	blockFiles/set_34/main_safe/rightBlue\GB_RB_3.xlsx
118	main_safe	True	0.0	749	0	4.0	4.0	1.0	1	right	2.0	1.0	1.0	1	0.08	blockFiles/set_34/main_safe/rightBlue\GB_RB_3.xlsx
119	main_safe	True	0.0	749	0	4.0	4.0	1.0	1	right	2.0	1.0	1.0	1	0.08	blockFiles/set_34/main_safe/rightBlue\GB_RB_3.xlsx
120	main_safe	True	0.0	749	0	4.0	4.0	1.0	1	right	2.0	1.0	1.0	1	0.08	blockFiles/set_34/main_safe/rightBlue\GB_RB_3.xlsx
121	main_safe	True	0.0	749	0	4.0	4.0	0.0	1	left	2.0	0.0	0.0	0	-0.08	blockFiles/set_34/main_safe/rightBlue\GB_RB_3.xlsx
122	main_safe	True	0.0	749	0	4.0	4.0	1.0	1	right	2.0	1.0	1.0	1	0.08	blockFiles/set_34/main_safe/rightBlue\GB_RB_3.xlsx
123	main_safe	True	0.0	749	0	4.0	4.0	1.0	1	right	2.0	1.0	1.0	1	0.08	blockFiles/set_34/main_safe/rightBlue\GB_RB_3.xlsx
124	main_safe	True	0.0	749	0	4.0	4.0	0.0	1	left	1.0	1.0	1.0	0	-0.08	blockFiles/set_34/main_safe/rightBlue\GB_RB_3.xlsx
125	main_safe	True	0.0	749	0	4.0	4.0	1.0	1	right	2.0	1.0	1.0	1	0.08	blockFiles/set_34/main_safe/rightBlue\GB_RB_3.xlsx
126	main_safe	True	0.0	749	0	5.0	5.0	0.0	1	left	1.0	1.0	1.0	0	-0.08	blockFiles/set_34/main_safe/rightBlue\GB_RB_1.xlsx
127	main_safe	True	0.0	749	0	5.0	5.0	0.0	1	left	1.0	1.0	1.0	0	-0.08	blockFiles/set_34/main_safe/rightBlue\GB_RB_1.xlsx
128	main_safe	True	0.0	749	0	5.0	5.0	0.0	1	left	1.0	1.0	1.0	0	-0.08	blockFiles/set_34/main_safe/rightBlue\GB_RB_1.xlsx
129	main_safe	True	0.0	749	0	5.0	5.0	1.0	1	right	2.0	1.0	1.0	1	0.08	blockFiles/set_34/main_safe/rightBlue\GB_RB_1.xlsx
130	main_safe	True	0.0	749	0	5.0	5.0	1.0	1	right	2.0	1.0	1.0	1	0.08	blockFiles/set_34/main_safe/rightBlue\GB_RB_1.xlsx
131	main_safe	True	0.0	749	0	5.0	5.0	0.0	1	left	1.0	1.0	1.0	0	-0.08	blockFiles/set_34/main_safe/rightBlue\GB_RB_1.xlsx
132	main_safe	True	0.0	749	0	5.0	5.0	1.0	1	right	2.0	1.0	1.0	1	0.08	blockFiles/set_34/main_safe/rightBlue\GB_RB_1.xlsx
133	main_safe	True	0.0	749	0	5.0	5.0	1.0	1	right	2.0	0.0	1.0	1	0.08	blockFiles/set_34/main_safe/rightBlue\GB_RB_1.xlsx
134	main_safe	True	0.0	749	0	5.0	5.0	1.0	1	right	2.0	1.0	1.0	1	0.08	blockFiles/set_34/main_safe/rightBlue\GB_RB_1.xlsx
135	main_safe	True	0.0	749	0	5.0	5.0	0.0	1	left	1.0	1.0	1.0	0	-0.08	blockFiles/set_34/main_safe/rightBlue\GB_RB_1.xlsx
136	main_safe	True	0.0	749	0	5.0	5.0	1.0	1	right	2.0	1.0	1.0	1	0.08	blockFiles/set_34/main_safe/rightBlue\GB_RB_1.xlsx
137	main_safe	True	0.0	749	0	5.0	5.0	0.0	1	left	1.0	1.0	1.0	0	-0.08	blockFiles/set_34/main_safe/rightBlue\GB_RB_1.xlsx
138	main_safe	True	0.0	749	0	5.0	5.0	0.0	1	left	1.0	1.0	1.0	0	-0.08	blockFiles/set_34/main_safe/rightBlue\GB_RB_1.xlsx
139	main_safe	True	0.0	749	0	5.0	5.0	1.0	1	right	2.0	1.0	1.0	1	0.08	blockFiles/set_34/main_safe/rightBlue\GB_RB_1.xlsx
140	main_safe	True	0.0	749	0	5.0	5.0	1.0	1	right	1.0	1.0	0.0	1	0.08	blockFiles/set_34/main_safe/rightBlue\GB_RB_1.xlsx
141	main_safe	True	0.0	749	0	5.0	5.0	0.0	1	left	1.0	0.0	1.0	0	-0.08	blockFiles/set_34/main_safe/rightBlue\GB_RB_1.xlsx
142	main_safe	True	0.0	749	0	5.0	5.0	0.0	1	left	1.0	1.0	1.0	0	-0.08	blockFiles/set_34/main_safe/rightBlue\GB_RB_1.xlsx
143	main_safe	True	0.0	749	0	5.0	5.0	0.0	1	left	1.0	1.0	1.0	0	-0.08	blockFiles/set_34/main_safe/rightBlue\GB_RB_1.xlsx
144	main_safe	True	0.0	749	0	5.0	5.0	0.0	1	left	1.0	1.0	1.0	0	-0.08	blockFiles/set_34/main_safe/rightBlue\GB_RB_1.xlsx
145	main_safe	True	0.0	749	0	5.0	5.0	1.0	1	right	2.0	1.0	1.0	1	0.08	blockFiles/set_34/main_safe/rightBlue\GB_RB_1.xlsx
146	main_safe	True	0.0	749	0	5.0	5.0	0.0	1	left	1.0	1.0	1.0	0	-0.08	blockFiles/set_34/main_safe/rightBlue\GB_RB_1.xlsx
147	main_safe	True	0.0	749	0	5.0	5.0	0.0	1	left	1.0	1.0	1.0	0	-0.08	blockFiles/set_34/main_safe/rightBlue\GB_RB_1.xlsx
148	main_safe	True	0.0	749	0	5.0	5.0	1.0	1	right	2.0	0.0	1.0	1	0.08	blockFiles/set_34/main_safe/rightBlue\GB_RB_1.xlsx
149	main_safe	True	0.0	749	0	5.0	5.0	1.0	1	right	2.0	1.0	1.0	1	0.08	blockFiles/set_34/main_safe/rightBlue\GB_RB_1.xlsx
150	main_safe	True	0.0	749	0	5.0	5.0	0.0	1	left	1.0	0.0	1.0	0	-0.08	blockFiles/set_34/main_safe/rightBlue\GB_RB_1.xlsx
151	patches	True	n/a	749	0	n/a	n/a	1.0	1	right	n/a	n/a	n/a	1	0.0204095638543	blockFiles/set_34/main_PD/GB_runPatches1.xlsx
152	patches	True	n/a	749	0	n/a	n/a	0.0	1	left	n/a	n/a	n/a	0	-0.060111186523	blockFiles/set_34/main_PD/GB_runPatches1.xlsx
153	patches	True	n/a	749	0	n/a	n/a	0.0	1	left	n/a	n/a	n/a	0	-0.057548759989400004	blockFiles/set_34/main_PD/GB_runPatches1.xlsx
154	patches	True	n/a	749	0	n/a	n/a	1.0	1	right	n/a	n/a	n/a	1	0.062091784309599996	blockFiles/set_34/main_PD/GB_runPatches1.xlsx
155	patches	True	n/a	749	0	n/a	n/a	1.0	1	right	n/a	n/a	n/a	1	0.0659213686921	blockFiles/set_34/main_PD/GB_runPatches1.xlsx
156	patches	True	n/a	749	0	n/a	n/a	0.0	0	left	n/a	n/a	n/a	1	0.0013554206862999999	blockFiles/set_34/main_PD/GB_runPatches1.xlsx
157	patches	True	n/a	749	0	n/a	n/a	0.0	1	left	n/a	n/a	n/a	0	-0.0196445762739	blockFiles/set_34/main_PD/GB_runPatches1.xlsx
158	patches	True	n/a	749	0	n/a	n/a	0.0	0	left	n/a	n/a	n/a	1	0.0352748291008	blockFiles/set_34/main_PD/GB_runPatches1.xlsx
159	patches	True	n/a	749	0	n/a	n/a	0.0	0	left	n/a	n/a	n/a	1	0.042317291200199995	blockFiles/set_34/main_PD/GB_runPatches1.xlsx
160	patches	True	n/a	749	0	n/a	n/a	1.0	1	right	n/a	n/a	n/a	1	0.0557132920064	blockFiles/set_34/main_PD/GB_runPatches1.xlsx
161	patches	True	n/a	749	0	n/a	n/a	1.0	1	right	n/a	n/a	n/a	1	0.04699168216440001	blockFiles/set_34/main_PD/GB_runPatches1.xlsx
162	patches	True	n/a	749	0	n/a	n/a	0.0	1	left	n/a	n/a	n/a	0	-0.0682505093887	blockFiles/set_34/main_PD/GB_runPatches1.xlsx
163	patches	True	n/a	749	0	n/a	n/a	0.0	0	left	n/a	n/a	n/a	1	0.0390154964477	blockFiles/set_34/main_PD/GB_runPatches1.xlsx
164	patches	True	n/a	749	0	n/a	n/a	1.0	1	right	n/a	n/a	n/a	1	0.04926299251619999	blockFiles/set_34/main_PD/GB_runPatches1.xlsx
165	patches	True	n/a	749	0	n/a	n/a	1.0	1	right	n/a	n/a	n/a	1	0.0476269770041	blockFiles/set_34/main_PD/GB_runPatches1.xlsx
166	patches	True	n/a	749	0	n/a	n/a	0.0	1	left	n/a	n/a	n/a	0	-0.021621842254	blockFiles/set_34/main_PD/GB_runPatches1.xlsx
167	patches	True	n/a	749	0	n/a	n/a	0.0	1	left	n/a	n/a	n/a	0	-0.014172152746500001	blockFiles/set_34/main_PD/GB_runPatches1.xlsx
168	patches	True	n/a	749	0	n/a	n/a	0.0	1	left	n/a	n/a	n/a	0	-0.013971536587900001	blockFiles/set_34/main_PD/GB_runPatches1.xlsx
169	patches	True	n/a	749	0	n/a	n/a	0.0	1	left	n/a	n/a	n/a	0	-0.0785547598265	blockFiles/set_34/main_PD/GB_runPatches1.xlsx
170	patches	True	n/a	749	0	n/a	n/a	0.0	1	left	n/a	n/a	n/a	0	-0.00648980431259	blockFiles/set_34/main_PD/GB_runPatches1.xlsx
171	patches	True	n/a	749	0	n/a	n/a	0.0	1	left	n/a	n/a	n/a	0	-0.0734453903325	blockFiles/set_34/main_PD/GB_runPatches1.xlsx
172	patches	True	n/a	749	0	n/a	n/a	0.0	1	left	n/a	n/a	n/a	0	-0.00565735809505	blockFiles/set_34/main_PD/GB_runPatches1.xlsx
173	patches	True	n/a	749	0	n/a	n/a	0.0	1	left	n/a	n/a	n/a	0	-0.059380994550900006	blockFiles/set_34/main_PD/GB_runPatches1.xlsx
174	patches	True	n/a	749	0	n/a	n/a	0.0	1	left	n/a	n/a	n/a	0	-0.040777042973800005	blockFiles/set_34/main_PD/GB_runPatches1.xlsx
175	patches	True	n/a	749	0	n/a	n/a	0.0	1	left	n/a	n/a	n/a	0	-0.029764466173900002	blockFiles/set_34/main_PD/GB_runPatches1.xlsx
176	patches	True	n/a	749	0	n/a	n/a	n/a	0	None	n/a	n/a	n/a	0	-0.0548669547401	blockFiles/set_34/main_PD/GB_runPatches1.xlsx
177	patches	True	n/a	749	0	n/a	n/a	0.0	1	left	n/a	n/a	n/a	0	-0.057992342449699995	blockFiles/set_34/main_PD/GB_runPatches1.xlsx
178	patches	True	n/a	749	0	n/a	n/a	0.0	1	left	n/a	n/a	n/a	0	-0.0189738072269	blockFiles/set_34/main_PD/GB_runPatches1.xlsx
179	patches	True	n/a	749	0	n/a	n/a	0.0	0	left	n/a	n/a	n/a	1	0.0322267267294	blockFiles/set_34/main_PD/GB_runPatches1.xlsx
180	patches	True	n/a	749	0	n/a	n/a	0.0	1	left	n/a	n/a	n/a	0	-0.0038094095327	blockFiles/set_34/main_PD/GB_runPatches1.xlsx
181	patches	True	n/a	749	0	n/a	n/a	0.0	1	left	n/a	n/a	n/a	0	-0.03912541147319999	blockFiles/set_34/main_PD/GB_runPatches1.xlsx
182	patches	True	n/a	749	0	n/a	n/a	0.0	1	left	n/a	n/a	n/a	0	-0.0305958349444	blockFiles/set_34/main_PD/GB_runPatches1.xlsx
183	patches	True	n/a	749	0	n/a	n/a	0.0	0	left	n/a	n/a	n/a	1	0.0434222386405	blockFiles/set_34/main_PD/GB_runPatches1.xlsx
184	patches	True	n/a	749	0	n/a	n/a	0.0	1	left	n/a	n/a	n/a	0	-0.07170486798510001	blockFiles/set_34/main_PD/GB_runPatches1.xlsx
185	patches	True	n/a	749	0	n/a	n/a	0.0	0	left	n/a	n/a	n/a	1	0.0531295028888	blockFiles/set_34/main_PD/GB_runPatches1.xlsx
186	patches	True	n/a	749	0	n/a	n/a	1.0	1	right	n/a	n/a	n/a	1	0.049029465727500006	blockFiles/set_34/main_PD/GB_runPatches1.xlsx
187	patches	True	n/a	749	0	n/a	n/a	0.0	0	left	n/a	n/a	n/a	1	0.018626129701700002	blockFiles/set_34/main_PD/GB_runPatches1.xlsx
188	patches	True	n/a	749	0	n/a	n/a	0.0	1	left	n/a	n/a	n/a	0	-0.0776113769226	blockFiles/set_34/main_PD/GB_runPatches1.xlsx
189	patches	True	n/a	749	0	n/a	n/a	0.0	0	left	n/a	n/a	n/a	1	0.009809477180239999	blockFiles/set_34/main_PD/GB_runPatches1.xlsx
190	patches	True	n/a	749	0	n/a	n/a	0.0	0	left	n/a	n/a	n/a	1	0.023920538965599997	blockFiles/set_34/main_PD/GB_runPatches1.xlsx
191	patches	True	n/a	749	0	n/a	n/a	0.0	1	left	n/a	n/a	n/a	0	-0.06862818682569999	blockFiles/set_34/main_PD/GB_runPatches1.xlsx
192	patches	True	n/a	749	0	n/a	n/a	0.0	0	left	n/a	n/a	n/a	1	0.0553005832061	blockFiles/set_34/main_PD/GB_runPatches1.xlsx
193	patches	True	n/a	749	0	n/a	n/a	0.0	1	left	n/a	n/a	n/a	0	-0.059191633425699997	blockFiles/set_34/main_PD/GB_runPatches1.xlsx
194	patches	True	n/a	749	0	n/a	n/a	0.0	1	left	n/a	n/a	n/a	0	-0.00496937852353	blockFiles/set_34/main_PD/GB_runPatches1.xlsx
195	patches	True	n/a	749	0	n/a	n/a	n/a	0	None	n/a	n/a	n/a	1	0.021654202323400002	blockFiles/set_34/main_PD/GB_runPatches1.xlsx
196	patches	True	n/a	749	0	n/a	n/a	n/a	0	None	n/a	n/a	n/a	0	-0.050399780683199995	blockFiles/set_34/main_PD/GB_runPatches1.xlsx
197	patches	True	n/a	749	0	n/a	n/a	1.0	1	right	n/a	n/a	n/a	1	0.0774406964332	blockFiles/set_34/main_PD/GB_runPatches1.xlsx
198	patches	True	n/a	749	0	n/a	n/a	1.0	1	right	n/a	n/a	n/a	1	0.042323553022	blockFiles/set_34/main_PD/GB_runPatches1.xlsx
199	patches	True	n/a	749	0	n/a	n/a	1.0	1	right	n/a	n/a	n/a	1	0.0459287420847	blockFiles/set_34/main_PD/GB_runPatches1.xlsx
200	patches	True	n/a	749	0	n/a	n/a	1.0	1	right	n/a	n/a	n/a	1	0.005341217666859999	blockFiles/set_34/main_PD/GB_runPatches1.xlsx
201	patches	True	n/a	749	0	n/a	n/a	0.0	1	left	n/a	n/a	n/a	0	-0.0339541668817	blockFiles/set_34/main_PD/GB_runPatches1.xlsx
202	patches	True	n/a	749	0	n/a	n/a	0.0	0	left	n/a	n/a	n/a	1	0.0176658721641	blockFiles/set_34/main_PD/GB_runPatches1.xlsx
203	patches	True	n/a	749	0	n/a	n/a	0.0	1	left	n/a	n/a	n/a	0	-0.063899740316	blockFiles/set_34/main_PD/GB_runPatches1.xlsx
204	patches	True	n/a	749	0	n/a	n/a	1.0	1	right	n/a	n/a	n/a	1	0.0701043139212	blockFiles/set_34/main_PD/GB_runPatches1.xlsx
205	patches	True	n/a	749	0	n/a	n/a	0.0	1	left	n/a	n/a	n/a	0	-0.044591089151800004	blockFiles/set_34/main_PD/GB_runPatches1.xlsx
206	patches	True	n/a	749	0	n/a	n/a	0.0	1	left	n/a	n/a	n/a	0	-0.026070142481499997	blockFiles/set_34/main_PD/GB_runPatches1.xlsx
207	patches	True	n/a	749	0	n/a	n/a	0.0	0	left	n/a	n/a	n/a	1	0.017128145415299997	blockFiles/set_34/main_PD/GB_runPatches1.xlsx
208	patches	True	n/a	749	0	n/a	n/a	n/a	0	None	n/a	n/a	n/a	1	0.053091789521300004	blockFiles/set_34/main_PD/GB_runPatches1.xlsx
209	patches	True	n/a	749	0	n/a	n/a	1.0	0	right	n/a	n/a	n/a	0	-0.06878730161119999	blockFiles/set_34/main_PD/GB_runPatches1.xlsx
210	patches	True	n/a	749	0	n/a	n/a	1.0	1	right	n/a	n/a	n/a	1	0.0479813412763	blockFiles/set_34/main_PD/GB_runPatches1.xlsx
211	patches	True	n/a	749	0	n/a	n/a	0.0	1	left	n/a	n/a	n/a	0	-0.0519695214741	blockFiles/set_34/main_PD/GB_runPatches1.xlsx
212	patches	True	n/a	749	0	n/a	n/a	0.0	1	left	n/a	n/a	n/a	0	-0.0220794202946	blockFiles/set_34/main_PD/GB_runPatches1.xlsx
213	patches	True	n/a	749	0	n/a	n/a	1.0	1	right	n/a	n/a	n/a	1	0.0791742844693	blockFiles/set_34/main_PD/GB_runPatches1.xlsx
214	patches	True	n/a	749	0	n/a	n/a	1.0	1	right	n/a	n/a	n/a	1	0.0106831811555	blockFiles/set_34/main_PD/GB_runPatches1.xlsx
215	patches	True	n/a	749	0	n/a	n/a	0.0	1	left	n/a	n/a	n/a	0	-0.00755383204669	blockFiles/set_34/main_PD/GB_runPatches1.xlsx
216	patches	True	n/a	749	0	n/a	n/a	1.0	1	right	n/a	n/a	n/a	1	0.0502732928097	blockFiles/set_34/main_PD/GB_runPatches1.xlsx
217	patches	True	n/a	749	0	n/a	n/a	1.0	1	right	n/a	n/a	n/a	1	0.00513122240081	blockFiles/set_34/main_PD/GB_runPatches1.xlsx
218	patches	True	n/a	749	0	n/a	n/a	0.0	1	left	n/a	n/a	n/a	0	-0.04672770097849999	blockFiles/set_34/main_PD/GB_runPatches1.xlsx
219	patches	True	n/a	749	0	n/a	n/a	0.0	0	left	n/a	n/a	n/a	1	0.0599177218974	blockFiles/set_34/main_PD/GB_runPatches1.xlsx
220	patches	True	n/a	749	0	n/a	n/a	n/a	0	None	n/a	n/a	n/a	0	-0.036176421735400005	blockFiles/set_34/main_PD/GB_runPatches1.xlsx
221	patches	True	n/a	749	0	n/a	n/a	0.0	1	left	n/a	n/a	n/a	0	-0.0412476412021	blockFiles/set_34/main_PD/GB_runPatches1.xlsx
222	patches	True	n/a	749	0	n/a	n/a	1.0	1	right	n/a	n/a	n/a	1	0.0331138438359	blockFiles/set_34/main_PD/GB_runPatches1.xlsx
223	patches	True	n/a	749	0	n/a	n/a	0.0	1	left	n/a	n/a	n/a	0	-0.0642034363933	blockFiles/set_34/main_PD/GB_runPatches1.xlsx
224	patches	True	n/a	749	0	n/a	n/a	0.0	1	left	n/a	n/a	n/a	0	-0.07359031107280001	blockFiles/set_34/main_PD/GB_runPatches1.xlsx
225	patches	True	n/a	749	0	n/a	n/a	1.0	0	right	n/a	n/a	n/a	0	-0.0157591527887	blockFiles/set_34/main_PD/GB_runPatches1.xlsx
226	patches	True	n/a	749	0	n/a	n/a	0.0	1	left	n/a	n/a	n/a	0	-0.0545499669388	blockFiles/set_34/main_PD/GB_runPatches1.xlsx
227	patches	True	n/a	749	0	n/a	n/a	1.0	1	right	n/a	n/a	n/a	1	0.0714420496859	blockFiles/set_34/main_PD/GB_runPatches1.xlsx
228	patches	True	n/a	749	0	n/a	n/a	0.0	1	left	n/a	n/a	n/a	0	-0.026216719448599997	blockFiles/set_34/main_PD/GB_runPatches1.xlsx
229	patches	True	n/a	749	0	n/a	n/a	0.0	1	left	n/a	n/a	n/a	0	-0.0284731479362	blockFiles/set_34/main_PD/GB_runPatches1.xlsx
230	patches	True	n/a	749	0	n/a	n/a	1.0	1	right	n/a	n/a	n/a	1	0.04140106959269999	blockFiles/set_34/main_PD/GB_runPatches1.xlsx
231	patches	True	n/a	749	0	n/a	n/a	1.0	1	right	n/a	n/a	n/a	1	0.0310660849139	blockFiles/set_34/main_PD/GB_runPatches1.xlsx
232	patches	True	n/a	749	0	n/a	n/a	1.0	0	right	n/a	n/a	n/a	0	-0.0107816319726	blockFiles/set_34/main_PD/GB_runPatches1.xlsx
233	patches	True	n/a	749	0	n/a	n/a	1.0	1	right	n/a	n/a	n/a	1	0.0624353255332	blockFiles/set_34/main_PD/GB_runPatches1.xlsx
234	patches	True	n/a	749	0	n/a	n/a	1.0	1	right	n/a	n/a	n/a	1	0.024135783612700003	blockFiles/set_34/main_PD/GB_runPatches1.xlsx
235	patches	True	n/a	749	0	n/a	n/a	0.0	0	left	n/a	n/a	n/a	1	0.0357420167699	blockFiles/set_34/main_PD/GB_runPatches1.xlsx
236	patches	True	n/a	749	0	n/a	n/a	n/a	0	None	n/a	n/a	n/a	0	-0.0379200249724	blockFiles/set_34/main_PD/GB_runPatches1.xlsx
237	patches	True	n/a	749	0	n/a	n/a	1.0	1	right	n/a	n/a	n/a	1	0.0733911675587	blockFiles/set_34/main_PD/GB_runPatches1.xlsx
238	patches	True	n/a	749	0	n/a	n/a	0.0	1	left	n/a	n/a	n/a	0	-0.0553077293932	blockFiles/set_34/main_PD/GB_runPatches1.xlsx
239	patches	True	n/a	749	0	n/a	n/a	0.0	0	left	n/a	n/a	n/a	1	0.0110614923202	blockFiles/set_34/main_PD/GB_runPatches1.xlsx
240	patches	True	n/a	749	0	n/a	n/a	1.0	1	right	n/a	n/a	n/a	1	0.020819981750099997	blockFiles/set_34/main_PD/GB_runPatches1.xlsx
241	patches	True	n/a	749	0	n/a	n/a	0.0	1	left	n/a	n/a	n/a	0	-0.052438325323199995	blockFiles/set_34/main_PD/GB_runPatches1.xlsx
242	patches	True	n/a	749	0	n/a	n/a	0.0	1	left	n/a	n/a	n/a	0	-0.038591376580300006	blockFiles/set_34/main_PD/GB_runPatches1.xlsx
243	patches	True	n/a	749	0	n/a	n/a	1.0	0	right	n/a	n/a	n/a	0	-0.0035152007080599995	blockFiles/set_34/main_PD/GB_runPatches1.xlsx
244	patches	True	n/a	749	0	n/a	n/a	1.0	1	right	n/a	n/a	n/a	1	0.040082107652	blockFiles/set_34/main_PD/GB_runPatches1.xlsx
245	patches	True	n/a	749	0	n/a	n/a	0.0	1	left	n/a	n/a	n/a	0	-0.0702213669382	blockFiles/set_34/main_PD/GB_runPatches1.xlsx
246	patches	True	n/a	749	0	n/a	n/a	1.0	1	right	n/a	n/a	n/a	1	0.026911657266299998	blockFiles/set_34/main_PD/GB_runPatches1.xlsx
247	patches	True	n/a	749	0	n/a	n/a	1.0	1	right	n/a	n/a	n/a	1	0.030618601311	blockFiles/set_34/main_PD/GB_runPatches1.xlsx
248	patches	True	n/a	749	0	n/a	n/a	1.0	1	right	n/a	n/a	n/a	1	0.0667586518824	blockFiles/set_34/main_PD/GB_runPatches1.xlsx
249	patches	True	n/a	749	0	n/a	n/a	1.0	1	right	n/a	n/a	n/a	1	0.0224200497381	blockFiles/set_34/main_PD/GB_runPatches1.xlsx
250	patches	True	n/a	749	0	n/a	n/a	1.0	1	right	n/a	n/a	n/a	1	0.037718646228300005	blockFiles/set_34/main_PD/GB_runPatches1.xlsx
251	main_unc	True	0.0	749	0	0.0	0.0	1.0	1	right	1.0	1.0	1.0	1	0.07109664486719999	blockFiles/set_34/main_unc/leftBlue\GB_LB_2.xlsx
252	main_unc	True	0.0	749	0	0.0	0.0	0.0	1	left	2.0	1.0	1.0	0	-0.032270965967299996	blockFiles/set_34/main_unc/leftBlue\GB_LB_2.xlsx
253	main_unc	True	0.0	749	0	0.0	0.0	1.0	0	right	1.0	0.0	0.0	0	-0.030877609457799996	blockFiles/set_34/main_unc/leftBlue\GB_LB_2.xlsx
254	main_unc	True	0.0	749	0	0.0	0.0	0.0	1	left	2.0	1.0	1.0	0	-0.0261626346968	blockFiles/set_34/main_unc/leftBlue\GB_LB_2.xlsx
255	main_unc	True	0.0	749	0	0.0	0.0	0.0	1	left	2.0	0.0	1.0	0	-0.0386401899904	blockFiles/set_34/main_unc/leftBlue\GB_LB_2.xlsx
256	main_unc	True	0.0	749	0	0.0	0.0	0.0	1	left	2.0	1.0	1.0	0	-0.0460874398611	blockFiles/set_34/main_unc/leftBlue\GB_LB_2.xlsx
257	main_unc	True	0.0	749	0	0.0	0.0	0.0	1	left	2.0	1.0	1.0	0	-0.07911286611110001	blockFiles/set_34/main_unc/leftBlue\GB_LB_2.xlsx
258	main_unc	True	0.0	749	0	0.0	0.0	1.0	1	right	1.0	1.0	1.0	1	0.005277160275729999	blockFiles/set_34/main_unc/leftBlue\GB_LB_2.xlsx
259	main_unc	True	0.0	749	0	0.0	0.0	0.0	1	left	2.0	1.0	1.0	0	-0.0423947140016	blockFiles/set_34/main_unc/leftBlue\GB_LB_2.xlsx
260	main_unc	True	0.0	749	0	0.0	0.0	1.0	1	right	1.0	1.0	1.0	1	0.0465567302145	blockFiles/set_34/main_unc/leftBlue\GB_LB_2.xlsx
261	main_unc	True	0.0	749	0	0.0	0.0	0.0	1	left	2.0	1.0	1.0	0	-0.0293701758422	blockFiles/set_34/main_unc/leftBlue\GB_LB_2.xlsx
262	main_unc	True	0.0	749	0	0.0	0.0	1.0	1	right	1.0	0.0	1.0	1	0.00200736951083	blockFiles/set_34/main_unc/leftBlue\GB_LB_2.xlsx
263	main_unc	True	0.0	749	0	0.0	0.0	0.0	1	left	2.0	0.0	1.0	0	-0.0775994724967	blockFiles/set_34/main_unc/leftBlue\GB_LB_2.xlsx
264	main_unc	True	0.0	749	0	0.0	0.0	0.0	1	left	2.0	1.0	1.0	0	-0.0231108099408	blockFiles/set_34/main_unc/leftBlue\GB_LB_2.xlsx
265	main_unc	True	0.0	749	0	0.0	0.0	0.0	1	left	2.0	1.0	1.0	0	-0.015037541724700001	blockFiles/set_34/main_unc/leftBlue\GB_LB_2.xlsx
266	main_unc	True	0.0	749	0	0.0	0.0	0.0	1	left	2.0	1.0	1.0	0	-0.06898276383060001	blockFiles/set_34/main_unc/leftBlue\GB_LB_2.xlsx
267	main_unc	True	0.0	749	0	0.0	0.0	1.0	1	right	1.0	1.0	1.0	1	0.036720101125500004	blockFiles/set_34/main_unc/leftBlue\GB_LB_2.xlsx
268	main_unc	True	0.0	749	0	0.0	0.0	0.0	1	left	2.0	0.0	1.0	0	-0.027647331580500003	blockFiles/set_34/main_unc/leftBlue\GB_LB_2.xlsx
269	main_unc	True	0.0	749	0	0.0	0.0	0.0	1	left	2.0	1.0	1.0	0	-0.0707340879738	blockFiles/set_34/main_unc/leftBlue\GB_LB_2.xlsx
270	main_unc	True	0.0	749	0	0.0	0.0	1.0	1	right	1.0	1.0	1.0	1	0.05802578320730001	blockFiles/set_34/main_unc/leftBlue\GB_LB_2.xlsx
271	main_unc	True	0.0	749	0	0.0	0.0	1.0	1	right	1.0	1.0	1.0	1	0.0505805364065	blockFiles/set_34/main_unc/leftBlue\GB_LB_2.xlsx
272	main_unc	True	0.0	749	0	0.0	0.0	1.0	1	right	1.0	1.0	1.0	1	0.00382408253849	blockFiles/set_34/main_unc/leftBlue\GB_LB_2.xlsx
273	main_unc	True	0.0	749	0	0.0	0.0	1.0	1	right	1.0	1.0	1.0	1	0.062069075722199996	blockFiles/set_34/main_unc/leftBlue\GB_LB_2.xlsx
274	main_unc	True	0.0	749	0	0.0	0.0	1.0	1	right	1.0	0.0	1.0	1	0.0377703793533	blockFiles/set_34/main_unc/leftBlue\GB_LB_2.xlsx
275	main_unc	True	0.0	749	0	0.0	0.0	1.0	1	right	1.0	1.0	1.0	1	0.0418028817512	blockFiles/set_34/main_unc/leftBlue\GB_LB_2.xlsx
276	main_unc	True	0.0	749	0	1.0	1.0	0.0	1	left	1.0	1.0	1.0	0	-0.0447716400772	blockFiles/set_34/main_unc/rightBlue\GB_RB_2.xlsx
277	main_unc	True	0.0	749	0	1.0	1.0	1.0	1	right	2.0	1.0	1.0	1	0.0518344568461	blockFiles/set_34/main_unc/rightBlue\GB_RB_2.xlsx
278	main_unc	True	0.0	749	0	1.0	1.0	1.0	1	right	2.0	1.0	1.0	1	0.0635100350901	blockFiles/set_34/main_unc/rightBlue\GB_RB_2.xlsx
279	main_unc	True	0.0	749	0	1.0	1.0	0.0	1	left	1.0	0.0	1.0	0	-0.0629432355613	blockFiles/set_34/main_unc/rightBlue\GB_RB_2.xlsx
280	main_unc	True	1.0	749	0	1.0	1.0	n/a	0	None	n/a	0.0	n/a	1	0.0611960435659	blockFiles/set_34/main_unc/rightBlue\GB_RB_2.xlsx
281	main_unc	True	0.0	749	0	1.0	1.0	1.0	1	right	2.0	1.0	1.0	1	0.029431439545	blockFiles/set_34/main_unc/rightBlue\GB_RB_2.xlsx
282	main_unc	True	0.0	749	0	1.0	1.0	1.0	1	right	2.0	0.0	1.0	1	0.017558511477	blockFiles/set_34/main_unc/rightBlue\GB_RB_2.xlsx
283	main_unc	True	0.0	749	0	1.0	1.0	0.0	1	left	1.0	1.0	1.0	0	-0.0215832604095	blockFiles/set_34/main_unc/rightBlue\GB_RB_2.xlsx
284	main_unc	True	0.0	749	0	1.0	1.0	1.0	1	right	2.0	0.0	1.0	1	0.0459550851583	blockFiles/set_34/main_unc/rightBlue\GB_RB_2.xlsx
285	main_unc	True	0.0	749	0	1.0	1.0	0.0	1	left	1.0	1.0	1.0	0	-0.033580409251200004	blockFiles/set_34/main_unc/rightBlue\GB_RB_2.xlsx
286	main_unc	True	0.0	749	0	1.0	1.0	0.0	1	left	1.0	1.0	1.0	0	-0.0302834231965	blockFiles/set_34/main_unc/rightBlue\GB_RB_2.xlsx
287	main_unc	True	0.0	749	0	1.0	1.0	1.0	1	right	2.0	0.0	1.0	1	0.061357918232699996	blockFiles/set_34/main_unc/rightBlue\GB_RB_2.xlsx
288	main_unc	True	0.0	749	0	1.0	1.0	0.0	1	left	1.0	1.0	1.0	0	-0.059886634256699996	blockFiles/set_34/main_unc/rightBlue\GB_RB_2.xlsx
289	main_unc	True	0.0	749	0	1.0	1.0	0.0	1	left	1.0	1.0	1.0	0	-0.033737426847200006	blockFiles/set_34/main_unc/rightBlue\GB_RB_2.xlsx
290	main_unc	True	0.0	749	0	1.0	1.0	0.0	1	left	1.0	1.0	1.0	0	-0.011196780242000002	blockFiles/set_34/main_unc/rightBlue\GB_RB_2.xlsx
291	main_unc	True	0.0	749	0	1.0	1.0	0.0	0	left	2.0	0.0	1.0	1	0.0148709303141	blockFiles/set_34/main_unc/rightBlue\GB_RB_2.xlsx
292	main_unc	True	0.0	749	0	1.0	1.0	1.0	1	right	2.0	1.0	1.0	1	0.0505547698587	blockFiles/set_34/main_unc/rightBlue\GB_RB_2.xlsx
293	main_unc	True	0.0	749	0	1.0	1.0	0.0	1	left	1.0	1.0	1.0	0	-0.023506988734	blockFiles/set_34/main_unc/rightBlue\GB_RB_2.xlsx
294	main_unc	True	0.0	749	0	1.0	1.0	1.0	1	right	2.0	1.0	1.0	1	0.06856221020219999	blockFiles/set_34/main_unc/rightBlue\GB_RB_2.xlsx
295	main_unc	True	0.0	749	0	1.0	1.0	1.0	1	right	2.0	1.0	1.0	1	0.0434237567335	blockFiles/set_34/main_unc/rightBlue\GB_RB_2.xlsx
296	main_unc	True	1.0	749	0	1.0	1.0	1.0	1	right	n/a	0.0	n/a	1	0.0790314704925	blockFiles/set_34/main_unc/rightBlue\GB_RB_2.xlsx
297	main_unc	True	0.0	749	0	1.0	1.0	0.0	1	left	1.0	1.0	1.0	0	-0.0347135701403	blockFiles/set_34/main_unc/rightBlue\GB_RB_2.xlsx
298	main_unc	True	0.0	749	0	1.0	1.0	1.0	1	right	2.0	1.0	1.0	1	0.0141167885065	blockFiles/set_34/main_unc/rightBlue\GB_RB_2.xlsx
299	main_unc	True	0.0	749	0	1.0	1.0	1.0	0	right	2.0	0.0	0.0	0	-0.0013918678835	blockFiles/set_34/main_unc/rightBlue\GB_RB_2.xlsx
300	main_unc	True	0.0	749	0	1.0	1.0	1.0	0	right	2.0	0.0	0.0	0	-0.00313300203532	blockFiles/set_34/main_unc/rightBlue\GB_RB_2.xlsx
301	main_unc	True	0.0	749	0	1.0	1.0	1.0	1	right	2.0	1.0	1.0	1	0.0611960435659	blockFiles/set_34/main_unc/rightBlue\GB_RB_2.xlsx
302	main_unc	True	0.0	749	0	1.0	1.0	1.0	1	right	2.0	1.0	1.0	1	0.0790314704925	blockFiles/set_34/main_unc/rightBlue\GB_RB_2.xlsx
303	main_unc	True	0.0	749	0	2.0	2.0	1.0	1	right	1.0	0.0	0.0	1	0.0791225466691	blockFiles/set_34/main_unc/rightBlue\GB_RB_4.xlsx
304	main_unc	True	0.0	749	0	2.0	2.0	1.0	0	right	1.0	1.0	1.0	0	-0.00635574091226	blockFiles/set_34/main_unc/rightBlue\GB_RB_4.xlsx
305	main_unc	True	0.0	749	0	2.0	2.0	1.0	1	right	2.0	1.0	1.0	1	0.00816478459164	blockFiles/set_34/main_unc/rightBlue\GB_RB_4.xlsx
306	main_unc	True	0.0	749	0	2.0	2.0	1.0	1	right	1.0	0.0	0.0	1	0.0475731060468	blockFiles/set_34/main_unc/rightBlue\GB_RB_4.xlsx
307	main_unc	True	0.0	749	0	2.0	2.0	0.0	1	left	1.0	1.0	1.0	0	-0.031131358314299997	blockFiles/set_34/main_unc/rightBlue\GB_RB_4.xlsx
308	main_unc	True	0.0	749	0	2.0	2.0	1.0	1	right	2.0	0.0	1.0	1	0.026511969473200003	blockFiles/set_34/main_unc/rightBlue\GB_RB_4.xlsx
309	main_unc	True	0.0	749	0	2.0	2.0	0.0	1	left	1.0	0.0	1.0	0	-0.0760620365664	blockFiles/set_34/main_unc/rightBlue\GB_RB_4.xlsx
310	main_unc	True	0.0	749	0	2.0	2.0	1.0	1	right	1.0	0.0	0.0	1	0.0306976393983	blockFiles/set_34/main_unc/rightBlue\GB_RB_4.xlsx
311	main_unc	True	0.0	749	0	2.0	2.0	1.0	1	right	1.0	0.0	0.0	1	0.034493908230199995	blockFiles/set_34/main_unc/rightBlue\GB_RB_4.xlsx
312	main_unc	True	0.0	749	0	2.0	2.0	1.0	1	right	2.0	1.0	1.0	1	0.0114010121487	blockFiles/set_34/main_unc/rightBlue\GB_RB_4.xlsx
313	main_unc	True	0.0	749	0	2.0	2.0	1.0	1	right	2.0	1.0	1.0	1	0.0553449984267	blockFiles/set_34/main_unc/rightBlue\GB_RB_4.xlsx
314	main_unc	True	0.0	749	0	2.0	2.0	1.0	1	right	2.0	1.0	1.0	1	0.046639490705	blockFiles/set_34/main_unc/rightBlue\GB_RB_4.xlsx
315	main_unc	True	0.0	749	0	2.0	2.0	0.0	1	left	1.0	0.0	1.0	0	-0.0567143551633	blockFiles/set_34/main_unc/rightBlue\GB_RB_4.xlsx
316	main_unc	True	0.0	749	0	2.0	2.0	0.0	0	left	1.0	0.0	0.0	1	0.011298131533	blockFiles/set_34/main_unc/rightBlue\GB_RB_4.xlsx
317	main_unc	True	0.0	749	0	2.0	2.0	0.0	1	left	1.0	1.0	1.0	0	-0.0479512910172	blockFiles/set_34/main_unc/rightBlue\GB_RB_4.xlsx
318	main_unc	True	0.0	749	0	2.0	2.0	0.0	1	left	1.0	1.0	1.0	0	-0.0386091239005	blockFiles/set_34/main_unc/rightBlue\GB_RB_4.xlsx
319	main_unc	True	0.0	749	0	2.0	2.0	1.0	1	right	2.0	1.0	1.0	1	0.0424895883538	blockFiles/set_34/main_unc/rightBlue\GB_RB_4.xlsx
320	main_unc	True	0.0	749	0	2.0	2.0	1.0	1	right	2.0	1.0	1.0	1	0.0427154770866	blockFiles/set_34/main_unc/rightBlue\GB_RB_4.xlsx
321	main_unc	True	0.0	749	0	2.0	2.0	0.0	1	left	1.0	1.0	1.0	0	-0.0428043014184	blockFiles/set_34/main_unc/rightBlue\GB_RB_4.xlsx
322	main_unc	True	0.0	749	0	2.0	2.0	0.0	1	left	1.0	1.0	1.0	0	-0.0342203245685	blockFiles/set_34/main_unc/rightBlue\GB_RB_4.xlsx
323	main_unc	True	0.0	749	0	2.0	2.0	0.0	1	left	1.0	1.0	1.0	0	-0.05663112986830001	blockFiles/set_34/main_unc/rightBlue\GB_RB_4.xlsx
324	main_unc	True	0.0	749	0	2.0	2.0	1.0	1	right	2.0	0.0	1.0	1	0.00662758126855	blockFiles/set_34/main_unc/rightBlue\GB_RB_4.xlsx
325	main_unc	True	0.0	749	0	2.0	2.0	1.0	1	right	2.0	1.0	1.0	1	0.0499335341342	blockFiles/set_34/main_unc/rightBlue\GB_RB_4.xlsx
326	main_unc	True	0.0	749	0	2.0	2.0	1.0	0	right	2.0	0.0	0.0	0	-0.000581492185593	blockFiles/set_34/main_unc/rightBlue\GB_RB_4.xlsx
327	main_unc	True	0.0	749	0	2.0	2.0	0.0	1	left	1.0	1.0	1.0	0	-0.047793386988300005	blockFiles/set_34/main_unc/rightBlue\GB_RB_4.xlsx
328	main_unc	True	0.0	749	0	3.0	3.0	1.0	1	right	1.0	1.0	1.0	1	0.0248332696222	blockFiles/set_34/main_unc/leftBlue\GB_LB_6.xlsx
329	main_unc	True	0.0	749	0	3.0	3.0	0.0	1	left	2.0	1.0	1.0	0	-0.006869656406340001	blockFiles/set_34/main_unc/leftBlue\GB_LB_6.xlsx
330	main_unc	True	0.0	749	0	3.0	3.0	0.0	0	left	2.0	0.0	0.0	1	0.0100710102543	blockFiles/set_34/main_unc/leftBlue\GB_LB_6.xlsx
331	main_unc	True	0.0	749	0	3.0	3.0	0.0	1	left	2.0	1.0	1.0	0	-0.0538612664118	blockFiles/set_34/main_unc/leftBlue\GB_LB_6.xlsx
332	main_unc	True	0.0	749	0	3.0	3.0	1.0	1	right	1.0	1.0	1.0	1	0.0774944849312	blockFiles/set_34/main_unc/leftBlue\GB_LB_6.xlsx
333	main_unc	True	0.0	749	0	3.0	3.0	1.0	1	right	1.0	1.0	1.0	1	0.0190366246179	blockFiles/set_34/main_unc/leftBlue\GB_LB_6.xlsx
334	main_unc	True	0.0	749	0	3.0	3.0	1.0	1	right	1.0	1.0	1.0	1	0.0362531653233	blockFiles/set_34/main_unc/leftBlue\GB_LB_6.xlsx
335	main_unc	True	0.0	749	0	3.0	3.0	0.0	1	left	2.0	1.0	1.0	0	-0.012022012136899999	blockFiles/set_34/main_unc/leftBlue\GB_LB_6.xlsx
336	main_unc	True	0.0	749	0	3.0	3.0	1.0	1	right	1.0	1.0	1.0	1	0.05402905369180001	blockFiles/set_34/main_unc/leftBlue\GB_LB_6.xlsx
337	main_unc	True	0.0	749	0	3.0	3.0	0.0	1	left	2.0	1.0	1.0	0	-0.022169108931	blockFiles/set_34/main_unc/leftBlue\GB_LB_6.xlsx
338	main_unc	True	0.0	749	0	3.0	3.0	1.0	0	right	1.0	1.0	0.0	0	-0.0114365093969	blockFiles/set_34/main_unc/leftBlue\GB_LB_6.xlsx
339	main_unc	True	0.0	749	0	3.0	3.0	0.0	1	left	2.0	1.0	1.0	0	-0.0460263502039	blockFiles/set_34/main_unc/leftBlue\GB_LB_6.xlsx
340	main_unc	True	0.0	749	0	3.0	3.0	1.0	1	right	1.0	1.0	1.0	1	0.06367999065669999	blockFiles/set_34/main_unc/leftBlue\GB_LB_6.xlsx
341	main_unc	True	0.0	749	0	3.0	3.0	1.0	1	right	1.0	1.0	1.0	1	0.0707635457069	blockFiles/set_34/main_unc/leftBlue\GB_LB_6.xlsx
342	main_unc	True	0.0	749	0	3.0	3.0	1.0	0	right	2.0	1.0	1.0	0	-0.022003072835499998	blockFiles/set_34/main_unc/leftBlue\GB_LB_6.xlsx
343	main_unc	True	0.0	749	0	3.0	3.0	0.0	1	left	2.0	1.0	1.0	0	-0.0226492098533	blockFiles/set_34/main_unc/leftBlue\GB_LB_6.xlsx
344	main_unc	True	0.0	749	0	3.0	3.0	0.0	1	left	2.0	0.0	1.0	0	-0.024481930919	blockFiles/set_34/main_unc/leftBlue\GB_LB_6.xlsx
345	main_unc	True	0.0	749	0	3.0	3.0	1.0	1	right	1.0	1.0	1.0	1	0.0655390217528	blockFiles/set_34/main_unc/leftBlue\GB_LB_6.xlsx
346	main_unc	True	0.0	749	0	3.0	3.0	1.0	1	right	1.0	1.0	1.0	1	0.0523393672518	blockFiles/set_34/main_unc/leftBlue\GB_LB_6.xlsx
347	main_unc	True	0.0	749	0	3.0	3.0	1.0	1	right	1.0	1.0	1.0	1	0.00894587839022	blockFiles/set_34/main_unc/leftBlue\GB_LB_6.xlsx
348	main_unc	True	0.0	749	0	3.0	3.0	1.0	0	right	2.0	0.0	1.0	0	-0.015606468152299999	blockFiles/set_34/main_unc/leftBlue\GB_LB_6.xlsx
349	main_unc	True	0.0	749	0	3.0	3.0	0.0	1	left	2.0	1.0	1.0	0	-0.0697118686885	blockFiles/set_34/main_unc/leftBlue\GB_LB_6.xlsx
350	main_unc	True	0.0	749	0	3.0	3.0	1.0	1	right	2.0	0.0	0.0	1	0.0165478288755	blockFiles/set_34/main_unc/leftBlue\GB_LB_6.xlsx
351	main_unc	True	0.0	749	0	3.0	3.0	0.0	1	left	2.0	1.0	1.0	0	-0.07330123227089999	blockFiles/set_34/main_unc/leftBlue\GB_LB_6.xlsx
352	main_unc	True	0.0	749	0	3.0	3.0	0.0	1	left	2.0	1.0	1.0	0	-0.05636500621209999	blockFiles/set_34/main_unc/leftBlue\GB_LB_6.xlsx
353	main_unc	True	0.0	749	0	4.0	4.0	0.0	1	left	2.0	0.0	0.0	0	-0.0626209764928	blockFiles/set_34/main_unc/rightBlue\GB_RB_1.xlsx
354	main_unc	True	0.0	749	0	4.0	4.0	1.0	1	right	2.0	1.0	1.0	1	0.0070418407768	blockFiles/set_34/main_unc/rightBlue\GB_RB_1.xlsx
355	main_unc	True	0.0	749	0	4.0	4.0	0.0	1	left	1.0	1.0	1.0	0	-0.0354188545235	blockFiles/set_34/main_unc/rightBlue\GB_RB_1.xlsx
356	main_unc	True	0.0	749	0	4.0	4.0	1.0	1	right	2.0	1.0	1.0	1	0.053357534762500006	blockFiles/set_34/main_unc/rightBlue\GB_RB_1.xlsx
357	main_unc	True	0.0	749	0	4.0	4.0	0.0	1	left	1.0	1.0	1.0	0	-0.0187859653682	blockFiles/set_34/main_unc/rightBlue\GB_RB_1.xlsx
358	main_unc	True	0.0	749	0	4.0	4.0	1.0	1	right	2.0	1.0	1.0	1	0.0525520912744	blockFiles/set_34/main_unc/rightBlue\GB_RB_1.xlsx
359	main_unc	True	0.0	749	0	4.0	4.0	0.0	1	left	1.0	0.0	1.0	0	-0.059238165915	blockFiles/set_34/main_unc/rightBlue\GB_RB_1.xlsx
360	main_unc	True	0.0	749	0	4.0	4.0	1.0	1	right	2.0	0.0	1.0	1	0.0468438545056	blockFiles/set_34/main_unc/rightBlue\GB_RB_1.xlsx
361	main_unc	True	0.0	749	0	4.0	4.0	0.0	1	left	1.0	1.0	1.0	0	-0.0659827801958	blockFiles/set_34/main_unc/rightBlue\GB_RB_1.xlsx
362	main_unc	True	0.0	749	0	4.0	4.0	0.0	0	left	2.0	1.0	1.0	1	0.0138783771172	blockFiles/set_34/main_unc/rightBlue\GB_RB_1.xlsx
363	main_unc	True	0.0	749	0	4.0	4.0	1.0	1	right	2.0	1.0	1.0	1	0.053189431354400005	blockFiles/set_34/main_unc/rightBlue\GB_RB_1.xlsx
364	main_unc	True	0.0	749	0	4.0	4.0	1.0	0	right	1.0	1.0	1.0	0	-0.0312562434375	blockFiles/set_34/main_unc/rightBlue\GB_RB_1.xlsx
365	main_unc	True	0.0	749	0	4.0	4.0	1.0	1	right	2.0	0.0	1.0	1	0.0235458297096	blockFiles/set_34/main_unc/rightBlue\GB_RB_1.xlsx
366	main_unc	True	0.0	749	0	4.0	4.0	0.0	1	left	1.0	1.0	1.0	0	-0.0708478836529	blockFiles/set_34/main_unc/rightBlue\GB_RB_1.xlsx
367	main_unc	True	0.0	749	0	4.0	4.0	0.0	1	left	1.0	1.0	1.0	0	-0.060646611265799996	blockFiles/set_34/main_unc/rightBlue\GB_RB_1.xlsx
368	main_unc	True	0.0	749	0	4.0	4.0	1.0	1	right	2.0	1.0	1.0	1	0.00165331950411	blockFiles/set_34/main_unc/rightBlue\GB_RB_1.xlsx
369	main_unc	True	0.0	749	0	4.0	4.0	1.0	1	right	2.0	0.0	1.0	1	0.0494768050313	blockFiles/set_34/main_unc/rightBlue\GB_RB_1.xlsx
370	main_unc	True	0.0	749	0	4.0	4.0	0.0	1	left	1.0	1.0	1.0	0	-0.011863809116200002	blockFiles/set_34/main_unc/rightBlue\GB_RB_1.xlsx
371	main_unc	True	0.0	749	0	4.0	4.0	1.0	1	right	2.0	1.0	1.0	1	0.0716043798253	blockFiles/set_34/main_unc/rightBlue\GB_RB_1.xlsx
372	main_unc	True	0.0	749	0	4.0	4.0	1.0	1	right	2.0	1.0	1.0	1	0.013709860313699999	blockFiles/set_34/main_unc/rightBlue\GB_RB_1.xlsx
373	main_unc	True	0.0	749	0	4.0	4.0	0.0	1	left	1.0	1.0	1.0	0	-0.028237007428	blockFiles/set_34/main_unc/rightBlue\GB_RB_1.xlsx
374	main_unc	True	0.0	749	0	4.0	4.0	0.0	1	left	1.0	1.0	1.0	0	-0.0373442232981	blockFiles/set_34/main_unc/rightBlue\GB_RB_1.xlsx
375	main_unc	True	0.0	749	0	4.0	4.0	1.0	0	right	1.0	0.0	1.0	0	-0.029459723234200003	blockFiles/set_34/main_unc/rightBlue\GB_RB_1.xlsx
376	main_unc	True	0.0	749	0	4.0	4.0	1.0	1	right	2.0	1.0	1.0	1	0.07412084266539999	blockFiles/set_34/main_unc/rightBlue\GB_RB_1.xlsx
377	main_unc	True	0.0	749	0	4.0	4.0	0.0	1	left	1.0	0.0	1.0	0	-0.021706668771799997	blockFiles/set_34/main_unc/rightBlue\GB_RB_1.xlsx
378	main_unc	True	0.0	749	0	5.0	5.0	1.0	1	right	1.0	1.0	1.0	1	0.0175263782591	blockFiles/set_34/main_unc/leftBlue\GB_LB_3.xlsx
379	main_unc	True	0.0	749	0	5.0	5.0	0.0	1	left	2.0	0.0	1.0	0	-0.0757028915547	blockFiles/set_34/main_unc/leftBlue\GB_LB_3.xlsx
380	main_unc	True	0.0	749	0	5.0	5.0	1.0	1	right	1.0	1.0	1.0	1	0.029972891286	blockFiles/set_34/main_unc/leftBlue\GB_LB_3.xlsx
381	main_unc	True	0.0	749	0	5.0	5.0	1.0	1	right	1.0	1.0	1.0	1	0.050688327942000004	blockFiles/set_34/main_unc/leftBlue\GB_LB_3.xlsx
382	main_unc	True	0.0	749	0	5.0	5.0	1.0	1	right	1.0	1.0	1.0	1	0.06683443315330001	blockFiles/set_34/main_unc/leftBlue\GB_LB_3.xlsx
383	main_unc	True	0.0	749	0	5.0	5.0	0.0	1	left	2.0	1.0	1.0	0	-0.0610159608163	blockFiles/set_34/main_unc/leftBlue\GB_LB_3.xlsx
384	main_unc	True	0.0	749	0	5.0	5.0	1.0	1	right	1.0	1.0	1.0	1	0.00603118455037	blockFiles/set_34/main_unc/leftBlue\GB_LB_3.xlsx
385	main_unc	True	0.0	749	0	5.0	5.0	0.0	1	left	2.0	1.0	1.0	0	-0.00348990596831	blockFiles/set_34/main_unc/leftBlue\GB_LB_3.xlsx
386	main_unc	True	0.0	749	0	5.0	5.0	0.0	1	left	2.0	1.0	1.0	0	-0.030540686603599997	blockFiles/set_34/main_unc/leftBlue\GB_LB_3.xlsx
387	main_unc	True	0.0	749	0	5.0	5.0	0.0	1	left	2.0	1.0	1.0	0	-0.0694978816248	blockFiles/set_34/main_unc/leftBlue\GB_LB_3.xlsx
388	main_unc	True	0.0	749	0	5.0	5.0	0.0	1	left	2.0	0.0	1.0	0	-0.0722916880436	blockFiles/set_34/main_unc/leftBlue\GB_LB_3.xlsx
389	main_unc	True	0.0	749	0	5.0	5.0	1.0	1	right	1.0	1.0	1.0	1	0.0576783479378	blockFiles/set_34/main_unc/leftBlue\GB_LB_3.xlsx
390	main_unc	True	0.0	749	0	5.0	5.0	1.0	1	right	1.0	1.0	1.0	1	0.043447488527699994	blockFiles/set_34/main_unc/leftBlue\GB_LB_3.xlsx
391	main_unc	True	0.0	749	0	5.0	5.0	1.0	1	right	1.0	1.0	1.0	1	0.030885524414499998	blockFiles/set_34/main_unc/leftBlue\GB_LB_3.xlsx
392	main_unc	True	0.0	749	0	5.0	5.0	0.0	1	left	2.0	1.0	1.0	0	-0.021128666643099998	blockFiles/set_34/main_unc/leftBlue\GB_LB_3.xlsx
393	main_unc	True	0.0	749	0	5.0	5.0	0.0	1	left	2.0	1.0	1.0	0	-0.0644946274534	blockFiles/set_34/main_unc/leftBlue\GB_LB_3.xlsx
394	main_unc	True	0.0	749	0	5.0	5.0	0.0	1	left	2.0	0.0	1.0	0	-0.023852453623	blockFiles/set_34/main_unc/leftBlue\GB_LB_3.xlsx
395	main_unc	True	0.0	749	0	5.0	5.0	1.0	1	right	1.0	1.0	1.0	1	0.041054424811199995	blockFiles/set_34/main_unc/leftBlue\GB_LB_3.xlsx
396	main_unc	True	0.0	749	0	5.0	5.0	0.0	1	left	2.0	0.0	1.0	0	-0.007094664908949999	blockFiles/set_34/main_unc/leftBlue\GB_LB_3.xlsx
397	main_unc	True	0.0	749	0	5.0	5.0	0.0	1	left	2.0	1.0	1.0	0	-0.0310460515879	blockFiles/set_34/main_unc/leftBlue\GB_LB_3.xlsx
398	main_unc	True	0.0	749	0	5.0	5.0	1.0	1	right	1.0	0.0	1.0	1	0.0789503676258	blockFiles/set_34/main_unc/leftBlue\GB_LB_3.xlsx
399	main_unc	True	0.0	749	0	5.0	5.0	0.0	1	left	2.0	1.0	1.0	0	-0.042816300708800006	blockFiles/set_34/main_unc/leftBlue\GB_LB_3.xlsx
400	main_unc	True	0.0	749	0	5.0	5.0	1.0	1	right	1.0	1.0	1.0	1	0.0670614109561	blockFiles/set_34/main_unc/leftBlue\GB_LB_3.xlsx
401	main_unc	True	0.0	749	0	5.0	5.0	1.0	1	right	1.0	1.0	1.0	1	0.0460690056719	blockFiles/set_34/main_unc/leftBlue\GB_LB_3.xlsx
402	main_unc	True	0.0	749	0	5.0	5.0	1.0	1	right	1.0	1.0	1.0	1	0.0311800285429	blockFiles/set_34/main_unc/leftBlue\GB_LB_3.xlsx
403	main_unc	True	0.0	749	0	6.0	6.0	0.0	1	left	1.0	1.0	1.0	0	-0.0175823420472	blockFiles/set_34/main_unc/rightBlue\GB_RB_3.xlsx
404	main_unc	True	0.0	749	0	6.0	6.0	1.0	1	right	2.0	1.0	1.0	1	0.0786944608949	blockFiles/set_34/main_unc/rightBlue\GB_RB_3.xlsx
405	main_unc	True	0.0	749	0	6.0	6.0	0.0	1	left	1.0	0.0	1.0	0	-0.0635446591862	blockFiles/set_34/main_unc/rightBlue\GB_RB_3.xlsx
406	main_unc	True	0.0	749	0	6.0	6.0	0.0	1	left	1.0	1.0	1.0	0	-0.0038595538958899997	blockFiles/set_34/main_unc/rightBlue\GB_RB_3.xlsx
407	main_unc	True	0.0	749	0	6.0	6.0	1.0	1	right	2.0	1.0	1.0	1	0.0662918882258	blockFiles/set_34/main_unc/rightBlue\GB_RB_3.xlsx
408	main_unc	True	0.0	749	0	6.0	6.0	1.0	1	right	2.0	1.0	1.0	1	0.00859815223143	blockFiles/set_34/main_unc/rightBlue\GB_RB_3.xlsx
409	main_unc	True	0.0	749	0	6.0	6.0	0.0	1	left	1.0	1.0	1.0	0	-0.020155516788400003	blockFiles/set_34/main_unc/rightBlue\GB_RB_3.xlsx
410	main_unc	True	0.0	749	0	6.0	6.0	0.0	0	left	1.0	1.0	0.0	1	0.006214719768609999	blockFiles/set_34/main_unc/rightBlue\GB_RB_3.xlsx
411	main_unc	True	0.0	749	0	6.0	6.0	1.0	1	right	2.0	1.0	1.0	1	0.0644052884169	blockFiles/set_34/main_unc/rightBlue\GB_RB_3.xlsx
412	main_unc	True	0.0	749	0	6.0	6.0	0.0	1	left	1.0	1.0	1.0	0	-0.06800753006709999	blockFiles/set_34/main_unc/rightBlue\GB_RB_3.xlsx
413	main_unc	True	0.0	749	0	6.0	6.0	0.0	1	left	1.0	1.0	1.0	0	-0.0548225338571	blockFiles/set_34/main_unc/rightBlue\GB_RB_3.xlsx
414	main_unc	True	0.0	749	0	6.0	6.0	1.0	1	right	2.0	1.0	1.0	1	0.0186972863786	blockFiles/set_34/main_unc/rightBlue\GB_RB_3.xlsx
415	main_unc	True	0.0	749	0	6.0	6.0	0.0	1	left	1.0	1.0	1.0	0	-0.03763501774519999	blockFiles/set_34/main_unc/rightBlue\GB_RB_3.xlsx
416	main_unc	True	0.0	749	0	6.0	6.0	0.0	1	left	1.0	1.0	1.0	0	-0.001044416558	blockFiles/set_34/main_unc/rightBlue\GB_RB_3.xlsx
417	main_unc	True	0.0	749	0	6.0	6.0	0.0	1	left	1.0	0.0	1.0	0	-0.027237969636900002	blockFiles/set_34/main_unc/rightBlue\GB_RB_3.xlsx
418	main_unc	True	0.0	749	0	6.0	6.0	1.0	0	right	2.0	1.0	0.0	0	-0.00591403765604	blockFiles/set_34/main_unc/rightBlue\GB_RB_3.xlsx
419	main_unc	True	0.0	749	0	6.0	6.0	0.0	1	left	1.0	1.0	1.0	0	-0.0595842994936	blockFiles/set_34/main_unc/rightBlue\GB_RB_3.xlsx
420	main_unc	True	0.0	749	0	6.0	6.0	1.0	1	right	2.0	0.0	1.0	1	0.0701201155409	blockFiles/set_34/main_unc/rightBlue\GB_RB_3.xlsx
421	main_unc	True	0.0	749	0	6.0	6.0	1.0	1	right	2.0	1.0	1.0	1	0.037472150698300004	blockFiles/set_34/main_unc/rightBlue\GB_RB_3.xlsx
422	main_unc	True	0.0	749	0	6.0	6.0	0.0	1	left	1.0	1.0	1.0	0	-0.0506839830987	blockFiles/set_34/main_unc/rightBlue\GB_RB_3.xlsx
423	main_unc	True	0.0	749	0	6.0	6.0	1.0	1	right	2.0	1.0	1.0	1	0.0372912780568	blockFiles/set_34/main_unc/rightBlue\GB_RB_3.xlsx
424	main_unc	True	0.0	749	0	6.0	6.0	0.0	1	left	1.0	1.0	1.0	0	-0.010181738827399998	blockFiles/set_34/main_unc/rightBlue\GB_RB_3.xlsx
425	main_unc	True	0.0	749	0	6.0	6.0	1.0	1	right	2.0	1.0	1.0	1	0.0791532423533	blockFiles/set_34/main_unc/rightBlue\GB_RB_3.xlsx
426	main_unc	True	0.0	749	0	6.0	6.0	0.0	0	left	2.0	1.0	1.0	1	0.015286709591700002	blockFiles/set_34/main_unc/rightBlue\GB_RB_3.xlsx
427	main_unc	True	0.0	749	0	6.0	6.0	1.0	1	right	2.0	1.0	1.0	1	0.059247503113000005	blockFiles/set_34/main_unc/rightBlue\GB_RB_3.xlsx
428	main_unc	True	0.0	749	0	7.0	7.0	1.0	1	right	2.0	1.0	0.0	1	0.0594374572672	blockFiles/set_34/main_unc/leftBlue\GB_LB_1.xlsx
429	main_unc	True	0.0	749	0	7.0	7.0	0.0	0	left	1.0	1.0	1.0	1	0.00327365037054	blockFiles/set_34/main_unc/leftBlue\GB_LB_1.xlsx
430	main_unc	True	0.0	749	0	7.0	7.0	1.0	1	right	2.0	0.0	0.0	1	0.0717619355395	blockFiles/set_34/main_unc/leftBlue\GB_LB_1.xlsx
431	main_unc	True	0.0	749	0	7.0	7.0	1.0	1	right	2.0	1.0	0.0	1	0.0581125981174	blockFiles/set_34/main_unc/leftBlue\GB_LB_1.xlsx
432	main_unc	True	1.0	749	0	7.0	7.0	n/a	0	None	n/a	0.0	n/a	1	0.0578639321402	blockFiles/set_34/main_unc/leftBlue\GB_LB_1.xlsx
433	main_unc	True	0.0	749	0	7.0	7.0	1.0	0	right	2.0	1.0	1.0	0	-0.000134982634336	blockFiles/set_34/main_unc/leftBlue\GB_LB_1.xlsx
434	main_unc	True	0.0	749	0	7.0	7.0	1.0	1	right	2.0	0.0	0.0	1	0.0466738598049	blockFiles/set_34/main_unc/leftBlue\GB_LB_1.xlsx
435	main_unc	True	0.0	749	0	7.0	7.0	0.0	1	left	1.0	1.0	0.0	0	-0.0316711393371	blockFiles/set_34/main_unc/leftBlue\GB_LB_1.xlsx
436	main_unc	True	0.0	749	0	7.0	7.0	1.0	1	right	2.0	0.0	0.0	1	0.020353730898400004	blockFiles/set_34/main_unc/leftBlue\GB_LB_1.xlsx
437	main_unc	True	0.0	749	0	7.0	7.0	0.0	1	left	1.0	0.0	0.0	0	-0.00850390767679	blockFiles/set_34/main_unc/leftBlue\GB_LB_1.xlsx
438	main_unc	True	0.0	749	0	7.0	7.0	0.0	1	left	1.0	0.0	0.0	0	-0.0577573964931	blockFiles/set_34/main_unc/leftBlue\GB_LB_1.xlsx
439	main_unc	True	0.0	749	0	7.0	7.0	1.0	1	right	1.0	1.0	1.0	1	0.06358675867319999	blockFiles/set_34/main_unc/leftBlue\GB_LB_1.xlsx
440	main_unc	True	0.0	749	0	7.0	7.0	0.0	1	left	2.0	1.0	1.0	0	-0.05821190617980001	blockFiles/set_34/main_unc/leftBlue\GB_LB_1.xlsx
441	main_unc	True	0.0	749	0	7.0	7.0	0.0	1	left	2.0	1.0	1.0	0	-0.035295790229	blockFiles/set_34/main_unc/leftBlue\GB_LB_1.xlsx
442	main_unc	True	0.0	749	0	7.0	7.0	1.0	1	right	1.0	1.0	1.0	1	0.0419256152026	blockFiles/set_34/main_unc/leftBlue\GB_LB_1.xlsx
443	main_unc	True	0.0	749	0	7.0	7.0	1.0	1	right	1.0	1.0	1.0	1	0.019515701402	blockFiles/set_34/main_unc/leftBlue\GB_LB_1.xlsx
444	main_unc	True	0.0	749	0	7.0	7.0	0.0	1	left	2.0	1.0	1.0	0	-0.0635543360561	blockFiles/set_34/main_unc/leftBlue\GB_LB_1.xlsx
445	main_unc	True	0.0	749	0	7.0	7.0	0.0	1	left	2.0	1.0	1.0	0	-0.0033741230145100005	blockFiles/set_34/main_unc/leftBlue\GB_LB_1.xlsx
446	main_unc	True	0.0	749	0	7.0	7.0	0.0	1	left	2.0	1.0	1.0	0	-0.00949490021914	blockFiles/set_34/main_unc/leftBlue\GB_LB_1.xlsx
447	main_unc	True	0.0	749	0	7.0	7.0	0.0	1	left	2.0	1.0	1.0	0	-0.044758548364000006	blockFiles/set_34/main_unc/leftBlue\GB_LB_1.xlsx
448	main_unc	True	0.0	749	0	7.0	7.0	1.0	1	right	1.0	1.0	1.0	1	0.0377513376623	blockFiles/set_34/main_unc/leftBlue\GB_LB_1.xlsx
449	main_unc	True	0.0	749	0	7.0	7.0	0.0	1	left	2.0	0.0	1.0	0	-0.0645151741244	blockFiles/set_34/main_unc/leftBlue\GB_LB_1.xlsx
450	main_unc	True	0.0	749	0	7.0	7.0	0.0	1	left	2.0	1.0	1.0	0	-0.0576804247685	blockFiles/set_34/main_unc/leftBlue\GB_LB_1.xlsx
451	main_unc	True	0.0	749	0	7.0	7.0	0.0	1	left	2.0	1.0	1.0	0	-0.07135178651660001	blockFiles/set_34/main_unc/leftBlue\GB_LB_1.xlsx
452	main_unc	True	0.0	749	0	7.0	7.0	0.0	1	left	1.0	0.0	0.0	0	-0.015886217411599998	blockFiles/set_34/main_unc/leftBlue\GB_LB_1.xlsx
453	main_unc	True	0.0	749	0	7.0	7.0	1.0	1	right	1.0	1.0	1.0	1	0.0578639321402	blockFiles/set_34/main_unc/leftBlue\GB_LB_1.xlsx
454	main_unc	True	0.0	749	0	8.0	8.0	1.0	1	right	1.0	0.0	0.0	1	0.07090667275710001	blockFiles/set_34/main_unc/rightBlue\GB_RB_5.xlsx
455	main_unc	True	0.0	749	0	8.0	8.0	0.0	1	left	2.0	1.0	0.0	0	-0.0262035950646	blockFiles/set_34/main_unc/rightBlue\GB_RB_5.xlsx
456	main_unc	True	0.0	749	0	8.0	8.0	1.0	1	right	1.0	0.0	0.0	1	0.0377069799416	blockFiles/set_34/main_unc/rightBlue\GB_RB_5.xlsx
457	main_unc	True	1.0	749	0	8.0	8.0	n/a	0	None	n/a	0.0	n/a	1	0.020362013019599997	blockFiles/set_34/main_unc/rightBlue\GB_RB_5.xlsx
458	main_unc	True	0.0	749	0	8.0	8.0	1.0	1	right	2.0	1.0	1.0	1	0.0209789548814	blockFiles/set_34/main_unc/rightBlue\GB_RB_5.xlsx
459	main_unc	True	0.0	749	0	8.0	8.0	1.0	0	right	2.0	1.0	0.0	0	-0.032044686898599996	blockFiles/set_34/main_unc/rightBlue\GB_RB_5.xlsx
460	main_unc	True	0.0	749	0	8.0	8.0	1.0	1	right	2.0	0.0	1.0	1	0.0710296172276	blockFiles/set_34/main_unc/rightBlue\GB_RB_5.xlsx
461	main_unc	True	0.0	749	0	8.0	8.0	0.0	1	left	1.0	1.0	1.0	0	-0.050638352092399995	blockFiles/set_34/main_unc/rightBlue\GB_RB_5.xlsx
462	main_unc	True	0.0	749	0	8.0	8.0	0.0	1	left	1.0	1.0	1.0	0	-0.0295389070734	blockFiles/set_34/main_unc/rightBlue\GB_RB_5.xlsx
463	main_unc	True	0.0	749	0	8.0	8.0	0.0	1	left	1.0	1.0	1.0	0	-0.04607546068730001	blockFiles/set_34/main_unc/rightBlue\GB_RB_5.xlsx
464	main_unc	True	0.0	749	0	8.0	8.0	1.0	1	right	2.0	1.0	1.0	1	0.0275380011648	blockFiles/set_34/main_unc/rightBlue\GB_RB_5.xlsx
465	main_unc	True	0.0	749	0	8.0	8.0	1.0	1	right	2.0	1.0	1.0	1	0.0675371231697	blockFiles/set_34/main_unc/rightBlue\GB_RB_5.xlsx
466	main_unc	True	0.0	749	0	8.0	8.0	0.0	0	left	2.0	1.0	1.0	1	0.00218170421198	blockFiles/set_34/main_unc/rightBlue\GB_RB_5.xlsx
467	main_unc	True	0.0	749	0	8.0	8.0	0.0	1	left	1.0	1.0	1.0	0	-0.0640702078491	blockFiles/set_34/main_unc/rightBlue\GB_RB_5.xlsx
468	main_unc	True	0.0	749	0	8.0	8.0	1.0	1	right	2.0	1.0	1.0	1	0.04767294205730001	blockFiles/set_34/main_unc/rightBlue\GB_RB_5.xlsx
469	main_unc	True	0.0	749	0	8.0	8.0	1.0	1	right	2.0	0.0	1.0	1	0.069754779879	blockFiles/set_34/main_unc/rightBlue\GB_RB_5.xlsx
470	main_unc	True	0.0	749	0	8.0	8.0	0.0	1	left	1.0	1.0	1.0	0	-0.025470111332799996	blockFiles/set_34/main_unc/rightBlue\GB_RB_5.xlsx
471	main_unc	True	0.0	749	0	8.0	8.0	0.0	1	left	1.0	1.0	1.0	0	-0.014746789746000001	blockFiles/set_34/main_unc/rightBlue\GB_RB_5.xlsx
472	main_unc	True	0.0	749	0	8.0	8.0	1.0	1	right	2.0	1.0	1.0	1	0.07862863933669999	blockFiles/set_34/main_unc/rightBlue\GB_RB_5.xlsx
473	main_unc	True	0.0	749	0	8.0	8.0	0.0	1	left	1.0	0.0	1.0	0	-0.0772315345146	blockFiles/set_34/main_unc/rightBlue\GB_RB_5.xlsx
474	main_unc	True	0.0	749	0	8.0	8.0	1.0	1	right	2.0	1.0	1.0	1	0.016412969753100002	blockFiles/set_34/main_unc/rightBlue\GB_RB_5.xlsx
475	main_unc	True	0.0	749	0	8.0	8.0	0.0	1	left	1.0	0.0	1.0	0	-0.06606684109199999	blockFiles/set_34/main_unc/rightBlue\GB_RB_5.xlsx
476	main_unc	True	0.0	749	0	8.0	8.0	0.0	1	left	2.0	0.0	0.0	0	-0.0336634477042	blockFiles/set_34/main_unc/rightBlue\GB_RB_5.xlsx
477	main_unc	True	0.0	749	0	8.0	8.0	1.0	1	right	1.0	0.0	0.0	1	0.021817380916300002	blockFiles/set_34/main_unc/rightBlue\GB_RB_5.xlsx
478	main_unc	True	0.0	749	0	8.0	8.0	1.0	1	right	2.0	1.0	1.0	1	0.0242072596215	blockFiles/set_34/main_unc/rightBlue\GB_RB_5.xlsx
479	main_unc	True	0.0	749	0	8.0	8.0	n/a	0	None	n/a	0.0	n/a	1	0.020362013019599997	blockFiles/set_34/main_unc/rightBlue\GB_RB_5.xlsx
480	main_unc	True	0.0	749	0	8.0	8.0	1.0	1	right	2.0	1.0	1.0	1	0.020362013019599997	blockFiles/set_34/main_unc/rightBlue\GB_RB_5.xlsx
481	main_unc	True	0.0	749	0	9.0	9.0	0.0	1	left	1.0	0.0	0.0	0	-0.0299836901203	blockFiles/set_34/main_unc/leftBlue\GB_LB_4.xlsx
482	main_unc	True	0.0	749	0	9.0	9.0	0.0	1	left	2.0	1.0	1.0	0	-0.0548588947207	blockFiles/set_34/main_unc/leftBlue\GB_LB_4.xlsx
483	main_unc	True	0.0	749	0	9.0	9.0	1.0	1	right	1.0	1.0	1.0	1	0.0573078422248	blockFiles/set_34/main_unc/leftBlue\GB_LB_4.xlsx
484	main_unc	True	0.0	749	0	9.0	9.0	1.0	1	right	1.0	1.0	1.0	1	0.05287366727369999	blockFiles/set_34/main_unc/leftBlue\GB_LB_4.xlsx
485	main_unc	True	0.0	749	0	9.0	9.0	0.0	1	left	2.0	0.0	1.0	0	-0.058616111669699995	blockFiles/set_34/main_unc/leftBlue\GB_LB_4.xlsx
486	main_unc	True	0.0	749	0	9.0	9.0	1.0	1	right	1.0	1.0	1.0	1	0.000753943193704	blockFiles/set_34/main_unc/leftBlue\GB_LB_4.xlsx
487	main_unc	True	0.0	749	0	9.0	9.0	1.0	1	right	1.0	1.0	1.0	1	0.0282691846602	blockFiles/set_34/main_unc/leftBlue\GB_LB_4.xlsx
488	main_unc	True	0.0	749	0	9.0	9.0	1.0	1	right	1.0	0.0	1.0	1	0.0467947495729	blockFiles/set_34/main_unc/leftBlue\GB_LB_4.xlsx
489	main_unc	True	0.0	749	0	9.0	9.0	1.0	0	right	2.0	1.0	1.0	0	-0.0186347016692	blockFiles/set_34/main_unc/leftBlue\GB_LB_4.xlsx
490	main_unc	True	0.0	749	0	9.0	9.0	1.0	1	right	1.0	0.0	1.0	1	0.07516926409680001	blockFiles/set_34/main_unc/leftBlue\GB_LB_4.xlsx
491	main_unc	True	0.0	749	0	9.0	9.0	1.0	1	right	1.0	1.0	1.0	1	0.043345607109400004	blockFiles/set_34/main_unc/leftBlue\GB_LB_4.xlsx
492	main_unc	True	0.0	749	0	9.0	9.0	1.0	0	right	1.0	0.0	0.0	0	-0.00877016723156	blockFiles/set_34/main_unc/leftBlue\GB_LB_4.xlsx
493	main_unc	True	0.0	749	0	9.0	9.0	0.0	1	left	2.0	1.0	1.0	0	-0.0256969522126	blockFiles/set_34/main_unc/leftBlue\GB_LB_4.xlsx
494	main_unc	True	0.0	749	0	9.0	9.0	0.0	1	left	2.0	1.0	1.0	0	-0.07123124098410001	blockFiles/set_34/main_unc/leftBlue\GB_LB_4.xlsx
495	main_unc	True	0.0	749	0	9.0	9.0	0.0	1	left	2.0	1.0	1.0	0	-0.042007626798	blockFiles/set_34/main_unc/leftBlue\GB_LB_4.xlsx
496	main_unc	True	0.0	749	0	9.0	9.0	1.0	1	right	1.0	1.0	1.0	1	0.0370371316373	blockFiles/set_34/main_unc/leftBlue\GB_LB_4.xlsx
497	main_unc	True	0.0	749	0	9.0	9.0	0.0	1	left	2.0	1.0	1.0	0	-0.077930193413	blockFiles/set_34/main_unc/leftBlue\GB_LB_4.xlsx
498	main_unc	True	0.0	749	0	9.0	9.0	1.0	1	right	1.0	1.0	1.0	1	0.0109301824495	blockFiles/set_34/main_unc/leftBlue\GB_LB_4.xlsx
499	main_unc	True	0.0	749	0	9.0	9.0	1.0	1	right	1.0	1.0	1.0	1	0.0489680198953	blockFiles/set_34/main_unc/leftBlue\GB_LB_4.xlsx
500	main_unc	True	0.0	749	0	9.0	9.0	0.0	1	left	2.0	1.0	1.0	0	-0.0377272358537	blockFiles/set_34/main_unc/leftBlue\GB_LB_4.xlsx
501	main_unc	True	0.0	749	0	9.0	9.0	0.0	1	left	2.0	1.0	1.0	0	-0.0584851899929	blockFiles/set_34/main_unc/leftBlue\GB_LB_4.xlsx
502	main_unc	True	0.0	749	0	9.0	9.0	1.0	1	right	1.0	0.0	1.0	1	0.0420082086883	blockFiles/set_34/main_unc/leftBlue\GB_LB_4.xlsx
503	main_unc	True	0.0	749	0	9.0	9.0	0.0	1	left	2.0	1.0	1.0	0	-0.025887847524099998	blockFiles/set_34/main_unc/leftBlue\GB_LB_4.xlsx
504	main_unc	True	0.0	749	0	9.0	9.0	0.0	0	left	2.0	0.0	0.0	1	0.0221468855813	blockFiles/set_34/main_unc/leftBlue\GB_LB_4.xlsx
505	main_unc	True	0.0	749	0	9.0	9.0	1.0	1	right	1.0	0.0	1.0	1	0.0545860211551	blockFiles/set_34/main_unc/leftBlue\GB_LB_4.xlsx
506	main_unc	True	0.0	749	0	10.0	10.0	0.0	1	left	2.0	0.0	0.0	0	-0.043477582633499996	blockFiles/set_34/main_unc/rightBlue\GB_RB_6.xlsx
507	main_unc	True	0.0	749	0	10.0	10.0	0.0	1	left	1.0	1.0	1.0	0	-0.0330642556958	blockFiles/set_34/main_unc/rightBlue\GB_RB_6.xlsx
508	main_unc	True	0.0	749	0	10.0	10.0	0.0	1	left	1.0	1.0	1.0	0	-0.0222342971526	blockFiles/set_34/main_unc/rightBlue\GB_RB_6.xlsx
509	main_unc	True	0.0	749	0	10.0	10.0	0.0	1	left	1.0	1.0	1.0	0	-0.07085125058889999	blockFiles/set_34/main_unc/rightBlue\GB_RB_6.xlsx
510	main_unc	True	0.0	749	0	10.0	10.0	0.0	1	left	1.0	0.0	1.0	0	-0.00668662436306	blockFiles/set_34/main_unc/rightBlue\GB_RB_6.xlsx
511	main_unc	True	0.0	749	0	10.0	10.0	0.0	1	left	1.0	1.0	1.0	0	-0.0738530769385	blockFiles/set_34/main_unc/rightBlue\GB_RB_6.xlsx
512	main_unc	True	0.0	749	0	10.0	10.0	0.0	1	left	1.0	1.0	1.0	0	-0.055103450193999995	blockFiles/set_34/main_unc/rightBlue\GB_RB_6.xlsx
513	main_unc	True	0.0	749	0	10.0	10.0	1.0	0	right	1.0	1.0	1.0	0	-0.012440944463	blockFiles/set_34/main_unc/rightBlue\GB_RB_6.xlsx
514	main_unc	True	0.0	749	0	10.0	10.0	0.0	0	left	1.0	0.0	0.0	1	0.013229650538399999	blockFiles/set_34/main_unc/rightBlue\GB_RB_6.xlsx
515	main_unc	True	0.0	749	0	10.0	10.0	1.0	1	right	2.0	0.0	1.0	1	0.0129430721328	blockFiles/set_34/main_unc/rightBlue\GB_RB_6.xlsx
516	main_unc	True	0.0	749	0	10.0	10.0	1.0	1	right	2.0	1.0	1.0	1	0.0362772614509	blockFiles/set_34/main_unc/rightBlue\GB_RB_6.xlsx
517	main_unc	True	0.0	749	0	10.0	10.0	1.0	1	right	2.0	1.0	1.0	1	0.0568204812147	blockFiles/set_34/main_unc/rightBlue\GB_RB_6.xlsx
518	main_unc	True	0.0	749	0	10.0	10.0	1.0	1	right	2.0	1.0	1.0	1	0.045156212542199994	blockFiles/set_34/main_unc/rightBlue\GB_RB_6.xlsx
519	main_unc	True	0.0	749	0	10.0	10.0	1.0	1	right	2.0	1.0	1.0	1	0.057978003677000005	blockFiles/set_34/main_unc/rightBlue\GB_RB_6.xlsx
520	main_unc	True	0.0	749	0	10.0	10.0	1.0	1	right	2.0	1.0	1.0	1	0.0713751186989	blockFiles/set_34/main_unc/rightBlue\GB_RB_6.xlsx
521	main_unc	True	0.0	749	0	10.0	10.0	1.0	1	right	2.0	1.0	1.0	1	0.0321441714279	blockFiles/set_34/main_unc/rightBlue\GB_RB_6.xlsx
522	main_unc	True	0.0	749	0	10.0	10.0	0.0	1	left	1.0	0.0	1.0	0	-0.072599580884	blockFiles/set_34/main_unc/rightBlue\GB_RB_6.xlsx
523	main_unc	True	0.0	749	0	10.0	10.0	0.0	0	left	1.0	0.0	0.0	1	0.013603340797099999	blockFiles/set_34/main_unc/rightBlue\GB_RB_6.xlsx
524	main_unc	True	0.0	749	0	10.0	10.0	1.0	0	right	1.0	0.0	1.0	0	-0.0345242777467	blockFiles/set_34/main_unc/rightBlue\GB_RB_6.xlsx
525	main_unc	True	0.0	749	0	10.0	10.0	0.0	1	left	1.0	0.0	1.0	0	-0.0251716282405	blockFiles/set_34/main_unc/rightBlue\GB_RB_6.xlsx
526	main_unc	True	0.0	749	0	10.0	10.0	1.0	1	right	2.0	1.0	1.0	1	0.00367778249085	blockFiles/set_34/main_unc/rightBlue\GB_RB_6.xlsx
527	main_unc	True	0.0	749	0	10.0	10.0	1.0	1	right	2.0	1.0	1.0	1	0.07189942114060001	blockFiles/set_34/main_unc/rightBlue\GB_RB_6.xlsx
528	main_unc	True	0.0	749	0	10.0	10.0	1.0	1	right	2.0	0.0	1.0	1	0.0108537450805	blockFiles/set_34/main_unc/rightBlue\GB_RB_6.xlsx
529	main_unc	True	0.0	749	0	10.0	10.0	1.0	1	right	2.0	1.0	1.0	1	0.0752325616032	blockFiles/set_34/main_unc/rightBlue\GB_RB_6.xlsx
530	main_unc	True	0.0	749	0	10.0	10.0	1.0	1	right	2.0	1.0	1.0	1	0.0364060030505	blockFiles/set_34/main_unc/rightBlue\GB_RB_6.xlsx
531	main_unc	True	0.0	749	0	11.0	11.0	1.0	1	right	1.0	0.0	1.0	1	0.056991038136200003	blockFiles/set_34/main_unc/leftBlue\GB_LB_5.xlsx
532	main_unc	True	0.0	749	0	11.0	11.0	1.0	1	right	1.0	1.0	1.0	1	0.020992764644299996	blockFiles/set_34/main_unc/leftBlue\GB_LB_5.xlsx
533	main_unc	True	0.0	749	0	11.0	11.0	1.0	1	right	1.0	1.0	1.0	1	0.0599422855861	blockFiles/set_34/main_unc/leftBlue\GB_LB_5.xlsx
534	main_unc	True	0.0	749	0	11.0	11.0	0.0	1	left	2.0	1.0	1.0	0	-0.037473455462599996	blockFiles/set_34/main_unc/leftBlue\GB_LB_5.xlsx
535	main_unc	True	0.0	749	0	11.0	11.0	0.0	0	left	2.0	1.0	0.0	1	0.00372000038624	blockFiles/set_34/main_unc/leftBlue\GB_LB_5.xlsx
536	main_unc	True	0.0	749	0	11.0	11.0	1.0	1	right	1.0	1.0	1.0	1	0.06757978199049999	blockFiles/set_34/main_unc/leftBlue\GB_LB_5.xlsx
537	main_unc	True	0.0	749	0	11.0	11.0	0.0	0	left	2.0	0.0	0.0	1	0.0057387195341299995	blockFiles/set_34/main_unc/leftBlue\GB_LB_5.xlsx
538	main_unc	True	0.0	749	0	11.0	11.0	1.0	1	right	1.0	1.0	1.0	1	0.0268244758248	blockFiles/set_34/main_unc/leftBlue\GB_LB_5.xlsx
539	main_unc	True	0.0	749	0	11.0	11.0	0.0	1	left	2.0	1.0	1.0	0	-0.068253251873	blockFiles/set_34/main_unc/leftBlue\GB_LB_5.xlsx
540	main_unc	True	0.0	749	0	11.0	11.0	1.0	0	right	1.0	1.0	0.0	0	-0.0181281098351	blockFiles/set_34/main_unc/leftBlue\GB_LB_5.xlsx
541	main_unc	True	0.0	749	0	11.0	11.0	0.0	1	left	2.0	0.0	1.0	0	-0.058006876800199995	blockFiles/set_34/main_unc/leftBlue\GB_LB_5.xlsx
542	main_unc	True	0.0	749	0	11.0	11.0	1.0	1	right	1.0	1.0	1.0	1	0.0686019956693	blockFiles/set_34/main_unc/leftBlue\GB_LB_5.xlsx
543	main_unc	True	0.0	749	0	11.0	11.0	0.0	1	left	2.0	1.0	1.0	0	-0.023547195252	blockFiles/set_34/main_unc/leftBlue\GB_LB_5.xlsx
544	main_unc	True	0.0	749	0	11.0	11.0	0.0	1	left	2.0	1.0	1.0	0	-0.0421362935193	blockFiles/set_34/main_unc/leftBlue\GB_LB_5.xlsx
545	main_unc	True	0.0	749	0	11.0	11.0	0.0	1	left	2.0	0.0	1.0	0	-0.0730414896458	blockFiles/set_34/main_unc/leftBlue\GB_LB_5.xlsx
546	main_unc	True	0.0	749	0	11.0	11.0	1.0	1	right	1.0	1.0	1.0	1	0.0190844738111	blockFiles/set_34/main_unc/leftBlue\GB_LB_5.xlsx
547	main_unc	True	0.0	749	0	11.0	11.0	1.0	1	right	1.0	1.0	1.0	1	0.0397920102254	blockFiles/set_34/main_unc/leftBlue\GB_LB_5.xlsx
548	main_unc	True	0.0	749	0	11.0	11.0	0.0	1	left	2.0	1.0	1.0	0	-0.0164437771402	blockFiles/set_34/main_unc/leftBlue\GB_LB_5.xlsx
549	main_unc	True	0.0	749	0	11.0	11.0	0.0	1	left	1.0	0.0	0.0	0	-0.062331315651500005	blockFiles/set_34/main_unc/leftBlue\GB_LB_5.xlsx
550	main_unc	True	0.0	749	0	11.0	11.0	1.0	1	right	1.0	1.0	1.0	1	0.04755252519619999	blockFiles/set_34/main_unc/leftBlue\GB_LB_5.xlsx
551	main_unc	True	0.0	749	0	11.0	11.0	0.0	1	left	2.0	1.0	1.0	0	-0.0574967551418	blockFiles/set_34/main_unc/leftBlue\GB_LB_5.xlsx
552	main_unc	True	0.0	749	0	11.0	11.0	0.0	1	left	2.0	1.0	1.0	0	-0.056976242046800005	blockFiles/set_34/main_unc/leftBlue\GB_LB_5.xlsx
553	main_unc	True	0.0	749	0	11.0	11.0	1.0	1	right	1.0	1.0	1.0	1	0.0194668527693	blockFiles/set_34/main_unc/leftBlue\GB_LB_5.xlsx
554	main_unc	True	0.0	749	0	11.0	11.0	1.0	0	right	1.0	0.0	0.0	0	-0.006119035445149999	blockFiles/set_34/main_unc/leftBlue\GB_LB_5.xlsx
555	main_unc	True	0.0	749	0	11.0	11.0	1.0	1	right	1.0	1.0	1.0	1	0.0722352440283	blockFiles/set_34/main_unc/leftBlue\GB_LB_5.xlsx
