	trial_type	complete	missIndex	participant	id	blockNumber	b_t	d_t	decision1.corr	decision1.keys	a_t	r_t	decision2.corr	s_t	u_t	block_file
0	main_safe	True	0.0	646	0	0.0	0.0	0.0	1	left	1.0	0.0	0.0	0	-0.08	blockFiles/set_21/main_safe/leftBlue\GB_LB_3.xlsx
1	main_safe	True	0.0	646	0	0.0	0.0	0.0	1	left	2.0	1.0	1.0	0	-0.08	blockFiles/set_21/main_safe/leftBlue\GB_LB_3.xlsx
2	main_safe	True	0.0	646	0	0.0	0.0	0.0	1	left	2.0	1.0	1.0	0	-0.08	blockFiles/set_21/main_safe/leftBlue\GB_LB_3.xlsx
3	main_safe	True	0.0	646	0	0.0	0.0	0.0	1	left	2.0	1.0	1.0	0	-0.08	blockFiles/set_21/main_safe/leftBlue\GB_LB_3.xlsx
4	main_safe	True	0.0	646	0	0.0	0.0	1.0	1	right	1.0	1.0	1.0	1	0.08	blockFiles/set_21/main_safe/leftBlue\GB_LB_3.xlsx
5	main_safe	True	0.0	646	0	0.0	0.0	0.0	1	left	2.0	1.0	1.0	0	-0.08	blockFiles/set_21/main_safe/leftBlue\GB_LB_3.xlsx
6	main_safe	True	0.0	646	0	0.0	0.0	0.0	1	left	2.0	0.0	1.0	0	-0.08	blockFiles/set_21/main_safe/leftBlue\GB_LB_3.xlsx
7	main_safe	True	0.0	646	0	0.0	0.0	0.0	1	left	2.0	1.0	1.0	0	-0.08	blockFiles/set_21/main_safe/leftBlue\GB_LB_3.xlsx
8	main_safe	True	0.0	646	0	0.0	0.0	1.0	1	right	1.0	1.0	1.0	1	0.08	blockFiles/set_21/main_safe/leftBlue\GB_LB_3.xlsx
9	main_safe	True	0.0	646	0	0.0	0.0	1.0	1	right	1.0	1.0	1.0	1	0.08	blockFiles/set_21/main_safe/leftBlue\GB_LB_3.xlsx
10	main_safe	True	0.0	646	0	0.0	0.0	1.0	1	right	1.0	1.0	1.0	1	0.08	blockFiles/set_21/main_safe/leftBlue\GB_LB_3.xlsx
11	main_safe	True	0.0	646	0	0.0	0.0	0.0	1	left	2.0	1.0	1.0	0	-0.08	blockFiles/set_21/main_safe/leftBlue\GB_LB_3.xlsx
12	main_safe	True	0.0	646	0	0.0	0.0	0.0	1	left	2.0	1.0	1.0	0	-0.08	blockFiles/set_21/main_safe/leftBlue\GB_LB_3.xlsx
13	main_safe	True	0.0	646	0	0.0	0.0	1.0	1	right	1.0	0.0	1.0	1	0.08	blockFiles/set_21/main_safe/leftBlue\GB_LB_3.xlsx
14	main_safe	True	0.0	646	0	0.0	0.0	0.0	1	left	2.0	1.0	1.0	0	-0.08	blockFiles/set_21/main_safe/leftBlue\GB_LB_3.xlsx
15	main_safe	True	0.0	646	0	0.0	0.0	0.0	1	left	2.0	1.0	1.0	0	-0.08	blockFiles/set_21/main_safe/leftBlue\GB_LB_3.xlsx
16	main_safe	True	0.0	646	0	0.0	0.0	1.0	1	right	1.0	1.0	1.0	1	0.08	blockFiles/set_21/main_safe/leftBlue\GB_LB_3.xlsx
17	main_safe	True	0.0	646	0	0.0	0.0	1.0	1	right	1.0	0.0	1.0	1	0.08	blockFiles/set_21/main_safe/leftBlue\GB_LB_3.xlsx
18	main_safe	True	0.0	646	0	0.0	0.0	0.0	1	left	1.0	0.0	0.0	0	-0.08	blockFiles/set_21/main_safe/leftBlue\GB_LB_3.xlsx
19	main_safe	True	0.0	646	0	0.0	0.0	1.0	1	right	1.0	1.0	1.0	1	0.08	blockFiles/set_21/main_safe/leftBlue\GB_LB_3.xlsx
20	main_safe	True	0.0	646	0	0.0	0.0	1.0	1	right	1.0	1.0	1.0	1	0.08	blockFiles/set_21/main_safe/leftBlue\GB_LB_3.xlsx
21	main_safe	True	0.0	646	0	0.0	0.0	0.0	1	left	2.0	0.0	1.0	0	-0.08	blockFiles/set_21/main_safe/leftBlue\GB_LB_3.xlsx
22	main_safe	True	0.0	646	0	0.0	0.0	1.0	1	right	1.0	0.0	1.0	1	0.08	blockFiles/set_21/main_safe/leftBlue\GB_LB_3.xlsx
23	main_safe	True	0.0	646	0	0.0	0.0	1.0	1	right	1.0	1.0	1.0	1	0.08	blockFiles/set_21/main_safe/leftBlue\GB_LB_3.xlsx
24	main_safe	True	0.0	646	0	0.0	0.0	1.0	1	right	1.0	1.0	1.0	1	0.08	blockFiles/set_21/main_safe/leftBlue\GB_LB_3.xlsx
25	main_safe	True	0.0	646	0	1.0	1.0	1.0	1	right	2.0	1.0	1.0	1	0.08	blockFiles/set_21/main_safe/rightBlue\GB_RB_3.xlsx
26	main_safe	True	0.0	646	0	1.0	1.0	1.0	1	right	2.0	0.0	1.0	1	0.08	blockFiles/set_21/main_safe/rightBlue\GB_RB_3.xlsx
27	main_safe	True	0.0	646	0	1.0	1.0	0.0	1	left	1.0	1.0	1.0	0	-0.08	blockFiles/set_21/main_safe/rightBlue\GB_RB_3.xlsx
28	main_safe	True	0.0	646	0	1.0	1.0	1.0	1	right	2.0	0.0	1.0	1	0.08	blockFiles/set_21/main_safe/rightBlue\GB_RB_3.xlsx
29	main_safe	True	0.0	646	0	1.0	1.0	1.0	1	right	2.0	1.0	1.0	1	0.08	blockFiles/set_21/main_safe/rightBlue\GB_RB_3.xlsx
30	main_safe	True	0.0	646	0	1.0	1.0	1.0	1	right	2.0	1.0	1.0	1	0.08	blockFiles/set_21/main_safe/rightBlue\GB_RB_3.xlsx
31	main_safe	True	0.0	646	0	1.0	1.0	1.0	1	right	2.0	1.0	1.0	1	0.08	blockFiles/set_21/main_safe/rightBlue\GB_RB_3.xlsx
32	main_safe	True	0.0	646	0	1.0	1.0	1.0	1	right	2.0	1.0	1.0	1	0.08	blockFiles/set_21/main_safe/rightBlue\GB_RB_3.xlsx
33	main_safe	True	0.0	646	0	1.0	1.0	1.0	1	right	2.0	1.0	1.0	1	0.08	blockFiles/set_21/main_safe/rightBlue\GB_RB_3.xlsx
34	main_safe	True	0.0	646	0	1.0	1.0	0.0	1	left	1.0	0.0	1.0	0	-0.08	blockFiles/set_21/main_safe/rightBlue\GB_RB_3.xlsx
35	main_safe	True	0.0	646	0	1.0	1.0	1.0	1	right	2.0	1.0	1.0	1	0.08	blockFiles/set_21/main_safe/rightBlue\GB_RB_3.xlsx
36	main_safe	True	0.0	646	0	1.0	1.0	1.0	1	right	2.0	1.0	1.0	1	0.08	blockFiles/set_21/main_safe/rightBlue\GB_RB_3.xlsx
37	main_safe	True	0.0	646	0	1.0	1.0	1.0	1	right	2.0	1.0	1.0	1	0.08	blockFiles/set_21/main_safe/rightBlue\GB_RB_3.xlsx
38	main_safe	True	0.0	646	0	1.0	1.0	0.0	1	left	1.0	1.0	1.0	0	-0.08	blockFiles/set_21/main_safe/rightBlue\GB_RB_3.xlsx
39	main_safe	True	0.0	646	0	1.0	1.0	0.0	1	left	1.0	1.0	1.0	0	-0.08	blockFiles/set_21/main_safe/rightBlue\GB_RB_3.xlsx
40	main_safe	True	0.0	646	0	1.0	1.0	0.0	1	left	1.0	0.0	1.0	0	-0.08	blockFiles/set_21/main_safe/rightBlue\GB_RB_3.xlsx
41	main_safe	True	0.0	646	0	1.0	1.0	1.0	1	right	2.0	1.0	1.0	1	0.08	blockFiles/set_21/main_safe/rightBlue\GB_RB_3.xlsx
42	main_safe	True	0.0	646	0	1.0	1.0	0.0	1	left	1.0	1.0	1.0	0	-0.08	blockFiles/set_21/main_safe/rightBlue\GB_RB_3.xlsx
43	main_safe	True	0.0	646	0	1.0	1.0	0.0	1	left	1.0	1.0	1.0	0	-0.08	blockFiles/set_21/main_safe/rightBlue\GB_RB_3.xlsx
44	main_safe	True	0.0	646	0	1.0	1.0	0.0	1	left	1.0	1.0	1.0	0	-0.08	blockFiles/set_21/main_safe/rightBlue\GB_RB_3.xlsx
45	main_safe	True	0.0	646	0	1.0	1.0	0.0	1	left	1.0	1.0	1.0	0	-0.08	blockFiles/set_21/main_safe/rightBlue\GB_RB_3.xlsx
46	main_safe	True	0.0	646	0	1.0	1.0	1.0	1	right	2.0	1.0	1.0	1	0.08	blockFiles/set_21/main_safe/rightBlue\GB_RB_3.xlsx
47	main_safe	True	0.0	646	0	1.0	1.0	0.0	1	left	1.0	1.0	1.0	0	-0.08	blockFiles/set_21/main_safe/rightBlue\GB_RB_3.xlsx
48	main_safe	True	0.0	646	0	1.0	1.0	1.0	1	right	2.0	0.0	1.0	1	0.08	blockFiles/set_21/main_safe/rightBlue\GB_RB_3.xlsx
49	main_safe	True	0.0	646	0	1.0	1.0	0.0	1	left	1.0	1.0	1.0	0	-0.08	blockFiles/set_21/main_safe/rightBlue\GB_RB_3.xlsx
50	main_safe	True	0.0	646	0	2.0	2.0	1.0	1	right	2.0	1.0	1.0	1	0.08	blockFiles/set_21/main_safe/rightBlue\GB_RB_1.xlsx
51	main_safe	True	0.0	646	0	2.0	2.0	0.0	1	left	1.0	1.0	1.0	0	-0.08	blockFiles/set_21/main_safe/rightBlue\GB_RB_1.xlsx
52	main_safe	True	0.0	646	0	2.0	2.0	1.0	1	right	2.0	1.0	1.0	1	0.08	blockFiles/set_21/main_safe/rightBlue\GB_RB_1.xlsx
53	main_safe	True	0.0	646	0	2.0	2.0	1.0	1	right	2.0	1.0	1.0	1	0.08	blockFiles/set_21/main_safe/rightBlue\GB_RB_1.xlsx
54	main_safe	True	0.0	646	0	2.0	2.0	1.0	1	right	2.0	0.0	1.0	1	0.08	blockFiles/set_21/main_safe/rightBlue\GB_RB_1.xlsx
55	main_safe	True	0.0	646	0	2.0	2.0	1.0	1	right	2.0	1.0	1.0	1	0.08	blockFiles/set_21/main_safe/rightBlue\GB_RB_1.xlsx
56	main_safe	True	0.0	646	0	2.0	2.0	0.0	1	left	1.0	1.0	1.0	0	-0.08	blockFiles/set_21/main_safe/rightBlue\GB_RB_1.xlsx
57	main_safe	True	0.0	646	0	2.0	2.0	1.0	1	right	2.0	1.0	1.0	1	0.08	blockFiles/set_21/main_safe/rightBlue\GB_RB_1.xlsx
58	main_safe	True	0.0	646	0	2.0	2.0	0.0	1	left	1.0	1.0	1.0	0	-0.08	blockFiles/set_21/main_safe/rightBlue\GB_RB_1.xlsx
59	main_safe	True	0.0	646	0	2.0	2.0	0.0	1	left	1.0	1.0	1.0	0	-0.08	blockFiles/set_21/main_safe/rightBlue\GB_RB_1.xlsx
60	main_safe	True	0.0	646	0	2.0	2.0	0.0	1	left	1.0	1.0	1.0	0	-0.08	blockFiles/set_21/main_safe/rightBlue\GB_RB_1.xlsx
61	main_safe	True	0.0	646	0	2.0	2.0	0.0	1	left	1.0	1.0	1.0	0	-0.08	blockFiles/set_21/main_safe/rightBlue\GB_RB_1.xlsx
62	main_safe	True	0.0	646	0	2.0	2.0	1.0	1	right	2.0	0.0	1.0	1	0.08	blockFiles/set_21/main_safe/rightBlue\GB_RB_1.xlsx
63	main_safe	True	0.0	646	0	2.0	2.0	0.0	1	left	1.0	1.0	1.0	0	-0.08	blockFiles/set_21/main_safe/rightBlue\GB_RB_1.xlsx
64	main_safe	True	0.0	646	0	2.0	2.0	1.0	1	right	2.0	0.0	1.0	1	0.08	blockFiles/set_21/main_safe/rightBlue\GB_RB_1.xlsx
65	main_safe	True	0.0	646	0	2.0	2.0	0.0	1	left	1.0	1.0	1.0	0	-0.08	blockFiles/set_21/main_safe/rightBlue\GB_RB_1.xlsx
66	main_safe	True	0.0	646	0	2.0	2.0	1.0	1	right	2.0	0.0	1.0	1	0.08	blockFiles/set_21/main_safe/rightBlue\GB_RB_1.xlsx
67	main_safe	True	0.0	646	0	2.0	2.0	0.0	1	left	1.0	1.0	1.0	0	-0.08	blockFiles/set_21/main_safe/rightBlue\GB_RB_1.xlsx
68	main_safe	True	0.0	646	0	2.0	2.0	1.0	1	right	2.0	1.0	1.0	1	0.08	blockFiles/set_21/main_safe/rightBlue\GB_RB_1.xlsx
69	main_safe	True	0.0	646	0	2.0	2.0	0.0	1	left	1.0	1.0	1.0	0	-0.08	blockFiles/set_21/main_safe/rightBlue\GB_RB_1.xlsx
70	main_safe	True	0.0	646	0	2.0	2.0	0.0	1	left	1.0	1.0	1.0	0	-0.08	blockFiles/set_21/main_safe/rightBlue\GB_RB_1.xlsx
71	main_safe	True	0.0	646	0	2.0	2.0	1.0	1	right	2.0	1.0	1.0	1	0.08	blockFiles/set_21/main_safe/rightBlue\GB_RB_1.xlsx
72	main_safe	True	0.0	646	0	2.0	2.0	1.0	1	right	2.0	1.0	1.0	1	0.08	blockFiles/set_21/main_safe/rightBlue\GB_RB_1.xlsx
73	main_safe	True	0.0	646	0	2.0	2.0	0.0	1	left	1.0	1.0	1.0	0	-0.08	blockFiles/set_21/main_safe/rightBlue\GB_RB_1.xlsx
74	main_safe	True	0.0	646	0	2.0	2.0	0.0	1	left	1.0	1.0	1.0	0	-0.08	blockFiles/set_21/main_safe/rightBlue\GB_RB_1.xlsx
75	main_safe	True	0.0	646	0	3.0	3.0	1.0	1	right	1.0	1.0	1.0	1	0.08	blockFiles/set_21/main_safe/leftBlue\GB_LB_1.xlsx
76	main_safe	True	0.0	646	0	3.0	3.0	1.0	1	right	1.0	1.0	1.0	1	0.08	blockFiles/set_21/main_safe/leftBlue\GB_LB_1.xlsx
77	main_safe	True	0.0	646	0	3.0	3.0	0.0	1	left	2.0	1.0	1.0	0	-0.08	blockFiles/set_21/main_safe/leftBlue\GB_LB_1.xlsx
78	main_safe	True	0.0	646	0	3.0	3.0	1.0	1	right	1.0	1.0	1.0	1	0.08	blockFiles/set_21/main_safe/leftBlue\GB_LB_1.xlsx
79	main_safe	True	0.0	646	0	3.0	3.0	0.0	1	left	2.0	1.0	1.0	0	-0.08	blockFiles/set_21/main_safe/leftBlue\GB_LB_1.xlsx
80	main_safe	True	0.0	646	0	3.0	3.0	0.0	1	left	2.0	0.0	1.0	0	-0.08	blockFiles/set_21/main_safe/leftBlue\GB_LB_1.xlsx
81	main_safe	True	0.0	646	0	3.0	3.0	0.0	1	left	2.0	1.0	1.0	0	-0.08	blockFiles/set_21/main_safe/leftBlue\GB_LB_1.xlsx
82	main_safe	True	0.0	646	0	3.0	3.0	1.0	1	right	1.0	0.0	1.0	1	0.08	blockFiles/set_21/main_safe/leftBlue\GB_LB_1.xlsx
83	main_safe	True	0.0	646	0	3.0	3.0	1.0	1	right	1.0	1.0	1.0	1	0.08	blockFiles/set_21/main_safe/leftBlue\GB_LB_1.xlsx
84	main_safe	True	0.0	646	0	3.0	3.0	1.0	1	right	1.0	1.0	1.0	1	0.08	blockFiles/set_21/main_safe/leftBlue\GB_LB_1.xlsx
85	main_safe	True	0.0	646	0	3.0	3.0	0.0	1	left	2.0	1.0	1.0	0	-0.08	blockFiles/set_21/main_safe/leftBlue\GB_LB_1.xlsx
86	main_safe	True	0.0	646	0	3.0	3.0	0.0	1	left	2.0	1.0	1.0	0	-0.08	blockFiles/set_21/main_safe/leftBlue\GB_LB_1.xlsx
87	main_safe	True	0.0	646	0	3.0	3.0	0.0	1	left	2.0	0.0	1.0	0	-0.08	blockFiles/set_21/main_safe/leftBlue\GB_LB_1.xlsx
88	main_safe	True	0.0	646	0	3.0	3.0	1.0	1	right	1.0	0.0	1.0	1	0.08	blockFiles/set_21/main_safe/leftBlue\GB_LB_1.xlsx
89	main_safe	True	0.0	646	0	3.0	3.0	1.0	1	right	1.0	1.0	1.0	1	0.08	blockFiles/set_21/main_safe/leftBlue\GB_LB_1.xlsx
90	main_safe	True	0.0	646	0	3.0	3.0	0.0	1	left	2.0	1.0	1.0	0	-0.08	blockFiles/set_21/main_safe/leftBlue\GB_LB_1.xlsx
91	main_safe	True	0.0	646	0	3.0	3.0	1.0	1	right	1.0	0.0	1.0	1	0.08	blockFiles/set_21/main_safe/leftBlue\GB_LB_1.xlsx
92	main_safe	True	0.0	646	0	3.0	3.0	1.0	1	right	1.0	1.0	1.0	1	0.08	blockFiles/set_21/main_safe/leftBlue\GB_LB_1.xlsx
93	main_safe	True	0.0	646	0	3.0	3.0	1.0	1	right	1.0	1.0	1.0	1	0.08	blockFiles/set_21/main_safe/leftBlue\GB_LB_1.xlsx
94	main_safe	True	0.0	646	0	3.0	3.0	0.0	1	left	2.0	1.0	1.0	0	-0.08	blockFiles/set_21/main_safe/leftBlue\GB_LB_1.xlsx
95	main_safe	True	0.0	646	0	3.0	3.0	1.0	1	right	1.0	1.0	1.0	1	0.08	blockFiles/set_21/main_safe/leftBlue\GB_LB_1.xlsx
96	main_safe	True	0.0	646	0	3.0	3.0	0.0	1	left	2.0	1.0	1.0	0	-0.08	blockFiles/set_21/main_safe/leftBlue\GB_LB_1.xlsx
97	main_safe	True	0.0	646	0	3.0	3.0	1.0	1	right	1.0	1.0	1.0	1	0.08	blockFiles/set_21/main_safe/leftBlue\GB_LB_1.xlsx
98	main_safe	True	0.0	646	0	3.0	3.0	1.0	1	right	1.0	1.0	1.0	1	0.08	blockFiles/set_21/main_safe/leftBlue\GB_LB_1.xlsx
99	main_safe	True	0.0	646	0	3.0	3.0	0.0	1	left	2.0	1.0	1.0	0	-0.08	blockFiles/set_21/main_safe/leftBlue\GB_LB_1.xlsx
100	main_safe	True	0.0	646	0	4.0	4.0	1.0	1	right	1.0	0.0	0.0	1	0.08	blockFiles/set_21/main_safe/rightBlue\GB_RB_2.xlsx
101	main_safe	True	0.0	646	0	4.0	4.0	1.0	1	right	2.0	0.0	1.0	1	0.08	blockFiles/set_21/main_safe/rightBlue\GB_RB_2.xlsx
102	main_safe	True	0.0	646	0	4.0	4.0	0.0	1	left	2.0	0.0	0.0	0	-0.08	blockFiles/set_21/main_safe/rightBlue\GB_RB_2.xlsx
103	main_safe	True	0.0	646	0	4.0	4.0	0.0	1	left	1.0	1.0	1.0	0	-0.08	blockFiles/set_21/main_safe/rightBlue\GB_RB_2.xlsx
104	main_safe	True	0.0	646	0	4.0	4.0	1.0	1	right	2.0	1.0	1.0	1	0.08	blockFiles/set_21/main_safe/rightBlue\GB_RB_2.xlsx
105	main_safe	True	0.0	646	0	4.0	4.0	1.0	1	right	2.0	0.0	1.0	1	0.08	blockFiles/set_21/main_safe/rightBlue\GB_RB_2.xlsx
106	main_safe	True	0.0	646	0	4.0	4.0	0.0	1	left	1.0	0.0	1.0	0	-0.08	blockFiles/set_21/main_safe/rightBlue\GB_RB_2.xlsx
107	main_safe	True	0.0	646	0	4.0	4.0	0.0	1	left	1.0	1.0	1.0	0	-0.08	blockFiles/set_21/main_safe/rightBlue\GB_RB_2.xlsx
108	main_safe	True	0.0	646	0	4.0	4.0	0.0	1	left	1.0	1.0	1.0	0	-0.08	blockFiles/set_21/main_safe/rightBlue\GB_RB_2.xlsx
109	main_safe	True	0.0	646	0	4.0	4.0	1.0	1	right	2.0	1.0	1.0	1	0.08	blockFiles/set_21/main_safe/rightBlue\GB_RB_2.xlsx
110	main_safe	True	0.0	646	0	4.0	4.0	1.0	1	right	2.0	1.0	1.0	1	0.08	blockFiles/set_21/main_safe/rightBlue\GB_RB_2.xlsx
111	main_safe	True	0.0	646	0	4.0	4.0	1.0	1	right	2.0	0.0	1.0	1	0.08	blockFiles/set_21/main_safe/rightBlue\GB_RB_2.xlsx
112	main_safe	True	0.0	646	0	4.0	4.0	1.0	1	right	2.0	1.0	1.0	1	0.08	blockFiles/set_21/main_safe/rightBlue\GB_RB_2.xlsx
113	main_safe	True	0.0	646	0	4.0	4.0	1.0	1	right	2.0	1.0	1.0	1	0.08	blockFiles/set_21/main_safe/rightBlue\GB_RB_2.xlsx
114	main_safe	True	0.0	646	0	4.0	4.0	0.0	1	left	1.0	1.0	1.0	0	-0.08	blockFiles/set_21/main_safe/rightBlue\GB_RB_2.xlsx
115	main_safe	True	0.0	646	0	4.0	4.0	0.0	1	left	1.0	1.0	1.0	0	-0.08	blockFiles/set_21/main_safe/rightBlue\GB_RB_2.xlsx
116	main_safe	True	0.0	646	0	4.0	4.0	0.0	1	left	1.0	1.0	1.0	0	-0.08	blockFiles/set_21/main_safe/rightBlue\GB_RB_2.xlsx
117	main_safe	True	0.0	646	0	4.0	4.0	0.0	1	left	1.0	1.0	1.0	0	-0.08	blockFiles/set_21/main_safe/rightBlue\GB_RB_2.xlsx
118	main_safe	True	0.0	646	0	4.0	4.0	1.0	1	right	2.0	1.0	1.0	1	0.08	blockFiles/set_21/main_safe/rightBlue\GB_RB_2.xlsx
119	main_safe	True	0.0	646	0	4.0	4.0	0.0	1	left	1.0	1.0	1.0	0	-0.08	blockFiles/set_21/main_safe/rightBlue\GB_RB_2.xlsx
120	main_safe	True	0.0	646	0	4.0	4.0	0.0	1	left	1.0	0.0	1.0	0	-0.08	blockFiles/set_21/main_safe/rightBlue\GB_RB_2.xlsx
121	main_safe	True	0.0	646	0	4.0	4.0	1.0	1	right	2.0	1.0	1.0	1	0.08	blockFiles/set_21/main_safe/rightBlue\GB_RB_2.xlsx
122	main_safe	True	0.0	646	0	4.0	4.0	1.0	1	right	2.0	1.0	1.0	1	0.08	blockFiles/set_21/main_safe/rightBlue\GB_RB_2.xlsx
123	main_safe	True	0.0	646	0	4.0	4.0	0.0	1	left	1.0	0.0	1.0	0	-0.08	blockFiles/set_21/main_safe/rightBlue\GB_RB_2.xlsx
124	main_safe	True	0.0	646	0	4.0	4.0	1.0	1	right	2.0	1.0	1.0	1	0.08	blockFiles/set_21/main_safe/rightBlue\GB_RB_2.xlsx
125	main_safe	True	0.0	646	0	5.0	5.0	0.0	1	left	2.0	1.0	1.0	0	-0.08	blockFiles/set_21/main_safe/leftBlue\GB_LB_2.xlsx
126	main_safe	True	0.0	646	0	5.0	5.0	0.0	1	left	2.0	1.0	1.0	0	-0.08	blockFiles/set_21/main_safe/leftBlue\GB_LB_2.xlsx
127	main_safe	True	0.0	646	0	5.0	5.0	0.0	1	left	2.0	1.0	1.0	0	-0.08	blockFiles/set_21/main_safe/leftBlue\GB_LB_2.xlsx
128	main_safe	True	0.0	646	0	5.0	5.0	0.0	1	left	2.0	1.0	1.0	0	-0.08	blockFiles/set_21/main_safe/leftBlue\GB_LB_2.xlsx
129	main_safe	True	0.0	646	0	5.0	5.0	0.0	1	left	2.0	1.0	1.0	0	-0.08	blockFiles/set_21/main_safe/leftBlue\GB_LB_2.xlsx
130	main_safe	True	0.0	646	0	5.0	5.0	0.0	1	left	2.0	1.0	1.0	0	-0.08	blockFiles/set_21/main_safe/leftBlue\GB_LB_2.xlsx
131	main_safe	True	0.0	646	0	5.0	5.0	1.0	1	right	1.0	0.0	1.0	1	0.08	blockFiles/set_21/main_safe/leftBlue\GB_LB_2.xlsx
132	main_safe	True	0.0	646	0	5.0	5.0	0.0	1	left	2.0	1.0	1.0	0	-0.08	blockFiles/set_21/main_safe/leftBlue\GB_LB_2.xlsx
133	main_safe	True	0.0	646	0	5.0	5.0	1.0	1	right	1.0	0.0	1.0	1	0.08	blockFiles/set_21/main_safe/leftBlue\GB_LB_2.xlsx
134	main_safe	True	0.0	646	0	5.0	5.0	1.0	1	right	1.0	0.0	1.0	1	0.08	blockFiles/set_21/main_safe/leftBlue\GB_LB_2.xlsx
135	main_safe	True	0.0	646	0	5.0	5.0	0.0	1	left	2.0	1.0	1.0	0	-0.08	blockFiles/set_21/main_safe/leftBlue\GB_LB_2.xlsx
136	main_safe	True	0.0	646	0	5.0	5.0	0.0	1	left	2.0	1.0	1.0	0	-0.08	blockFiles/set_21/main_safe/leftBlue\GB_LB_2.xlsx
137	main_safe	True	0.0	646	0	5.0	5.0	0.0	1	left	2.0	1.0	1.0	0	-0.08	blockFiles/set_21/main_safe/leftBlue\GB_LB_2.xlsx
138	main_safe	True	0.0	646	0	5.0	5.0	1.0	1	right	1.0	1.0	1.0	1	0.08	blockFiles/set_21/main_safe/leftBlue\GB_LB_2.xlsx
139	main_safe	True	0.0	646	0	5.0	5.0	1.0	1	right	1.0	0.0	1.0	1	0.08	blockFiles/set_21/main_safe/leftBlue\GB_LB_2.xlsx
140	main_safe	True	0.0	646	0	5.0	5.0	0.0	1	left	2.0	1.0	1.0	0	-0.08	blockFiles/set_21/main_safe/leftBlue\GB_LB_2.xlsx
141	main_safe	True	0.0	646	0	5.0	5.0	1.0	1	right	1.0	0.0	1.0	1	0.08	blockFiles/set_21/main_safe/leftBlue\GB_LB_2.xlsx
142	main_safe	True	0.0	646	0	5.0	5.0	0.0	1	left	2.0	1.0	1.0	0	-0.08	blockFiles/set_21/main_safe/leftBlue\GB_LB_2.xlsx
143	main_safe	True	0.0	646	0	5.0	5.0	1.0	1	right	1.0	1.0	1.0	1	0.08	blockFiles/set_21/main_safe/leftBlue\GB_LB_2.xlsx
144	main_safe	True	0.0	646	0	5.0	5.0	0.0	1	left	2.0	1.0	1.0	0	-0.08	blockFiles/set_21/main_safe/leftBlue\GB_LB_2.xlsx
145	main_safe	True	0.0	646	0	5.0	5.0	0.0	1	left	2.0	1.0	1.0	0	-0.08	blockFiles/set_21/main_safe/leftBlue\GB_LB_2.xlsx
146	main_safe	True	0.0	646	0	5.0	5.0	1.0	1	right	1.0	1.0	1.0	1	0.08	blockFiles/set_21/main_safe/leftBlue\GB_LB_2.xlsx
147	main_safe	True	0.0	646	0	5.0	5.0	1.0	1	right	1.0	1.0	1.0	1	0.08	blockFiles/set_21/main_safe/leftBlue\GB_LB_2.xlsx
148	main_safe	True	0.0	646	0	5.0	5.0	1.0	1	right	1.0	1.0	1.0	1	0.08	blockFiles/set_21/main_safe/leftBlue\GB_LB_2.xlsx
149	main_safe	True	0.0	646	0	5.0	5.0	1.0	1	right	1.0	1.0	1.0	1	0.08	blockFiles/set_21/main_safe/leftBlue\GB_LB_2.xlsx
150	patches	True	n/a	646	0	n/a	n/a	1.0	1	right	n/a	n/a	n/a	1	0.0321848089807	blockFiles/set_21/main_PD/GB_runPatches1.xlsx
151	patches	True	n/a	646	0	n/a	n/a	1.0	1	right	n/a	n/a	n/a	1	0.0279623189941	blockFiles/set_21/main_PD/GB_runPatches1.xlsx
152	patches	True	n/a	646	0	n/a	n/a	1.0	1	right	n/a	n/a	n/a	1	0.011614372879299999	blockFiles/set_21/main_PD/GB_runPatches1.xlsx
153	patches	True	n/a	646	0	n/a	n/a	0.0	1	left	n/a	n/a	n/a	0	-0.00858774645254	blockFiles/set_21/main_PD/GB_runPatches1.xlsx
154	patches	True	n/a	646	0	n/a	n/a	0.0	1	left	n/a	n/a	n/a	0	-0.044029529131899996	blockFiles/set_21/main_PD/GB_runPatches1.xlsx
155	patches	True	n/a	646	0	n/a	n/a	0.0	1	left	n/a	n/a	n/a	0	-0.049383525233699994	blockFiles/set_21/main_PD/GB_runPatches1.xlsx
156	patches	True	n/a	646	0	n/a	n/a	1.0	1	right	n/a	n/a	n/a	1	0.069224556312	blockFiles/set_21/main_PD/GB_runPatches1.xlsx
157	patches	True	n/a	646	0	n/a	n/a	0.0	1	left	n/a	n/a	n/a	0	-0.06623477207499999	blockFiles/set_21/main_PD/GB_runPatches1.xlsx
158	patches	True	n/a	646	0	n/a	n/a	0.0	1	left	n/a	n/a	n/a	0	-0.051171916630100005	blockFiles/set_21/main_PD/GB_runPatches1.xlsx
159	patches	True	n/a	646	0	n/a	n/a	0.0	0	left	n/a	n/a	n/a	1	0.00423037728295	blockFiles/set_21/main_PD/GB_runPatches1.xlsx
160	patches	True	n/a	646	0	n/a	n/a	0.0	1	left	n/a	n/a	n/a	0	-0.049558786060699994	blockFiles/set_21/main_PD/GB_runPatches1.xlsx
161	patches	True	n/a	646	0	n/a	n/a	0.0	0	left	n/a	n/a	n/a	1	0.0234851488099	blockFiles/set_21/main_PD/GB_runPatches1.xlsx
162	patches	True	n/a	646	0	n/a	n/a	0.0	0	left	n/a	n/a	n/a	1	0.0035246886313000003	blockFiles/set_21/main_PD/GB_runPatches1.xlsx
163	patches	True	n/a	646	0	n/a	n/a	0.0	1	left	n/a	n/a	n/a	0	-0.037060517855	blockFiles/set_21/main_PD/GB_runPatches1.xlsx
164	patches	True	n/a	646	0	n/a	n/a	0.0	1	left	n/a	n/a	n/a	0	-0.0527698007412	blockFiles/set_21/main_PD/GB_runPatches1.xlsx
165	patches	True	n/a	646	0	n/a	n/a	1.0	1	right	n/a	n/a	n/a	1	0.0244453515112	blockFiles/set_21/main_PD/GB_runPatches1.xlsx
166	patches	True	n/a	646	0	n/a	n/a	1.0	1	right	n/a	n/a	n/a	1	0.07805587921289998	blockFiles/set_21/main_PD/GB_runPatches1.xlsx
167	patches	True	n/a	646	0	n/a	n/a	1.0	1	right	n/a	n/a	n/a	1	0.0314847031422	blockFiles/set_21/main_PD/GB_runPatches1.xlsx
168	patches	True	n/a	646	0	n/a	n/a	0.0	1	left	n/a	n/a	n/a	0	-0.0336949441582	blockFiles/set_21/main_PD/GB_runPatches1.xlsx
169	patches	True	n/a	646	0	n/a	n/a	1.0	1	right	n/a	n/a	n/a	1	0.0637597606704	blockFiles/set_21/main_PD/GB_runPatches1.xlsx
170	patches	True	n/a	646	0	n/a	n/a	0.0	1	left	n/a	n/a	n/a	0	-0.0738686255552	blockFiles/set_21/main_PD/GB_runPatches1.xlsx
171	patches	True	n/a	646	0	n/a	n/a	0.0	1	left	n/a	n/a	n/a	0	-0.035745640657800004	blockFiles/set_21/main_PD/GB_runPatches1.xlsx
172	patches	True	n/a	646	0	n/a	n/a	0.0	1	left	n/a	n/a	n/a	0	-0.00510240381584	blockFiles/set_21/main_PD/GB_runPatches1.xlsx
173	patches	True	n/a	646	0	n/a	n/a	n/a	0	None	n/a	n/a	n/a	1	0.0169763496332	blockFiles/set_21/main_PD/GB_runPatches1.xlsx
174	patches	True	n/a	646	0	n/a	n/a	1.0	1	right	n/a	n/a	n/a	1	0.042597022112499994	blockFiles/set_21/main_PD/GB_runPatches1.xlsx
175	patches	True	n/a	646	0	n/a	n/a	1.0	1	right	n/a	n/a	n/a	1	0.021249079145499998	blockFiles/set_21/main_PD/GB_runPatches1.xlsx
176	patches	True	n/a	646	0	n/a	n/a	1.0	1	right	n/a	n/a	n/a	1	0.0517546788976	blockFiles/set_21/main_PD/GB_runPatches1.xlsx
177	patches	True	n/a	646	0	n/a	n/a	0.0	1	left	n/a	n/a	n/a	0	-0.0673648843169	blockFiles/set_21/main_PD/GB_runPatches1.xlsx
178	patches	True	n/a	646	0	n/a	n/a	1.0	1	right	n/a	n/a	n/a	1	0.059279135353899996	blockFiles/set_21/main_PD/GB_runPatches1.xlsx
179	patches	True	n/a	646	0	n/a	n/a	1.0	1	right	n/a	n/a	n/a	1	0.0630273330212	blockFiles/set_21/main_PD/GB_runPatches1.xlsx
180	patches	True	n/a	646	0	n/a	n/a	1.0	1	right	n/a	n/a	n/a	1	0.059218406174300006	blockFiles/set_21/main_PD/GB_runPatches1.xlsx
181	patches	True	n/a	646	0	n/a	n/a	1.0	1	right	n/a	n/a	n/a	1	0.027228207196999997	blockFiles/set_21/main_PD/GB_runPatches1.xlsx
182	patches	True	n/a	646	0	n/a	n/a	0.0	1	left	n/a	n/a	n/a	0	-0.030429583713400002	blockFiles/set_21/main_PD/GB_runPatches1.xlsx
183	patches	True	n/a	646	0	n/a	n/a	1.0	1	right	n/a	n/a	n/a	1	0.0403914330341	blockFiles/set_21/main_PD/GB_runPatches1.xlsx
184	patches	True	n/a	646	0	n/a	n/a	1.0	1	right	n/a	n/a	n/a	1	0.028106239885100002	blockFiles/set_21/main_PD/GB_runPatches1.xlsx
185	patches	True	n/a	646	0	n/a	n/a	0.0	1	left	n/a	n/a	n/a	0	-0.057517106384	blockFiles/set_21/main_PD/GB_runPatches1.xlsx
186	patches	True	n/a	646	0	n/a	n/a	0.0	1	left	n/a	n/a	n/a	0	-0.061758609414099996	blockFiles/set_21/main_PD/GB_runPatches1.xlsx
187	patches	True	n/a	646	0	n/a	n/a	1.0	1	right	n/a	n/a	n/a	1	0.027260889802099997	blockFiles/set_21/main_PD/GB_runPatches1.xlsx
188	patches	True	n/a	646	0	n/a	n/a	0.0	1	left	n/a	n/a	n/a	0	-0.0138896317966	blockFiles/set_21/main_PD/GB_runPatches1.xlsx
189	patches	True	n/a	646	0	n/a	n/a	1.0	1	right	n/a	n/a	n/a	1	0.050780567824800005	blockFiles/set_21/main_PD/GB_runPatches1.xlsx
190	patches	True	n/a	646	0	n/a	n/a	0.0	1	left	n/a	n/a	n/a	0	-0.0798552441224	blockFiles/set_21/main_PD/GB_runPatches1.xlsx
191	patches	True	n/a	646	0	n/a	n/a	1.0	1	right	n/a	n/a	n/a	1	0.033568556364599995	blockFiles/set_21/main_PD/GB_runPatches1.xlsx
192	patches	True	n/a	646	0	n/a	n/a	1.0	1	right	n/a	n/a	n/a	1	0.033918121382599996	blockFiles/set_21/main_PD/GB_runPatches1.xlsx
193	patches	True	n/a	646	0	n/a	n/a	1.0	0	right	n/a	n/a	n/a	0	-0.0014280015789000001	blockFiles/set_21/main_PD/GB_runPatches1.xlsx
194	patches	True	n/a	646	0	n/a	n/a	0.0	1	left	n/a	n/a	n/a	0	-0.0741131408699	blockFiles/set_21/main_PD/GB_runPatches1.xlsx
195	patches	True	n/a	646	0	n/a	n/a	1.0	1	right	n/a	n/a	n/a	1	0.0333636061288	blockFiles/set_21/main_PD/GB_runPatches1.xlsx
196	patches	True	n/a	646	0	n/a	n/a	1.0	0	right	n/a	n/a	n/a	0	-0.0012688031978900002	blockFiles/set_21/main_PD/GB_runPatches1.xlsx
197	patches	True	n/a	646	0	n/a	n/a	1.0	1	right	n/a	n/a	n/a	1	0.0725377391838	blockFiles/set_21/main_PD/GB_runPatches1.xlsx
198	patches	True	n/a	646	0	n/a	n/a	0.0	1	left	n/a	n/a	n/a	0	-0.0177633544244	blockFiles/set_21/main_PD/GB_runPatches1.xlsx
199	patches	True	n/a	646	0	n/a	n/a	1.0	1	right	n/a	n/a	n/a	1	0.0550260166824	blockFiles/set_21/main_PD/GB_runPatches1.xlsx
200	patches	True	n/a	646	0	n/a	n/a	0.0	1	left	n/a	n/a	n/a	0	-0.0290205240622	blockFiles/set_21/main_PD/GB_runPatches1.xlsx
201	patches	True	n/a	646	0	n/a	n/a	1.0	1	right	n/a	n/a	n/a	1	0.011132274121000001	blockFiles/set_21/main_PD/GB_runPatches1.xlsx
202	patches	True	n/a	646	0	n/a	n/a	0.0	1	left	n/a	n/a	n/a	0	-0.052122374586800004	blockFiles/set_21/main_PD/GB_runPatches1.xlsx
203	patches	True	n/a	646	0	n/a	n/a	0.0	1	left	n/a	n/a	n/a	0	-0.0582947089896	blockFiles/set_21/main_PD/GB_runPatches1.xlsx
204	patches	True	n/a	646	0	n/a	n/a	0.0	1	left	n/a	n/a	n/a	0	-0.0007033858075739999	blockFiles/set_21/main_PD/GB_runPatches1.xlsx
205	patches	True	n/a	646	0	n/a	n/a	1.0	1	right	n/a	n/a	n/a	1	0.038560379818099996	blockFiles/set_21/main_PD/GB_runPatches1.xlsx
206	patches	True	n/a	646	0	n/a	n/a	0.0	0	left	n/a	n/a	n/a	1	0.021960772480799997	blockFiles/set_21/main_PD/GB_runPatches1.xlsx
207	patches	True	n/a	646	0	n/a	n/a	1.0	1	right	n/a	n/a	n/a	1	0.0596349219419	blockFiles/set_21/main_PD/GB_runPatches1.xlsx
208	patches	True	n/a	646	0	n/a	n/a	0.0	0	left	n/a	n/a	n/a	1	0.011542956382	blockFiles/set_21/main_PD/GB_runPatches1.xlsx
209	patches	True	n/a	646	0	n/a	n/a	0.0	1	left	n/a	n/a	n/a	0	-0.0711963392608	blockFiles/set_21/main_PD/GB_runPatches1.xlsx
210	patches	True	n/a	646	0	n/a	n/a	1.0	1	right	n/a	n/a	n/a	1	0.033666199632	blockFiles/set_21/main_PD/GB_runPatches1.xlsx
211	patches	True	n/a	646	0	n/a	n/a	0.0	1	left	n/a	n/a	n/a	0	-0.0663713673502	blockFiles/set_21/main_PD/GB_runPatches1.xlsx
212	patches	True	n/a	646	0	n/a	n/a	0.0	1	left	n/a	n/a	n/a	0	-0.0139984473214	blockFiles/set_21/main_PD/GB_runPatches1.xlsx
213	patches	True	n/a	646	0	n/a	n/a	0.0	1	left	n/a	n/a	n/a	0	-0.0431232446246	blockFiles/set_21/main_PD/GB_runPatches1.xlsx
214	patches	True	n/a	646	0	n/a	n/a	1.0	1	right	n/a	n/a	n/a	1	0.060455630403000005	blockFiles/set_21/main_PD/GB_runPatches1.xlsx
215	patches	True	n/a	646	0	n/a	n/a	0.0	1	left	n/a	n/a	n/a	0	-0.050924194566900005	blockFiles/set_21/main_PD/GB_runPatches1.xlsx
216	patches	True	n/a	646	0	n/a	n/a	0.0	1	left	n/a	n/a	n/a	0	-0.00334875551984	blockFiles/set_21/main_PD/GB_runPatches1.xlsx
217	patches	True	n/a	646	0	n/a	n/a	0.0	1	left	n/a	n/a	n/a	0	-0.0257089482248	blockFiles/set_21/main_PD/GB_runPatches1.xlsx
218	patches	True	n/a	646	0	n/a	n/a	0.0	1	left	n/a	n/a	n/a	0	-0.052029109932500005	blockFiles/set_21/main_PD/GB_runPatches1.xlsx
219	patches	True	n/a	646	0	n/a	n/a	1.0	1	right	n/a	n/a	n/a	1	0.0376953099854	blockFiles/set_21/main_PD/GB_runPatches1.xlsx
220	patches	True	n/a	646	0	n/a	n/a	0.0	1	left	n/a	n/a	n/a	0	-0.049122142083900006	blockFiles/set_21/main_PD/GB_runPatches1.xlsx
221	patches	True	n/a	646	0	n/a	n/a	0.0	1	left	n/a	n/a	n/a	0	-0.0772399665229	blockFiles/set_21/main_PD/GB_runPatches1.xlsx
222	patches	True	n/a	646	0	n/a	n/a	1.0	1	right	n/a	n/a	n/a	1	0.0476860845089	blockFiles/set_21/main_PD/GB_runPatches1.xlsx
223	patches	True	n/a	646	0	n/a	n/a	0.0	1	left	n/a	n/a	n/a	0	-0.0068927657045400005	blockFiles/set_21/main_PD/GB_runPatches1.xlsx
224	patches	True	n/a	646	0	n/a	n/a	0.0	0	left	n/a	n/a	n/a	1	0.041684887725900004	blockFiles/set_21/main_PD/GB_runPatches1.xlsx
225	patches	True	n/a	646	0	n/a	n/a	0.0	1	left	n/a	n/a	n/a	0	-0.07701168028639999	blockFiles/set_21/main_PD/GB_runPatches1.xlsx
226	patches	True	n/a	646	0	n/a	n/a	0.0	1	left	n/a	n/a	n/a	0	-0.00201106803492	blockFiles/set_21/main_PD/GB_runPatches1.xlsx
227	patches	True	n/a	646	0	n/a	n/a	0.0	1	left	n/a	n/a	n/a	0	-0.0635499685071	blockFiles/set_21/main_PD/GB_runPatches1.xlsx
228	patches	True	n/a	646	0	n/a	n/a	0.0	1	left	n/a	n/a	n/a	0	-0.0359177511558	blockFiles/set_21/main_PD/GB_runPatches1.xlsx
229	patches	True	n/a	646	0	n/a	n/a	0.0	0	left	n/a	n/a	n/a	1	0.0147072013468	blockFiles/set_21/main_PD/GB_runPatches1.xlsx
230	patches	True	n/a	646	0	n/a	n/a	0.0	1	left	n/a	n/a	n/a	0	-0.0351745830663	blockFiles/set_21/main_PD/GB_runPatches1.xlsx
231	patches	True	n/a	646	0	n/a	n/a	0.0	1	left	n/a	n/a	n/a	0	-0.0756237689219	blockFiles/set_21/main_PD/GB_runPatches1.xlsx
232	patches	True	n/a	646	0	n/a	n/a	0.0	1	left	n/a	n/a	n/a	0	-0.05546427780759999	blockFiles/set_21/main_PD/GB_runPatches1.xlsx
233	patches	True	n/a	646	0	n/a	n/a	0.0	0	left	n/a	n/a	n/a	1	0.037230618596099996	blockFiles/set_21/main_PD/GB_runPatches1.xlsx
234	patches	True	n/a	646	0	n/a	n/a	0.0	1	left	n/a	n/a	n/a	0	-0.0108577551134	blockFiles/set_21/main_PD/GB_runPatches1.xlsx
235	patches	True	n/a	646	0	n/a	n/a	1.0	1	right	n/a	n/a	n/a	1	0.0120627653971	blockFiles/set_21/main_PD/GB_runPatches1.xlsx
236	patches	True	n/a	646	0	n/a	n/a	1.0	0	right	n/a	n/a	n/a	0	-0.00144125457853	blockFiles/set_21/main_PD/GB_runPatches1.xlsx
237	patches	True	n/a	646	0	n/a	n/a	0.0	1	left	n/a	n/a	n/a	0	-0.059310318827599996	blockFiles/set_21/main_PD/GB_runPatches1.xlsx
238	patches	True	n/a	646	0	n/a	n/a	1.0	1	right	n/a	n/a	n/a	1	0.057996142711500005	blockFiles/set_21/main_PD/GB_runPatches1.xlsx
239	patches	True	n/a	646	0	n/a	n/a	1.0	1	right	n/a	n/a	n/a	1	0.05745274381709999	blockFiles/set_21/main_PD/GB_runPatches1.xlsx
240	patches	True	n/a	646	0	n/a	n/a	1.0	1	right	n/a	n/a	n/a	1	0.034570136573199996	blockFiles/set_21/main_PD/GB_runPatches1.xlsx
241	patches	True	n/a	646	0	n/a	n/a	1.0	1	right	n/a	n/a	n/a	1	0.055442369785199994	blockFiles/set_21/main_PD/GB_runPatches1.xlsx
242	patches	True	n/a	646	0	n/a	n/a	1.0	1	right	n/a	n/a	n/a	1	0.0128566334397	blockFiles/set_21/main_PD/GB_runPatches1.xlsx
243	patches	True	n/a	646	0	n/a	n/a	0.0	1	left	n/a	n/a	n/a	0	-0.0463417447358	blockFiles/set_21/main_PD/GB_runPatches1.xlsx
244	patches	True	n/a	646	0	n/a	n/a	1.0	1	right	n/a	n/a	n/a	1	0.050212787631900006	blockFiles/set_21/main_PD/GB_runPatches1.xlsx
245	patches	True	n/a	646	0	n/a	n/a	0.0	1	left	n/a	n/a	n/a	0	-0.0361972727254	blockFiles/set_21/main_PD/GB_runPatches1.xlsx
246	patches	True	n/a	646	0	n/a	n/a	0.0	1	left	n/a	n/a	n/a	0	-0.0451606539078	blockFiles/set_21/main_PD/GB_runPatches1.xlsx
247	patches	True	n/a	646	0	n/a	n/a	1.0	1	right	n/a	n/a	n/a	1	0.057545426562400005	blockFiles/set_21/main_PD/GB_runPatches1.xlsx
248	patches	True	n/a	646	0	n/a	n/a	1.0	1	right	n/a	n/a	n/a	1	0.0745628230833	blockFiles/set_21/main_PD/GB_runPatches1.xlsx
249	patches	True	n/a	646	0	n/a	n/a	1.0	1	right	n/a	n/a	n/a	1	0.038837171141099996	blockFiles/set_21/main_PD/GB_runPatches1.xlsx
250	main_unc	True	1.0	646	0	0.0	0.0	0.0	1	left	n/a	0.0	n/a	0	-0.0517412418127	blockFiles/set_21/main_unc/rightBlue\GB_RB_1.xlsx
251	main_unc	True	0.0	646	0	0.0	0.0	0.0	1	left	2.0	0.0	0.0	0	-0.0792896014825	blockFiles/set_21/main_unc/rightBlue\GB_RB_1.xlsx
252	main_unc	True	0.0	646	0	0.0	0.0	0.0	1	left	1.0	1.0	1.0	0	-0.0180390151031	blockFiles/set_21/main_unc/rightBlue\GB_RB_1.xlsx
253	main_unc	True	0.0	646	0	0.0	0.0	1.0	1	right	2.0	1.0	1.0	1	0.050962280966300004	blockFiles/set_21/main_unc/rightBlue\GB_RB_1.xlsx
254	main_unc	True	0.0	646	0	0.0	0.0	0.0	1	left	1.0	1.0	1.0	0	-0.0541236567497	blockFiles/set_21/main_unc/rightBlue\GB_RB_1.xlsx
255	main_unc	True	0.0	646	0	0.0	0.0	1.0	1	right	2.0	1.0	1.0	1	0.0757803967595	blockFiles/set_21/main_unc/rightBlue\GB_RB_1.xlsx
256	main_unc	True	0.0	646	0	0.0	0.0	0.0	1	left	1.0	1.0	1.0	0	-0.012364556509999998	blockFiles/set_21/main_unc/rightBlue\GB_RB_1.xlsx
257	main_unc	True	0.0	646	0	0.0	0.0	0.0	1	left	1.0	1.0	1.0	0	-0.027009282913099997	blockFiles/set_21/main_unc/rightBlue\GB_RB_1.xlsx
258	main_unc	True	0.0	646	0	0.0	0.0	1.0	1	right	2.0	1.0	1.0	1	0.0595821381174	blockFiles/set_21/main_unc/rightBlue\GB_RB_1.xlsx
259	main_unc	True	0.0	646	0	0.0	0.0	1.0	1	right	2.0	1.0	1.0	1	0.0698708587512	blockFiles/set_21/main_unc/rightBlue\GB_RB_1.xlsx
260	main_unc	True	0.0	646	0	0.0	0.0	1.0	1	right	2.0	1.0	1.0	1	0.0267228615284	blockFiles/set_21/main_unc/rightBlue\GB_RB_1.xlsx
261	main_unc	True	0.0	646	0	0.0	0.0	0.0	1	left	1.0	1.0	1.0	0	-0.0485306006484	blockFiles/set_21/main_unc/rightBlue\GB_RB_1.xlsx
262	main_unc	True	0.0	646	0	0.0	0.0	0.0	1	left	1.0	1.0	1.0	0	-0.0204357645661	blockFiles/set_21/main_unc/rightBlue\GB_RB_1.xlsx
263	main_unc	True	0.0	646	0	0.0	0.0	0.0	1	left	1.0	1.0	1.0	0	-0.045746312215900004	blockFiles/set_21/main_unc/rightBlue\GB_RB_1.xlsx
264	main_unc	True	0.0	646	0	0.0	0.0	0.0	0	left	1.0	1.0	0.0	1	0.0084565031901	blockFiles/set_21/main_unc/rightBlue\GB_RB_1.xlsx
265	main_unc	True	0.0	646	0	0.0	0.0	1.0	1	right	2.0	1.0	1.0	1	0.051641900967800004	blockFiles/set_21/main_unc/rightBlue\GB_RB_1.xlsx
266	main_unc	True	0.0	646	0	0.0	0.0	1.0	1	right	2.0	1.0	1.0	1	0.034429175779199996	blockFiles/set_21/main_unc/rightBlue\GB_RB_1.xlsx
267	main_unc	True	0.0	646	0	0.0	0.0	0.0	0	left	1.0	0.0	0.0	1	0.0136817079782	blockFiles/set_21/main_unc/rightBlue\GB_RB_1.xlsx
268	main_unc	True	0.0	646	0	0.0	0.0	1.0	1	right	2.0	0.0	1.0	1	0.07748556040230001	blockFiles/set_21/main_unc/rightBlue\GB_RB_1.xlsx
269	main_unc	True	0.0	646	0	0.0	0.0	1.0	1	right	2.0	1.0	1.0	1	0.0025570221990300003	blockFiles/set_21/main_unc/rightBlue\GB_RB_1.xlsx
270	main_unc	True	0.0	646	0	0.0	0.0	0.0	1	left	1.0	0.0	1.0	0	-0.0071386212855600005	blockFiles/set_21/main_unc/rightBlue\GB_RB_1.xlsx
271	main_unc	True	0.0	646	0	0.0	0.0	1.0	1	right	2.0	1.0	1.0	1	0.069819404278	blockFiles/set_21/main_unc/rightBlue\GB_RB_1.xlsx
272	main_unc	True	0.0	646	0	0.0	0.0	0.0	1	left	1.0	1.0	1.0	0	-0.06665565617380001	blockFiles/set_21/main_unc/rightBlue\GB_RB_1.xlsx
273	main_unc	True	0.0	646	0	0.0	0.0	1.0	1	right	2.0	1.0	1.0	1	0.00350583890453	blockFiles/set_21/main_unc/rightBlue\GB_RB_1.xlsx
274	main_unc	True	0.0	646	0	0.0	0.0	0.0	1	left	1.0	1.0	1.0	0	-0.0314051956497	blockFiles/set_21/main_unc/rightBlue\GB_RB_1.xlsx
275	main_unc	True	0.0	646	0	0.0	0.0	1.0	0	right	1.0	1.0	1.0	0	-0.0517412418127	blockFiles/set_21/main_unc/rightBlue\GB_RB_1.xlsx
276	main_unc	True	0.0	646	0	1.0	1.0	1.0	1	right	1.0	1.0	1.0	1	0.00112771242857	blockFiles/set_21/main_unc/leftBlue\GB_LB_5.xlsx
277	main_unc	True	0.0	646	0	1.0	1.0	1.0	0	right	1.0	1.0	0.0	0	-0.011056121029	blockFiles/set_21/main_unc/leftBlue\GB_LB_5.xlsx
278	main_unc	True	0.0	646	0	1.0	1.0	1.0	1	right	1.0	1.0	1.0	1	0.048436058946000005	blockFiles/set_21/main_unc/leftBlue\GB_LB_5.xlsx
279	main_unc	True	0.0	646	0	1.0	1.0	0.0	1	left	2.0	1.0	1.0	0	-0.0352818955854	blockFiles/set_21/main_unc/leftBlue\GB_LB_5.xlsx
280	main_unc	True	0.0	646	0	1.0	1.0	1.0	1	right	1.0	1.0	1.0	1	0.027939266748700002	blockFiles/set_21/main_unc/leftBlue\GB_LB_5.xlsx
281	main_unc	True	0.0	646	0	1.0	1.0	0.0	1	left	2.0	1.0	1.0	0	-0.056995511446099996	blockFiles/set_21/main_unc/leftBlue\GB_LB_5.xlsx
282	main_unc	True	0.0	646	0	1.0	1.0	1.0	1	right	1.0	1.0	1.0	1	0.0561647422798	blockFiles/set_21/main_unc/leftBlue\GB_LB_5.xlsx
283	main_unc	True	0.0	646	0	1.0	1.0	1.0	1	right	1.0	1.0	1.0	1	0.025528940446700003	blockFiles/set_21/main_unc/leftBlue\GB_LB_5.xlsx
284	main_unc	True	0.0	646	0	1.0	1.0	1.0	1	right	1.0	1.0	1.0	1	0.0227322679758	blockFiles/set_21/main_unc/leftBlue\GB_LB_5.xlsx
285	main_unc	True	0.0	646	0	1.0	1.0	1.0	1	right	1.0	0.0	1.0	1	0.0661313961819	blockFiles/set_21/main_unc/leftBlue\GB_LB_5.xlsx
286	main_unc	True	0.0	646	0	1.0	1.0	1.0	1	right	1.0	0.0	1.0	1	0.0574352287129	blockFiles/set_21/main_unc/leftBlue\GB_LB_5.xlsx
287	main_unc	True	0.0	646	0	1.0	1.0	1.0	1	right	1.0	1.0	1.0	1	0.00236331176013	blockFiles/set_21/main_unc/leftBlue\GB_LB_5.xlsx
288	main_unc	True	0.0	646	0	1.0	1.0	0.0	1	left	2.0	1.0	1.0	0	-0.05220432279630001	blockFiles/set_21/main_unc/leftBlue\GB_LB_5.xlsx
289	main_unc	True	0.0	646	0	1.0	1.0	1.0	1	right	1.0	1.0	1.0	1	0.0719523083046	blockFiles/set_21/main_unc/leftBlue\GB_LB_5.xlsx
290	main_unc	True	0.0	646	0	1.0	1.0	0.0	1	left	2.0	1.0	1.0	0	-0.0644156323932	blockFiles/set_21/main_unc/leftBlue\GB_LB_5.xlsx
291	main_unc	True	0.0	646	0	1.0	1.0	0.0	1	left	2.0	1.0	1.0	0	-0.0322946808115	blockFiles/set_21/main_unc/leftBlue\GB_LB_5.xlsx
292	main_unc	True	0.0	646	0	1.0	1.0	0.0	1	left	2.0	1.0	1.0	0	-0.0200920841843	blockFiles/set_21/main_unc/leftBlue\GB_LB_5.xlsx
293	main_unc	True	0.0	646	0	1.0	1.0	0.0	1	left	2.0	0.0	1.0	0	-0.012402545139200001	blockFiles/set_21/main_unc/leftBlue\GB_LB_5.xlsx
294	main_unc	True	0.0	646	0	1.0	1.0	1.0	1	right	1.0	1.0	1.0	1	0.027550462894099997	blockFiles/set_21/main_unc/leftBlue\GB_LB_5.xlsx
295	main_unc	True	0.0	646	0	1.0	1.0	1.0	1	right	1.0	1.0	1.0	1	0.043580917343499996	blockFiles/set_21/main_unc/leftBlue\GB_LB_5.xlsx
296	main_unc	True	0.0	646	0	1.0	1.0	1.0	1	right	1.0	0.0	1.0	1	0.047990691661800006	blockFiles/set_21/main_unc/leftBlue\GB_LB_5.xlsx
297	main_unc	True	0.0	646	0	1.0	1.0	1.0	1	right	1.0	1.0	1.0	1	0.0448882984743	blockFiles/set_21/main_unc/leftBlue\GB_LB_5.xlsx
298	main_unc	True	0.0	646	0	1.0	1.0	0.0	1	left	2.0	1.0	1.0	0	-0.049083447232800004	blockFiles/set_21/main_unc/leftBlue\GB_LB_5.xlsx
299	main_unc	True	0.0	646	0	1.0	1.0	0.0	1	left	1.0	0.0	0.0	0	-0.0059942612052	blockFiles/set_21/main_unc/leftBlue\GB_LB_5.xlsx
300	main_unc	True	0.0	646	0	1.0	1.0	0.0	1	left	2.0	0.0	1.0	0	-0.0676902426779	blockFiles/set_21/main_unc/leftBlue\GB_LB_5.xlsx
301	main_unc	True	0.0	646	0	2.0	2.0	1.0	1	right	1.0	1.0	1.0	1	0.0584094032645	blockFiles/set_21/main_unc/leftBlue\GB_LB_3.xlsx
302	main_unc	True	0.0	646	0	2.0	2.0	0.0	1	left	2.0	0.0	1.0	0	-0.0335920832865	blockFiles/set_21/main_unc/leftBlue\GB_LB_3.xlsx
303	main_unc	True	0.0	646	0	2.0	2.0	1.0	1	right	1.0	0.0	1.0	1	0.0716720989719	blockFiles/set_21/main_unc/leftBlue\GB_LB_3.xlsx
304	main_unc	True	0.0	646	0	2.0	2.0	1.0	1	right	1.0	1.0	1.0	1	0.0148223172128	blockFiles/set_21/main_unc/leftBlue\GB_LB_3.xlsx
305	main_unc	True	0.0	646	0	2.0	2.0	0.0	1	left	2.0	1.0	1.0	0	-0.060543665532	blockFiles/set_21/main_unc/leftBlue\GB_LB_3.xlsx
306	main_unc	True	0.0	646	0	2.0	2.0	1.0	1	right	1.0	1.0	1.0	1	0.045351033024500005	blockFiles/set_21/main_unc/leftBlue\GB_LB_3.xlsx
307	main_unc	True	0.0	646	0	2.0	2.0	1.0	1	right	1.0	1.0	1.0	1	0.047644071225100004	blockFiles/set_21/main_unc/leftBlue\GB_LB_3.xlsx
308	main_unc	True	0.0	646	0	2.0	2.0	0.0	1	left	2.0	1.0	1.0	0	-0.014777589216799999	blockFiles/set_21/main_unc/leftBlue\GB_LB_3.xlsx
309	main_unc	True	0.0	646	0	2.0	2.0	0.0	1	left	2.0	1.0	1.0	0	-0.0257924041897	blockFiles/set_21/main_unc/leftBlue\GB_LB_3.xlsx
310	main_unc	True	0.0	646	0	2.0	2.0	0.0	1	left	2.0	1.0	1.0	0	-0.0653792246431	blockFiles/set_21/main_unc/leftBlue\GB_LB_3.xlsx
311	main_unc	True	0.0	646	0	2.0	2.0	0.0	1	left	2.0	0.0	1.0	0	-0.0161217985675	blockFiles/set_21/main_unc/leftBlue\GB_LB_3.xlsx
312	main_unc	True	0.0	646	0	2.0	2.0	0.0	1	left	2.0	1.0	1.0	0	-0.051237360276300006	blockFiles/set_21/main_unc/leftBlue\GB_LB_3.xlsx
313	main_unc	True	0.0	646	0	2.0	2.0	1.0	1	right	1.0	1.0	1.0	1	0.039579137917599996	blockFiles/set_21/main_unc/leftBlue\GB_LB_3.xlsx
314	main_unc	True	0.0	646	0	2.0	2.0	1.0	1	right	1.0	1.0	1.0	1	0.030117224995	blockFiles/set_21/main_unc/leftBlue\GB_LB_3.xlsx
315	main_unc	True	0.0	646	0	2.0	2.0	0.0	1	left	2.0	1.0	1.0	0	-0.0578815983422	blockFiles/set_21/main_unc/leftBlue\GB_LB_3.xlsx
316	main_unc	True	0.0	646	0	2.0	2.0	0.0	1	left	2.0	1.0	1.0	0	-0.06634845986959999	blockFiles/set_21/main_unc/leftBlue\GB_LB_3.xlsx
317	main_unc	True	0.0	646	0	2.0	2.0	1.0	1	right	1.0	1.0	1.0	1	0.07092422397810001	blockFiles/set_21/main_unc/leftBlue\GB_LB_3.xlsx
318	main_unc	True	0.0	646	0	2.0	2.0	1.0	1	right	1.0	1.0	1.0	1	0.054622033797199994	blockFiles/set_21/main_unc/leftBlue\GB_LB_3.xlsx
319	main_unc	True	0.0	646	0	2.0	2.0	1.0	1	right	1.0	1.0	1.0	1	0.0216035628878	blockFiles/set_21/main_unc/leftBlue\GB_LB_3.xlsx
320	main_unc	True	0.0	646	0	2.0	2.0	0.0	1	left	2.0	1.0	1.0	0	-0.0208390069567	blockFiles/set_21/main_unc/leftBlue\GB_LB_3.xlsx
321	main_unc	True	0.0	646	0	2.0	2.0	1.0	1	right	1.0	1.0	1.0	1	0.060635010004000005	blockFiles/set_21/main_unc/leftBlue\GB_LB_3.xlsx
322	main_unc	True	0.0	646	0	2.0	2.0	1.0	1	right	1.0	0.0	1.0	1	0.034014284275500004	blockFiles/set_21/main_unc/leftBlue\GB_LB_3.xlsx
323	main_unc	True	0.0	646	0	2.0	2.0	0.0	1	left	2.0	1.0	1.0	0	-0.05068540373819999	blockFiles/set_21/main_unc/leftBlue\GB_LB_3.xlsx
324	main_unc	True	0.0	646	0	2.0	2.0	0.0	1	left	2.0	0.0	1.0	0	-0.0162561964989	blockFiles/set_21/main_unc/leftBlue\GB_LB_3.xlsx
325	main_unc	True	0.0	646	0	2.0	2.0	1.0	0	right	1.0	0.0	0.0	0	-0.00130732154474	blockFiles/set_21/main_unc/leftBlue\GB_LB_3.xlsx
326	main_unc	True	0.0	646	0	3.0	3.0	0.0	1	left	1.0	1.0	1.0	0	-0.0541381472349	blockFiles/set_21/main_unc/rightBlue\GB_RB_2.xlsx
327	main_unc	True	0.0	646	0	3.0	3.0	1.0	0	right	2.0	0.0	0.0	0	-0.0091650008969	blockFiles/set_21/main_unc/rightBlue\GB_RB_2.xlsx
328	main_unc	True	0.0	646	0	3.0	3.0	1.0	1	right	2.0	1.0	1.0	1	0.0127641218901	blockFiles/set_21/main_unc/rightBlue\GB_RB_2.xlsx
329	main_unc	True	0.0	646	0	3.0	3.0	1.0	1	right	2.0	1.0	1.0	1	0.0678813159652	blockFiles/set_21/main_unc/rightBlue\GB_RB_2.xlsx
330	main_unc	True	0.0	646	0	3.0	3.0	1.0	1	right	2.0	1.0	1.0	1	0.026766212973700004	blockFiles/set_21/main_unc/rightBlue\GB_RB_2.xlsx
331	main_unc	True	0.0	646	0	3.0	3.0	0.0	1	left	1.0	0.0	1.0	0	-0.0551897582226	blockFiles/set_21/main_unc/rightBlue\GB_RB_2.xlsx
332	main_unc	True	0.0	646	0	3.0	3.0	0.0	1	left	1.0	1.0	1.0	0	-0.0660271836258	blockFiles/set_21/main_unc/rightBlue\GB_RB_2.xlsx
333	main_unc	True	0.0	646	0	3.0	3.0	1.0	1	right	2.0	1.0	1.0	1	0.0168464083225	blockFiles/set_21/main_unc/rightBlue\GB_RB_2.xlsx
334	main_unc	True	0.0	646	0	3.0	3.0	0.0	1	left	1.0	1.0	1.0	0	-0.0566165958531	blockFiles/set_21/main_unc/rightBlue\GB_RB_2.xlsx
335	main_unc	True	0.0	646	0	3.0	3.0	0.0	0	left	1.0	1.0	0.0	1	0.0106130819768	blockFiles/set_21/main_unc/rightBlue\GB_RB_2.xlsx
336	main_unc	True	0.0	646	0	3.0	3.0	1.0	0	right	2.0	0.0	0.0	0	-0.011651370246	blockFiles/set_21/main_unc/rightBlue\GB_RB_2.xlsx
337	main_unc	True	0.0	646	0	3.0	3.0	1.0	0	right	2.0	1.0	0.0	0	-0.042393288482	blockFiles/set_21/main_unc/rightBlue\GB_RB_2.xlsx
338	main_unc	True	0.0	646	0	3.0	3.0	1.0	1	right	2.0	1.0	1.0	1	0.018217986281999998	blockFiles/set_21/main_unc/rightBlue\GB_RB_2.xlsx
339	main_unc	True	0.0	646	0	3.0	3.0	1.0	1	right	2.0	1.0	1.0	1	0.075629014615	blockFiles/set_21/main_unc/rightBlue\GB_RB_2.xlsx
340	main_unc	True	0.0	646	0	3.0	3.0	1.0	1	right	2.0	1.0	1.0	1	0.059875538554	blockFiles/set_21/main_unc/rightBlue\GB_RB_2.xlsx
341	main_unc	True	0.0	646	0	3.0	3.0	0.0	1	left	1.0	1.0	1.0	0	-0.0420793973841	blockFiles/set_21/main_unc/rightBlue\GB_RB_2.xlsx
342	main_unc	True	0.0	646	0	3.0	3.0	1.0	0	right	2.0	1.0	0.0	0	-0.022465320024599996	blockFiles/set_21/main_unc/rightBlue\GB_RB_2.xlsx
343	main_unc	True	0.0	646	0	3.0	3.0	0.0	1	left	1.0	0.0	1.0	0	-0.072380764205	blockFiles/set_21/main_unc/rightBlue\GB_RB_2.xlsx
344	main_unc	True	0.0	646	0	3.0	3.0	1.0	1	right	2.0	1.0	1.0	1	0.013810050226700002	blockFiles/set_21/main_unc/rightBlue\GB_RB_2.xlsx
345	main_unc	True	0.0	646	0	3.0	3.0	1.0	1	right	2.0	1.0	1.0	1	0.0655266902409	blockFiles/set_21/main_unc/rightBlue\GB_RB_2.xlsx
346	main_unc	True	0.0	646	0	3.0	3.0	0.0	1	left	1.0	1.0	1.0	0	-0.021513927746599996	blockFiles/set_21/main_unc/rightBlue\GB_RB_2.xlsx
347	main_unc	True	0.0	646	0	3.0	3.0	0.0	1	left	1.0	0.0	1.0	0	-0.025855760220400002	blockFiles/set_21/main_unc/rightBlue\GB_RB_2.xlsx
348	main_unc	True	0.0	646	0	3.0	3.0	1.0	0	right	2.0	0.0	0.0	0	-0.00925137577578	blockFiles/set_21/main_unc/rightBlue\GB_RB_2.xlsx
349	main_unc	True	0.0	646	0	3.0	3.0	1.0	1	right	2.0	1.0	1.0	1	0.023580974750200004	blockFiles/set_21/main_unc/rightBlue\GB_RB_2.xlsx
350	main_unc	True	0.0	646	0	3.0	3.0	0.0	1	left	1.0	1.0	1.0	0	-0.048797381036	blockFiles/set_21/main_unc/rightBlue\GB_RB_2.xlsx
351	main_unc	True	0.0	646	0	4.0	4.0	0.0	1	left	1.0	0.0	0.0	0	-0.0545581777394	blockFiles/set_21/main_unc/leftBlue\GB_LB_2.xlsx
352	main_unc	True	0.0	646	0	4.0	4.0	1.0	1	right	1.0	0.0	1.0	1	0.0567044832185	blockFiles/set_21/main_unc/leftBlue\GB_LB_2.xlsx
353	main_unc	True	0.0	646	0	4.0	4.0	1.0	1	right	2.0	0.0	0.0	1	0.007955996096130001	blockFiles/set_21/main_unc/leftBlue\GB_LB_2.xlsx
354	main_unc	True	0.0	646	0	4.0	4.0	0.0	1	left	2.0	1.0	1.0	0	-0.0507070323266	blockFiles/set_21/main_unc/leftBlue\GB_LB_2.xlsx
355	main_unc	True	0.0	646	0	4.0	4.0	1.0	1	right	1.0	1.0	1.0	1	0.015292416438500002	blockFiles/set_21/main_unc/leftBlue\GB_LB_2.xlsx
356	main_unc	True	0.0	646	0	4.0	4.0	0.0	1	left	2.0	1.0	1.0	0	-0.0323245161772	blockFiles/set_21/main_unc/leftBlue\GB_LB_2.xlsx
357	main_unc	True	0.0	646	0	4.0	4.0	1.0	0	right	1.0	0.0	0.0	0	-0.0038018637523100003	blockFiles/set_21/main_unc/leftBlue\GB_LB_2.xlsx
358	main_unc	True	0.0	646	0	4.0	4.0	1.0	1	right	1.0	1.0	1.0	1	0.0654393070191	blockFiles/set_21/main_unc/leftBlue\GB_LB_2.xlsx
359	main_unc	True	0.0	646	0	4.0	4.0	1.0	1	right	1.0	1.0	1.0	1	0.07470921827480001	blockFiles/set_21/main_unc/leftBlue\GB_LB_2.xlsx
360	main_unc	True	0.0	646	0	4.0	4.0	0.0	1	left	2.0	1.0	1.0	0	-0.0511496300995	blockFiles/set_21/main_unc/leftBlue\GB_LB_2.xlsx
361	main_unc	True	1.0	646	0	4.0	4.0	1.0	1	right	n/a	0.0	n/a	1	0.0653750425205	blockFiles/set_21/main_unc/leftBlue\GB_LB_2.xlsx
362	main_unc	True	0.0	646	0	4.0	4.0	1.0	1	right	1.0	1.0	1.0	1	0.0305312183127	blockFiles/set_21/main_unc/leftBlue\GB_LB_2.xlsx
363	main_unc	True	0.0	646	0	4.0	4.0	1.0	1	right	1.0	0.0	1.0	1	0.0268699911237	blockFiles/set_21/main_unc/leftBlue\GB_LB_2.xlsx
364	main_unc	True	0.0	646	0	4.0	4.0	1.0	1	right	1.0	1.0	1.0	1	0.0376868751086	blockFiles/set_21/main_unc/leftBlue\GB_LB_2.xlsx
365	main_unc	True	0.0	646	0	4.0	4.0	1.0	1	right	1.0	0.0	1.0	1	0.016410197969500002	blockFiles/set_21/main_unc/leftBlue\GB_LB_2.xlsx
366	main_unc	True	0.0	646	0	4.0	4.0	1.0	0	right	1.0	0.0	0.0	0	-0.0161466119066	blockFiles/set_21/main_unc/leftBlue\GB_LB_2.xlsx
367	main_unc	True	0.0	646	0	4.0	4.0	0.0	1	left	2.0	1.0	1.0	0	-0.045494742170000005	blockFiles/set_21/main_unc/leftBlue\GB_LB_2.xlsx
368	main_unc	True	0.0	646	0	4.0	4.0	0.0	1	left	2.0	1.0	1.0	0	-0.07865710616110001	blockFiles/set_21/main_unc/leftBlue\GB_LB_2.xlsx
369	main_unc	True	0.0	646	0	4.0	4.0	0.0	1	left	2.0	1.0	1.0	0	-0.07551084132869999	blockFiles/set_21/main_unc/leftBlue\GB_LB_2.xlsx
370	main_unc	True	0.0	646	0	4.0	4.0	1.0	1	right	1.0	0.0	1.0	1	0.0495240975916	blockFiles/set_21/main_unc/leftBlue\GB_LB_2.xlsx
371	main_unc	True	0.0	646	0	4.0	4.0	0.0	1	left	2.0	1.0	1.0	0	-0.0623536507599	blockFiles/set_21/main_unc/leftBlue\GB_LB_2.xlsx
372	main_unc	True	0.0	646	0	4.0	4.0	0.0	1	left	2.0	1.0	1.0	0	-0.00223803516477	blockFiles/set_21/main_unc/leftBlue\GB_LB_2.xlsx
373	main_unc	True	0.0	646	0	4.0	4.0	0.0	1	left	2.0	1.0	1.0	0	-0.033396273609299996	blockFiles/set_21/main_unc/leftBlue\GB_LB_2.xlsx
374	main_unc	True	0.0	646	0	4.0	4.0	0.0	1	left	2.0	0.0	1.0	0	-0.0461448429897	blockFiles/set_21/main_unc/leftBlue\GB_LB_2.xlsx
375	main_unc	True	0.0	646	0	4.0	4.0	1.0	1	right	1.0	0.0	1.0	1	0.0294449366257	blockFiles/set_21/main_unc/leftBlue\GB_LB_2.xlsx
376	main_unc	True	0.0	646	0	4.0	4.0	1.0	1	right	1.0	1.0	1.0	1	0.0653750425205	blockFiles/set_21/main_unc/leftBlue\GB_LB_2.xlsx
377	main_unc	True	0.0	646	0	5.0	5.0	1.0	1	right	1.0	0.0	0.0	1	0.00564915446565	blockFiles/set_21/main_unc/rightBlue\GB_RB_5.xlsx
378	main_unc	True	0.0	646	0	5.0	5.0	1.0	1	right	2.0	0.0	1.0	1	0.029303427394500002	blockFiles/set_21/main_unc/rightBlue\GB_RB_5.xlsx
379	main_unc	True	0.0	646	0	5.0	5.0	1.0	0	right	1.0	1.0	1.0	0	-0.0318148443475	blockFiles/set_21/main_unc/rightBlue\GB_RB_5.xlsx
380	main_unc	True	0.0	646	0	5.0	5.0	0.0	1	left	2.0	0.0	0.0	0	-0.0686874584481	blockFiles/set_21/main_unc/rightBlue\GB_RB_5.xlsx
381	main_unc	True	0.0	646	0	5.0	5.0	0.0	1	left	2.0	0.0	0.0	0	-0.0679915882647	blockFiles/set_21/main_unc/rightBlue\GB_RB_5.xlsx
382	main_unc	True	0.0	646	0	5.0	5.0	1.0	0	right	2.0	0.0	0.0	0	-0.000457490384579	blockFiles/set_21/main_unc/rightBlue\GB_RB_5.xlsx
383	main_unc	True	0.0	646	0	5.0	5.0	0.0	1	left	1.0	1.0	1.0	0	-0.037679650969800006	blockFiles/set_21/main_unc/rightBlue\GB_RB_5.xlsx
384	main_unc	True	0.0	646	0	5.0	5.0	1.0	1	right	2.0	1.0	1.0	1	0.0647700532712	blockFiles/set_21/main_unc/rightBlue\GB_RB_5.xlsx
385	main_unc	True	0.0	646	0	5.0	5.0	1.0	1	right	2.0	1.0	1.0	1	0.06982819367200001	blockFiles/set_21/main_unc/rightBlue\GB_RB_5.xlsx
386	main_unc	True	0.0	646	0	5.0	5.0	1.0	1	right	2.0	1.0	1.0	1	0.006396556459369999	blockFiles/set_21/main_unc/rightBlue\GB_RB_5.xlsx
387	main_unc	True	0.0	646	0	5.0	5.0	0.0	1	left	1.0	1.0	1.0	0	-0.043786549177	blockFiles/set_21/main_unc/rightBlue\GB_RB_5.xlsx
388	main_unc	True	0.0	646	0	5.0	5.0	1.0	1	right	2.0	1.0	1.0	1	0.0450879349001	blockFiles/set_21/main_unc/rightBlue\GB_RB_5.xlsx
389	main_unc	True	0.0	646	0	5.0	5.0	1.0	1	right	2.0	1.0	1.0	1	0.0662635570765	blockFiles/set_21/main_unc/rightBlue\GB_RB_5.xlsx
390	main_unc	True	0.0	646	0	5.0	5.0	0.0	1	left	1.0	1.0	1.0	0	-0.0510032870807	blockFiles/set_21/main_unc/rightBlue\GB_RB_5.xlsx
391	main_unc	True	0.0	646	0	5.0	5.0	0.0	1	left	1.0	1.0	1.0	0	-0.0509195457771	blockFiles/set_21/main_unc/rightBlue\GB_RB_5.xlsx
392	main_unc	True	0.0	646	0	5.0	5.0	0.0	1	left	1.0	1.0	1.0	0	-0.016751949861600002	blockFiles/set_21/main_unc/rightBlue\GB_RB_5.xlsx
393	main_unc	True	0.0	646	0	5.0	5.0	1.0	1	right	2.0	0.0	1.0	1	0.06333424596119999	blockFiles/set_21/main_unc/rightBlue\GB_RB_5.xlsx
394	main_unc	True	0.0	646	0	5.0	5.0	1.0	1	right	2.0	1.0	1.0	1	0.0474937981181	blockFiles/set_21/main_unc/rightBlue\GB_RB_5.xlsx
395	main_unc	True	0.0	646	0	5.0	5.0	0.0	1	left	1.0	1.0	1.0	0	-0.0399823858216	blockFiles/set_21/main_unc/rightBlue\GB_RB_5.xlsx
396	main_unc	True	0.0	646	0	5.0	5.0	0.0	1	left	1.0	1.0	1.0	0	-0.00741093091667	blockFiles/set_21/main_unc/rightBlue\GB_RB_5.xlsx
397	main_unc	True	0.0	646	0	5.0	5.0	0.0	1	left	1.0	1.0	1.0	0	-0.030286535900099998	blockFiles/set_21/main_unc/rightBlue\GB_RB_5.xlsx
398	main_unc	True	0.0	646	0	5.0	5.0	0.0	1	left	1.0	1.0	1.0	0	-0.00878379531205	blockFiles/set_21/main_unc/rightBlue\GB_RB_5.xlsx
399	main_unc	True	0.0	646	0	5.0	5.0	0.0	0	left	1.0	0.0	0.0	1	0.0503289515153	blockFiles/set_21/main_unc/rightBlue\GB_RB_5.xlsx
400	main_unc	True	0.0	646	0	5.0	5.0	1.0	1	right	2.0	1.0	1.0	1	0.042725274898100005	blockFiles/set_21/main_unc/rightBlue\GB_RB_5.xlsx
401	main_unc	True	0.0	646	0	5.0	5.0	1.0	1	right	2.0	0.0	1.0	1	0.0733102371544	blockFiles/set_21/main_unc/rightBlue\GB_RB_5.xlsx
402	main_unc	True	0.0	646	0	6.0	6.0	1.0	1	right	2.0	1.0	1.0	1	0.0237017518654	blockFiles/set_21/main_unc/rightBlue\GB_RB_3.xlsx
403	main_unc	True	0.0	646	0	6.0	6.0	1.0	1	right	2.0	1.0	1.0	1	0.0216429839097	blockFiles/set_21/main_unc/rightBlue\GB_RB_3.xlsx
404	main_unc	True	0.0	646	0	6.0	6.0	1.0	1	right	2.0	0.0	1.0	1	0.0165442700312	blockFiles/set_21/main_unc/rightBlue\GB_RB_3.xlsx
405	main_unc	True	0.0	646	0	6.0	6.0	1.0	1	right	2.0	1.0	1.0	1	0.0504751068167	blockFiles/set_21/main_unc/rightBlue\GB_RB_3.xlsx
406	main_unc	True	0.0	646	0	6.0	6.0	1.0	1	right	2.0	1.0	1.0	1	0.061886318326	blockFiles/set_21/main_unc/rightBlue\GB_RB_3.xlsx
407	main_unc	True	0.0	646	0	6.0	6.0	0.0	1	left	1.0	1.0	1.0	0	-0.0212122496776	blockFiles/set_21/main_unc/rightBlue\GB_RB_3.xlsx
408	main_unc	True	0.0	646	0	6.0	6.0	0.0	1	left	1.0	1.0	1.0	0	-0.0598858473822	blockFiles/set_21/main_unc/rightBlue\GB_RB_3.xlsx
409	main_unc	True	0.0	646	0	6.0	6.0	0.0	1	left	1.0	1.0	1.0	0	-0.00439081376418	blockFiles/set_21/main_unc/rightBlue\GB_RB_3.xlsx
410	main_unc	True	0.0	646	0	6.0	6.0	1.0	1	right	2.0	0.0	1.0	1	0.0485851988755	blockFiles/set_21/main_unc/rightBlue\GB_RB_3.xlsx
411	main_unc	True	0.0	646	0	6.0	6.0	0.0	1	left	1.0	1.0	1.0	0	-0.048784712050099995	blockFiles/set_21/main_unc/rightBlue\GB_RB_3.xlsx
412	main_unc	True	0.0	646	0	6.0	6.0	0.0	1	left	1.0	1.0	1.0	0	-0.06424608148630001	blockFiles/set_21/main_unc/rightBlue\GB_RB_3.xlsx
413	main_unc	True	0.0	646	0	6.0	6.0	0.0	1	left	1.0	0.0	1.0	0	-0.0365106949396	blockFiles/set_21/main_unc/rightBlue\GB_RB_3.xlsx
414	main_unc	True	0.0	646	0	6.0	6.0	0.0	1	left	1.0	1.0	1.0	0	-0.0578392473049	blockFiles/set_21/main_unc/rightBlue\GB_RB_3.xlsx
415	main_unc	True	0.0	646	0	6.0	6.0	0.0	0	left	1.0	0.0	0.0	1	0.000306994579732	blockFiles/set_21/main_unc/rightBlue\GB_RB_3.xlsx
416	main_unc	True	0.0	646	0	6.0	6.0	0.0	1	left	1.0	1.0	1.0	0	-0.047502322029300006	blockFiles/set_21/main_unc/rightBlue\GB_RB_3.xlsx
417	main_unc	True	0.0	646	0	6.0	6.0	0.0	0	left	1.0	1.0	0.0	1	0.00628914957866	blockFiles/set_21/main_unc/rightBlue\GB_RB_3.xlsx
418	main_unc	True	0.0	646	0	6.0	6.0	1.0	1	right	2.0	1.0	1.0	1	0.0734799703956	blockFiles/set_21/main_unc/rightBlue\GB_RB_3.xlsx
419	main_unc	True	0.0	646	0	6.0	6.0	0.0	1	left	1.0	1.0	1.0	0	-0.0440021558851	blockFiles/set_21/main_unc/rightBlue\GB_RB_3.xlsx
420	main_unc	True	0.0	646	0	6.0	6.0	1.0	1	right	2.0	1.0	1.0	1	0.0719790718704	blockFiles/set_21/main_unc/rightBlue\GB_RB_3.xlsx
421	main_unc	True	0.0	646	0	6.0	6.0	1.0	1	right	2.0	1.0	1.0	1	0.028434140496	blockFiles/set_21/main_unc/rightBlue\GB_RB_3.xlsx
422	main_unc	True	0.0	646	0	6.0	6.0	0.0	1	left	1.0	1.0	1.0	0	-0.06729695454239999	blockFiles/set_21/main_unc/rightBlue\GB_RB_3.xlsx
423	main_unc	True	0.0	646	0	6.0	6.0	0.0	1	left	1.0	1.0	1.0	0	-0.0327916699834	blockFiles/set_21/main_unc/rightBlue\GB_RB_3.xlsx
424	main_unc	True	0.0	646	0	6.0	6.0	0.0	1	left	1.0	0.0	1.0	0	-0.0716439736448	blockFiles/set_21/main_unc/rightBlue\GB_RB_3.xlsx
425	main_unc	True	0.0	646	0	6.0	6.0	0.0	0	left	1.0	1.0	0.0	1	0.0102217089757	blockFiles/set_21/main_unc/rightBlue\GB_RB_3.xlsx
426	main_unc	True	0.0	646	0	6.0	6.0	1.0	1	right	2.0	1.0	1.0	1	0.0243304668181	blockFiles/set_21/main_unc/rightBlue\GB_RB_3.xlsx
427	main_unc	True	0.0	646	0	7.0	7.0	0.0	1	left	2.0	0.0	0.0	0	-0.0212713183463	blockFiles/set_21/main_unc/rightBlue\GB_RB_6.xlsx
428	main_unc	True	0.0	646	0	7.0	7.0	1.0	1	right	2.0	0.0	1.0	1	0.030965937916200004	blockFiles/set_21/main_unc/rightBlue\GB_RB_6.xlsx
429	main_unc	True	0.0	646	0	7.0	7.0	0.0	1	left	1.0	1.0	1.0	0	-0.0699491727538	blockFiles/set_21/main_unc/rightBlue\GB_RB_6.xlsx
430	main_unc	True	0.0	646	0	7.0	7.0	1.0	1	right	2.0	1.0	1.0	1	0.057415225598999996	blockFiles/set_21/main_unc/rightBlue\GB_RB_6.xlsx
431	main_unc	True	0.0	646	0	7.0	7.0	1.0	1	right	2.0	1.0	1.0	1	0.0325643934309	blockFiles/set_21/main_unc/rightBlue\GB_RB_6.xlsx
432	main_unc	True	0.0	646	0	7.0	7.0	1.0	1	right	2.0	1.0	1.0	1	0.0746302047372	blockFiles/set_21/main_unc/rightBlue\GB_RB_6.xlsx
433	main_unc	True	0.0	646	0	7.0	7.0	0.0	0	left	1.0	0.0	0.0	1	0.0023296104744099998	blockFiles/set_21/main_unc/rightBlue\GB_RB_6.xlsx
434	main_unc	True	0.0	646	0	7.0	7.0	1.0	1	right	2.0	1.0	1.0	1	0.056454949025099996	blockFiles/set_21/main_unc/rightBlue\GB_RB_6.xlsx
435	main_unc	True	0.0	646	0	7.0	7.0	1.0	0	right	2.0	1.0	0.0	0	-0.004212746564300001	blockFiles/set_21/main_unc/rightBlue\GB_RB_6.xlsx
436	main_unc	True	0.0	646	0	7.0	7.0	0.0	1	left	1.0	1.0	1.0	0	-0.0669122648984	blockFiles/set_21/main_unc/rightBlue\GB_RB_6.xlsx
437	main_unc	True	0.0	646	0	7.0	7.0	0.0	1	left	1.0	1.0	1.0	0	-0.0351651422307	blockFiles/set_21/main_unc/rightBlue\GB_RB_6.xlsx
438	main_unc	True	0.0	646	0	7.0	7.0	0.0	1	left	1.0	1.0	1.0	0	-0.0113781508617	blockFiles/set_21/main_unc/rightBlue\GB_RB_6.xlsx
439	main_unc	True	0.0	646	0	7.0	7.0	0.0	0	left	1.0	1.0	0.0	1	0.0033422298729399997	blockFiles/set_21/main_unc/rightBlue\GB_RB_6.xlsx
440	main_unc	True	0.0	646	0	7.0	7.0	1.0	1	right	2.0	1.0	1.0	1	0.0608307576552	blockFiles/set_21/main_unc/rightBlue\GB_RB_6.xlsx
441	main_unc	True	0.0	646	0	7.0	7.0	1.0	1	right	2.0	1.0	1.0	1	0.0688492766023	blockFiles/set_21/main_unc/rightBlue\GB_RB_6.xlsx
442	main_unc	True	0.0	646	0	7.0	7.0	0.0	1	left	2.0	0.0	0.0	0	-0.0498064427637	blockFiles/set_21/main_unc/rightBlue\GB_RB_6.xlsx
443	main_unc	True	0.0	646	0	7.0	7.0	0.0	1	left	1.0	1.0	1.0	0	-0.0299488788471	blockFiles/set_21/main_unc/rightBlue\GB_RB_6.xlsx
444	main_unc	True	0.0	646	0	7.0	7.0	1.0	1	right	2.0	1.0	1.0	1	0.0635667642392	blockFiles/set_21/main_unc/rightBlue\GB_RB_6.xlsx
445	main_unc	True	0.0	646	0	7.0	7.0	1.0	1	right	2.0	1.0	1.0	1	0.0557200420462	blockFiles/set_21/main_unc/rightBlue\GB_RB_6.xlsx
446	main_unc	True	0.0	646	0	7.0	7.0	0.0	1	left	1.0	1.0	1.0	0	-0.036636385843199996	blockFiles/set_21/main_unc/rightBlue\GB_RB_6.xlsx
447	main_unc	True	0.0	646	0	7.0	7.0	0.0	0	left	1.0	0.0	0.0	1	0.025049120243599995	blockFiles/set_21/main_unc/rightBlue\GB_RB_6.xlsx
448	main_unc	True	0.0	646	0	7.0	7.0	0.0	1	left	1.0	0.0	1.0	0	-0.0570611304417	blockFiles/set_21/main_unc/rightBlue\GB_RB_6.xlsx
449	main_unc	True	0.0	646	0	7.0	7.0	0.0	1	left	1.0	1.0	1.0	0	-0.014626824446000001	blockFiles/set_21/main_unc/rightBlue\GB_RB_6.xlsx
450	main_unc	True	0.0	646	0	7.0	7.0	0.0	1	left	1.0	1.0	1.0	0	-0.0594214360788	blockFiles/set_21/main_unc/rightBlue\GB_RB_6.xlsx
451	main_unc	True	0.0	646	0	7.0	7.0	0.0	1	left	1.0	1.0	1.0	0	-0.0006526625528930001	blockFiles/set_21/main_unc/rightBlue\GB_RB_6.xlsx
452	main_unc	True	0.0	646	0	8.0	8.0	0.0	1	left	2.0	1.0	1.0	0	-0.039150363504900004	blockFiles/set_21/main_unc/leftBlue\GB_LB_4.xlsx
453	main_unc	True	0.0	646	0	8.0	8.0	0.0	1	left	2.0	1.0	1.0	0	-0.0330228074268	blockFiles/set_21/main_unc/leftBlue\GB_LB_4.xlsx
454	main_unc	True	0.0	646	0	8.0	8.0	0.0	1	left	2.0	1.0	1.0	0	-0.0310842237063	blockFiles/set_21/main_unc/leftBlue\GB_LB_4.xlsx
455	main_unc	True	0.0	646	0	8.0	8.0	0.0	1	left	2.0	0.0	1.0	0	-0.0222073954903	blockFiles/set_21/main_unc/leftBlue\GB_LB_4.xlsx
456	main_unc	True	0.0	646	0	8.0	8.0	1.0	1	right	1.0	1.0	1.0	1	0.07007038060580001	blockFiles/set_21/main_unc/leftBlue\GB_LB_4.xlsx
457	main_unc	True	0.0	646	0	8.0	8.0	1.0	1	right	1.0	1.0	1.0	1	0.0182665519789	blockFiles/set_21/main_unc/leftBlue\GB_LB_4.xlsx
458	main_unc	True	0.0	646	0	8.0	8.0	0.0	1	left	2.0	1.0	1.0	0	-0.0556356432475	blockFiles/set_21/main_unc/leftBlue\GB_LB_4.xlsx
459	main_unc	True	0.0	646	0	8.0	8.0	1.0	1	right	1.0	1.0	1.0	1	0.0513147977926	blockFiles/set_21/main_unc/leftBlue\GB_LB_4.xlsx
460	main_unc	True	0.0	646	0	8.0	8.0	0.0	1	left	2.0	1.0	1.0	0	-0.019137739446	blockFiles/set_21/main_unc/leftBlue\GB_LB_4.xlsx
461	main_unc	True	0.0	646	0	8.0	8.0	0.0	0	left	2.0	0.0	0.0	1	0.00599358098581	blockFiles/set_21/main_unc/leftBlue\GB_LB_4.xlsx
462	main_unc	True	0.0	646	0	8.0	8.0	0.0	1	left	2.0	1.0	1.0	0	-0.051262774430200005	blockFiles/set_21/main_unc/leftBlue\GB_LB_4.xlsx
463	main_unc	True	0.0	646	0	8.0	8.0	1.0	1	right	1.0	0.0	1.0	1	0.0668725700863	blockFiles/set_21/main_unc/leftBlue\GB_LB_4.xlsx
464	main_unc	True	0.0	646	0	8.0	8.0	0.0	1	left	2.0	1.0	1.0	0	-0.040848263409	blockFiles/set_21/main_unc/leftBlue\GB_LB_4.xlsx
465	main_unc	True	0.0	646	0	8.0	8.0	1.0	1	right	1.0	1.0	1.0	1	0.0193136025593	blockFiles/set_21/main_unc/leftBlue\GB_LB_4.xlsx
466	main_unc	True	0.0	646	0	8.0	8.0	1.0	1	right	1.0	0.0	1.0	1	0.058316344823699996	blockFiles/set_21/main_unc/leftBlue\GB_LB_4.xlsx
467	main_unc	True	0.0	646	0	8.0	8.0	0.0	1	left	2.0	1.0	1.0	0	-0.062668019142	blockFiles/set_21/main_unc/leftBlue\GB_LB_4.xlsx
468	main_unc	True	0.0	646	0	8.0	8.0	0.0	1	left	1.0	0.0	0.0	0	-0.031112798042599997	blockFiles/set_21/main_unc/leftBlue\GB_LB_4.xlsx
469	main_unc	True	0.0	646	0	8.0	8.0	0.0	1	left	2.0	1.0	1.0	0	-0.0345524975099	blockFiles/set_21/main_unc/leftBlue\GB_LB_4.xlsx
470	main_unc	True	0.0	646	0	8.0	8.0	1.0	1	right	1.0	0.0	1.0	1	0.048583900742199995	blockFiles/set_21/main_unc/leftBlue\GB_LB_4.xlsx
471	main_unc	True	0.0	646	0	8.0	8.0	1.0	1	right	1.0	1.0	1.0	1	0.0373590990156	blockFiles/set_21/main_unc/leftBlue\GB_LB_4.xlsx
472	main_unc	True	0.0	646	0	8.0	8.0	1.0	1	right	1.0	1.0	1.0	1	0.010975437983899999	blockFiles/set_21/main_unc/leftBlue\GB_LB_4.xlsx
473	main_unc	True	0.0	646	0	8.0	8.0	0.0	0	left	2.0	0.0	0.0	1	0.00810754438862	blockFiles/set_21/main_unc/leftBlue\GB_LB_4.xlsx
474	main_unc	True	0.0	646	0	8.0	8.0	1.0	1	right	1.0	1.0	1.0	1	0.0621728038043	blockFiles/set_21/main_unc/leftBlue\GB_LB_4.xlsx
475	main_unc	True	0.0	646	0	8.0	8.0	1.0	1	right	1.0	0.0	1.0	1	0.0505948660895	blockFiles/set_21/main_unc/leftBlue\GB_LB_4.xlsx
476	main_unc	True	0.0	646	0	8.0	8.0	0.0	1	left	2.0	1.0	1.0	0	-0.0733075801097	blockFiles/set_21/main_unc/leftBlue\GB_LB_4.xlsx
477	main_unc	True	0.0	646	0	9.0	9.0	0.0	1	left	1.0	0.0	0.0	0	-0.056460246462400006	blockFiles/set_21/main_unc/leftBlue\GB_LB_1.xlsx
478	main_unc	True	0.0	646	0	9.0	9.0	1.0	1	right	1.0	0.0	1.0	1	0.033364665992600004	blockFiles/set_21/main_unc/leftBlue\GB_LB_1.xlsx
479	main_unc	True	0.0	646	0	9.0	9.0	0.0	1	left	1.0	1.0	0.0	0	-0.0488753304258	blockFiles/set_21/main_unc/leftBlue\GB_LB_1.xlsx
480	main_unc	True	0.0	646	0	9.0	9.0	1.0	1	right	2.0	0.0	0.0	1	0.0660071698576	blockFiles/set_21/main_unc/leftBlue\GB_LB_1.xlsx
481	main_unc	True	0.0	646	0	9.0	9.0	1.0	1	right	2.0	1.0	0.0	1	0.0100280585699	blockFiles/set_21/main_unc/leftBlue\GB_LB_1.xlsx
482	main_unc	True	0.0	646	0	9.0	9.0	0.0	1	left	1.0	0.0	0.0	0	-0.009213972873990001	blockFiles/set_21/main_unc/leftBlue\GB_LB_1.xlsx
483	main_unc	True	0.0	646	0	9.0	9.0	0.0	1	left	1.0	0.0	0.0	0	-0.0782369573228	blockFiles/set_21/main_unc/leftBlue\GB_LB_1.xlsx
484	main_unc	True	0.0	646	0	9.0	9.0	1.0	1	right	1.0	1.0	1.0	1	0.0538557201996	blockFiles/set_21/main_unc/leftBlue\GB_LB_1.xlsx
485	main_unc	True	0.0	646	0	9.0	9.0	0.0	1	left	2.0	0.0	1.0	0	-0.019953144509299997	blockFiles/set_21/main_unc/leftBlue\GB_LB_1.xlsx
486	main_unc	True	0.0	646	0	9.0	9.0	1.0	1	right	1.0	1.0	1.0	1	0.00511859651655	blockFiles/set_21/main_unc/leftBlue\GB_LB_1.xlsx
487	main_unc	True	0.0	646	0	9.0	9.0	0.0	1	left	2.0	1.0	1.0	0	-0.0366205930337	blockFiles/set_21/main_unc/leftBlue\GB_LB_1.xlsx
488	main_unc	True	0.0	646	0	9.0	9.0	1.0	1	right	1.0	1.0	1.0	1	0.0285792782344	blockFiles/set_21/main_unc/leftBlue\GB_LB_1.xlsx
489	main_unc	True	0.0	646	0	9.0	9.0	0.0	1	left	2.0	1.0	1.0	0	-0.067061022874	blockFiles/set_21/main_unc/leftBlue\GB_LB_1.xlsx
490	main_unc	True	0.0	646	0	9.0	9.0	1.0	1	right	1.0	0.0	1.0	1	0.0467205588706	blockFiles/set_21/main_unc/leftBlue\GB_LB_1.xlsx
491	main_unc	True	0.0	646	0	9.0	9.0	0.0	1	left	2.0	1.0	1.0	0	-0.06354454997930001	blockFiles/set_21/main_unc/leftBlue\GB_LB_1.xlsx
492	main_unc	True	0.0	646	0	9.0	9.0	1.0	1	right	1.0	1.0	1.0	1	0.051511364709599994	blockFiles/set_21/main_unc/leftBlue\GB_LB_1.xlsx
493	main_unc	True	0.0	646	0	9.0	9.0	0.0	1	left	2.0	1.0	1.0	0	-0.0286599376425	blockFiles/set_21/main_unc/leftBlue\GB_LB_1.xlsx
494	main_unc	True	0.0	646	0	9.0	9.0	1.0	1	right	1.0	0.0	1.0	1	0.0257805929519	blockFiles/set_21/main_unc/leftBlue\GB_LB_1.xlsx
495	main_unc	True	0.0	646	0	9.0	9.0	0.0	1	left	2.0	1.0	1.0	0	-0.00455562995747	blockFiles/set_21/main_unc/leftBlue\GB_LB_1.xlsx
496	main_unc	True	0.0	646	0	9.0	9.0	0.0	1	left	2.0	1.0	1.0	0	-0.0716297025047	blockFiles/set_21/main_unc/leftBlue\GB_LB_1.xlsx
497	main_unc	True	0.0	646	0	9.0	9.0	1.0	1	right	1.0	1.0	1.0	1	0.0508239007369	blockFiles/set_21/main_unc/leftBlue\GB_LB_1.xlsx
498	main_unc	True	0.0	646	0	9.0	9.0	0.0	1	left	2.0	1.0	1.0	0	-0.05561874162409999	blockFiles/set_21/main_unc/leftBlue\GB_LB_1.xlsx
499	main_unc	True	0.0	646	0	9.0	9.0	0.0	0	left	2.0	0.0	0.0	1	0.0131356028467	blockFiles/set_21/main_unc/leftBlue\GB_LB_1.xlsx
500	main_unc	True	0.0	646	0	9.0	9.0	0.0	1	left	2.0	1.0	1.0	0	-0.0399222909845	blockFiles/set_21/main_unc/leftBlue\GB_LB_1.xlsx
501	main_unc	True	0.0	646	0	9.0	9.0	0.0	1	left	2.0	1.0	1.0	0	-0.0560726985894	blockFiles/set_21/main_unc/leftBlue\GB_LB_1.xlsx
502	main_unc	True	0.0	646	0	10.0	10.0	0.0	1	left	1.0	0.0	1.0	0	-0.00993339003995	blockFiles/set_21/main_unc/rightBlue\GB_RB_4.xlsx
503	main_unc	True	0.0	646	0	10.0	10.0	1.0	1	right	1.0	0.0	0.0	1	0.047004877831800004	blockFiles/set_21/main_unc/rightBlue\GB_RB_4.xlsx
504	main_unc	True	0.0	646	0	10.0	10.0	1.0	1	right	2.0	1.0	1.0	1	0.0683268301561	blockFiles/set_21/main_unc/rightBlue\GB_RB_4.xlsx
505	main_unc	True	0.0	646	0	10.0	10.0	1.0	1	right	2.0	1.0	1.0	1	0.031762410849299996	blockFiles/set_21/main_unc/rightBlue\GB_RB_4.xlsx
506	main_unc	True	0.0	646	0	10.0	10.0	1.0	1	right	2.0	1.0	1.0	1	0.0549303370528	blockFiles/set_21/main_unc/rightBlue\GB_RB_4.xlsx
507	main_unc	True	0.0	646	0	10.0	10.0	1.0	1	right	2.0	1.0	1.0	1	0.0443542825244	blockFiles/set_21/main_unc/rightBlue\GB_RB_4.xlsx
508	main_unc	True	0.0	646	0	10.0	10.0	1.0	1	right	2.0	1.0	1.0	1	0.0119628084078	blockFiles/set_21/main_unc/rightBlue\GB_RB_4.xlsx
509	main_unc	True	0.0	646	0	10.0	10.0	0.0	1	left	1.0	0.0	1.0	0	-0.00875349199399	blockFiles/set_21/main_unc/rightBlue\GB_RB_4.xlsx
510	main_unc	True	0.0	646	0	10.0	10.0	1.0	1	right	2.0	1.0	1.0	1	0.0458369688131	blockFiles/set_21/main_unc/rightBlue\GB_RB_4.xlsx
511	main_unc	True	0.0	646	0	10.0	10.0	1.0	1	right	2.0	1.0	1.0	1	0.0236355446838	blockFiles/set_21/main_unc/rightBlue\GB_RB_4.xlsx
512	main_unc	True	0.0	646	0	10.0	10.0	0.0	1	left	1.0	0.0	1.0	0	-0.0598261698708	blockFiles/set_21/main_unc/rightBlue\GB_RB_4.xlsx
513	main_unc	True	0.0	646	0	10.0	10.0	0.0	1	left	1.0	0.0	1.0	0	-0.0404257484525	blockFiles/set_21/main_unc/rightBlue\GB_RB_4.xlsx
514	main_unc	True	0.0	646	0	10.0	10.0	0.0	1	left	1.0	1.0	1.0	0	-0.0311381555907	blockFiles/set_21/main_unc/rightBlue\GB_RB_4.xlsx
515	main_unc	True	0.0	646	0	10.0	10.0	0.0	1	left	1.0	1.0	1.0	0	-0.0515524394438	blockFiles/set_21/main_unc/rightBlue\GB_RB_4.xlsx
516	main_unc	True	0.0	646	0	10.0	10.0	1.0	1	right	2.0	1.0	1.0	1	0.0279993931949	blockFiles/set_21/main_unc/rightBlue\GB_RB_4.xlsx
517	main_unc	True	0.0	646	0	10.0	10.0	1.0	1	right	2.0	1.0	1.0	1	0.0479867814668	blockFiles/set_21/main_unc/rightBlue\GB_RB_4.xlsx
518	main_unc	True	0.0	646	0	10.0	10.0	0.0	1	left	1.0	1.0	1.0	0	-0.00673896742985	blockFiles/set_21/main_unc/rightBlue\GB_RB_4.xlsx
519	main_unc	True	0.0	646	0	10.0	10.0	0.0	1	left	1.0	1.0	1.0	0	-0.0662628338672	blockFiles/set_21/main_unc/rightBlue\GB_RB_4.xlsx
520	main_unc	True	0.0	646	0	10.0	10.0	0.0	1	left	1.0	1.0	1.0	0	-0.00605286950246	blockFiles/set_21/main_unc/rightBlue\GB_RB_4.xlsx
521	main_unc	True	0.0	646	0	10.0	10.0	0.0	1	left	1.0	1.0	1.0	0	-0.00471541445702	blockFiles/set_21/main_unc/rightBlue\GB_RB_4.xlsx
522	main_unc	True	0.0	646	0	10.0	10.0	0.0	1	left	1.0	1.0	1.0	0	-0.06554343296210001	blockFiles/set_21/main_unc/rightBlue\GB_RB_4.xlsx
523	main_unc	True	0.0	646	0	10.0	10.0	1.0	1	right	2.0	0.0	1.0	1	0.0154142984748	blockFiles/set_21/main_unc/rightBlue\GB_RB_4.xlsx
524	main_unc	True	0.0	646	0	10.0	10.0	1.0	1	right	2.0	1.0	1.0	1	0.055560348741699996	blockFiles/set_21/main_unc/rightBlue\GB_RB_4.xlsx
525	main_unc	True	0.0	646	0	10.0	10.0	0.0	1	left	1.0	1.0	1.0	0	-0.06137374127280001	blockFiles/set_21/main_unc/rightBlue\GB_RB_4.xlsx
526	main_unc	True	0.0	646	0	10.0	10.0	1.0	1	right	2.0	0.0	1.0	1	0.021510813347999997	blockFiles/set_21/main_unc/rightBlue\GB_RB_4.xlsx
527	main_unc	True	0.0	646	0	11.0	11.0	0.0	1	left	1.0	0.0	0.0	0	-0.03846773255619999	blockFiles/set_21/main_unc/leftBlue\GB_LB_6.xlsx
528	main_unc	True	0.0	646	0	11.0	11.0	0.0	1	left	2.0	0.0	1.0	0	-0.061913243774300006	blockFiles/set_21/main_unc/leftBlue\GB_LB_6.xlsx
529	main_unc	True	0.0	646	0	11.0	11.0	0.0	1	left	2.0	0.0	1.0	0	-0.020184590984099998	blockFiles/set_21/main_unc/leftBlue\GB_LB_6.xlsx
530	main_unc	True	0.0	646	0	11.0	11.0	0.0	1	left	1.0	0.0	0.0	0	-0.0445473396778	blockFiles/set_21/main_unc/leftBlue\GB_LB_6.xlsx
531	main_unc	True	0.0	646	0	11.0	11.0	0.0	1	left	1.0	0.0	0.0	0	-0.0271606848016	blockFiles/set_21/main_unc/leftBlue\GB_LB_6.xlsx
532	main_unc	True	0.0	646	0	11.0	11.0	1.0	1	right	1.0	1.0	1.0	1	0.0637703270465	blockFiles/set_21/main_unc/leftBlue\GB_LB_6.xlsx
533	main_unc	True	0.0	646	0	11.0	11.0	1.0	1	right	1.0	0.0	1.0	1	0.0787527336553	blockFiles/set_21/main_unc/leftBlue\GB_LB_6.xlsx
534	main_unc	True	0.0	646	0	11.0	11.0	1.0	1	right	1.0	1.0	1.0	1	0.0140758047253	blockFiles/set_21/main_unc/leftBlue\GB_LB_6.xlsx
535	main_unc	True	0.0	646	0	11.0	11.0	1.0	1	right	1.0	0.0	1.0	1	0.0191309988312	blockFiles/set_21/main_unc/leftBlue\GB_LB_6.xlsx
536	main_unc	True	0.0	646	0	11.0	11.0	0.0	1	left	2.0	1.0	1.0	0	-0.05604749638590001	blockFiles/set_21/main_unc/leftBlue\GB_LB_6.xlsx
537	main_unc	True	0.0	646	0	11.0	11.0	0.0	1	left	2.0	1.0	1.0	0	-0.04249386781830001	blockFiles/set_21/main_unc/leftBlue\GB_LB_6.xlsx
538	main_unc	True	0.0	646	0	11.0	11.0	1.0	1	right	1.0	0.0	1.0	1	0.0339664858766	blockFiles/set_21/main_unc/leftBlue\GB_LB_6.xlsx
539	main_unc	True	0.0	646	0	11.0	11.0	1.0	1	right	1.0	1.0	1.0	1	0.06273432772609999	blockFiles/set_21/main_unc/leftBlue\GB_LB_6.xlsx
540	main_unc	True	0.0	646	0	11.0	11.0	1.0	1	right	1.0	1.0	1.0	1	0.0701313483715	blockFiles/set_21/main_unc/leftBlue\GB_LB_6.xlsx
541	main_unc	True	1.0	646	0	11.0	11.0	n/a	0	None	n/a	0.0	n/a	1	0.010964128617200001	blockFiles/set_21/main_unc/leftBlue\GB_LB_6.xlsx
542	main_unc	True	0.0	646	0	11.0	11.0	0.0	1	left	2.0	1.0	1.0	0	-0.0673349317536	blockFiles/set_21/main_unc/leftBlue\GB_LB_6.xlsx
543	main_unc	True	0.0	646	0	11.0	11.0	0.0	1	left	2.0	0.0	1.0	0	-0.00359222881496	blockFiles/set_21/main_unc/leftBlue\GB_LB_6.xlsx
544	main_unc	True	0.0	646	0	11.0	11.0	1.0	1	right	1.0	1.0	1.0	1	0.0550682191551	blockFiles/set_21/main_unc/leftBlue\GB_LB_6.xlsx
545	main_unc	True	0.0	646	0	11.0	11.0	1.0	1	right	2.0	0.0	0.0	1	0.00837877400219	blockFiles/set_21/main_unc/leftBlue\GB_LB_6.xlsx
546	main_unc	True	0.0	646	0	11.0	11.0	1.0	1	right	1.0	1.0	1.0	1	0.0408820757084	blockFiles/set_21/main_unc/leftBlue\GB_LB_6.xlsx
547	main_unc	True	0.0	646	0	11.0	11.0	0.0	1	left	2.0	1.0	1.0	0	-0.058947687409800005	blockFiles/set_21/main_unc/leftBlue\GB_LB_6.xlsx
548	main_unc	True	0.0	646	0	11.0	11.0	0.0	1	left	2.0	1.0	1.0	0	-0.0171442269348	blockFiles/set_21/main_unc/leftBlue\GB_LB_6.xlsx
549	main_unc	True	0.0	646	0	11.0	11.0	1.0	1	right	1.0	1.0	1.0	1	0.056825481634599995	blockFiles/set_21/main_unc/leftBlue\GB_LB_6.xlsx
550	main_unc	True	0.0	646	0	11.0	11.0	0.0	1	left	2.0	1.0	1.0	0	-0.06368553303180001	blockFiles/set_21/main_unc/leftBlue\GB_LB_6.xlsx
551	main_unc	True	0.0	646	0	11.0	11.0	0.0	1	left	2.0	1.0	1.0	0	-0.0187051950209	blockFiles/set_21/main_unc/leftBlue\GB_LB_6.xlsx
552	main_unc	True	0.0	646	0	11.0	11.0	1.0	1	right	1.0	1.0	1.0	1	0.010964128617200001	blockFiles/set_21/main_unc/leftBlue\GB_LB_6.xlsx
