	trial_type	complete	missIndex	participant	id	blockNumber	b_t	d_t	decision1.corr	decision1.keys	a_t	r_t	decision2.corr	s_t	u_t	block_file
0	main_safe	True	0.0	697	0	0.0	0.0	0.0	1	left	2.0	1.0	1.0	0	-0.08	blockFiles/set_39/main_safe/leftBlue\GB_LB_3.xlsx
1	main_safe	True	0.0	697	0	0.0	0.0	0.0	1	left	2.0	0.0	1.0	0	-0.08	blockFiles/set_39/main_safe/leftBlue\GB_LB_3.xlsx
2	main_safe	True	0.0	697	0	0.0	0.0	1.0	1	right	1.0	1.0	1.0	1	0.08	blockFiles/set_39/main_safe/leftBlue\GB_LB_3.xlsx
3	main_safe	True	0.0	697	0	0.0	0.0	0.0	1	left	2.0	1.0	1.0	0	-0.08	blockFiles/set_39/main_safe/leftBlue\GB_LB_3.xlsx
4	main_safe	True	0.0	697	0	0.0	0.0	1.0	1	right	1.0	1.0	1.0	1	0.08	blockFiles/set_39/main_safe/leftBlue\GB_LB_3.xlsx
5	main_safe	True	0.0	697	0	0.0	0.0	0.0	1	left	2.0	1.0	1.0	0	-0.08	blockFiles/set_39/main_safe/leftBlue\GB_LB_3.xlsx
6	main_safe	True	0.0	697	0	0.0	0.0	1.0	1	right	1.0	1.0	1.0	1	0.08	blockFiles/set_39/main_safe/leftBlue\GB_LB_3.xlsx
7	main_safe	True	1.0	697	0	0.0	0.0	0.0	1	left	n/a	0.0	n/a	0	-0.08	blockFiles/set_39/main_safe/leftBlue\GB_LB_3.xlsx
8	main_safe	True	0.0	697	0	0.0	0.0	1.0	1	right	1.0	1.0	1.0	1	0.08	blockFiles/set_39/main_safe/leftBlue\GB_LB_3.xlsx
9	main_safe	True	0.0	697	0	0.0	0.0	0.0	1	left	2.0	0.0	1.0	0	-0.08	blockFiles/set_39/main_safe/leftBlue\GB_LB_3.xlsx
10	main_safe	True	0.0	697	0	0.0	0.0	1.0	1	right	1.0	1.0	1.0	1	0.08	blockFiles/set_39/main_safe/leftBlue\GB_LB_3.xlsx
11	main_safe	True	0.0	697	0	0.0	0.0	1.0	1	right	1.0	1.0	1.0	1	0.08	blockFiles/set_39/main_safe/leftBlue\GB_LB_3.xlsx
12	main_safe	True	0.0	697	0	0.0	0.0	0.0	1	left	2.0	1.0	1.0	0	-0.08	blockFiles/set_39/main_safe/leftBlue\GB_LB_3.xlsx
13	main_safe	True	0.0	697	0	0.0	0.0	0.0	1	left	2.0	1.0	1.0	0	-0.08	blockFiles/set_39/main_safe/leftBlue\GB_LB_3.xlsx
14	main_safe	True	0.0	697	0	0.0	0.0	1.0	1	right	1.0	1.0	1.0	1	0.08	blockFiles/set_39/main_safe/leftBlue\GB_LB_3.xlsx
15	main_safe	True	0.0	697	0	0.0	0.0	1.0	1	right	1.0	1.0	1.0	1	0.08	blockFiles/set_39/main_safe/leftBlue\GB_LB_3.xlsx
16	main_safe	True	0.0	697	0	0.0	0.0	1.0	1	right	1.0	0.0	1.0	1	0.08	blockFiles/set_39/main_safe/leftBlue\GB_LB_3.xlsx
17	main_safe	True	0.0	697	0	0.0	0.0	1.0	1	right	1.0	1.0	1.0	1	0.08	blockFiles/set_39/main_safe/leftBlue\GB_LB_3.xlsx
18	main_safe	True	0.0	697	0	0.0	0.0	1.0	1	right	1.0	1.0	1.0	1	0.08	blockFiles/set_39/main_safe/leftBlue\GB_LB_3.xlsx
19	main_safe	True	0.0	697	0	0.0	0.0	1.0	1	right	1.0	1.0	1.0	1	0.08	blockFiles/set_39/main_safe/leftBlue\GB_LB_3.xlsx
20	main_safe	True	0.0	697	0	0.0	0.0	0.0	1	left	2.0	1.0	1.0	0	-0.08	blockFiles/set_39/main_safe/leftBlue\GB_LB_3.xlsx
21	main_safe	True	0.0	697	0	0.0	0.0	0.0	1	left	2.0	1.0	1.0	0	-0.08	blockFiles/set_39/main_safe/leftBlue\GB_LB_3.xlsx
22	main_safe	True	0.0	697	0	0.0	0.0	1.0	1	right	1.0	1.0	1.0	1	0.08	blockFiles/set_39/main_safe/leftBlue\GB_LB_3.xlsx
23	main_safe	True	0.0	697	0	0.0	0.0	0.0	1	left	1.0	0.0	0.0	0	-0.08	blockFiles/set_39/main_safe/leftBlue\GB_LB_3.xlsx
24	main_safe	True	0.0	697	0	0.0	0.0	1.0	1	right	1.0	1.0	1.0	1	0.08	blockFiles/set_39/main_safe/leftBlue\GB_LB_3.xlsx
25	main_safe	True	0.0	697	0	0.0	0.0	0.0	1	left	2.0	0.0	1.0	0	-0.08	blockFiles/set_39/main_safe/leftBlue\GB_LB_3.xlsx
26	main_safe	True	0.0	697	0	1.0	1.0	0.0	1	left	1.0	1.0	1.0	0	-0.08	blockFiles/set_39/main_safe/rightBlue\GB_RB_2.xlsx
27	main_safe	True	0.0	697	0	1.0	1.0	0.0	1	left	1.0	1.0	1.0	0	-0.08	blockFiles/set_39/main_safe/rightBlue\GB_RB_2.xlsx
28	main_safe	True	0.0	697	0	1.0	1.0	1.0	1	right	2.0	0.0	1.0	1	0.08	blockFiles/set_39/main_safe/rightBlue\GB_RB_2.xlsx
29	main_safe	True	0.0	697	0	1.0	1.0	1.0	1	right	2.0	1.0	1.0	1	0.08	blockFiles/set_39/main_safe/rightBlue\GB_RB_2.xlsx
30	main_safe	True	0.0	697	0	1.0	1.0	0.0	1	left	1.0	0.0	1.0	0	-0.08	blockFiles/set_39/main_safe/rightBlue\GB_RB_2.xlsx
31	main_safe	True	0.0	697	0	1.0	1.0	0.0	1	left	1.0	0.0	1.0	0	-0.08	blockFiles/set_39/main_safe/rightBlue\GB_RB_2.xlsx
32	main_safe	True	0.0	697	0	1.0	1.0	0.0	1	left	1.0	1.0	1.0	0	-0.08	blockFiles/set_39/main_safe/rightBlue\GB_RB_2.xlsx
33	main_safe	True	0.0	697	0	1.0	1.0	0.0	1	left	1.0	1.0	1.0	0	-0.08	blockFiles/set_39/main_safe/rightBlue\GB_RB_2.xlsx
34	main_safe	True	0.0	697	0	1.0	1.0	0.0	1	left	1.0	1.0	1.0	0	-0.08	blockFiles/set_39/main_safe/rightBlue\GB_RB_2.xlsx
35	main_safe	True	0.0	697	0	1.0	1.0	0.0	1	left	1.0	1.0	1.0	0	-0.08	blockFiles/set_39/main_safe/rightBlue\GB_RB_2.xlsx
36	main_safe	True	0.0	697	0	1.0	1.0	1.0	1	right	2.0	1.0	1.0	1	0.08	blockFiles/set_39/main_safe/rightBlue\GB_RB_2.xlsx
37	main_safe	True	0.0	697	0	1.0	1.0	1.0	1	right	2.0	1.0	1.0	1	0.08	blockFiles/set_39/main_safe/rightBlue\GB_RB_2.xlsx
38	main_safe	True	0.0	697	0	1.0	1.0	1.0	1	right	2.0	1.0	1.0	1	0.08	blockFiles/set_39/main_safe/rightBlue\GB_RB_2.xlsx
39	main_safe	True	0.0	697	0	1.0	1.0	1.0	1	right	2.0	1.0	1.0	1	0.08	blockFiles/set_39/main_safe/rightBlue\GB_RB_2.xlsx
40	main_safe	True	0.0	697	0	1.0	1.0	0.0	1	left	1.0	1.0	1.0	0	-0.08	blockFiles/set_39/main_safe/rightBlue\GB_RB_2.xlsx
41	main_safe	True	0.0	697	0	1.0	1.0	1.0	1	right	2.0	1.0	1.0	1	0.08	blockFiles/set_39/main_safe/rightBlue\GB_RB_2.xlsx
42	main_safe	True	0.0	697	0	1.0	1.0	0.0	1	left	1.0	1.0	1.0	0	-0.08	blockFiles/set_39/main_safe/rightBlue\GB_RB_2.xlsx
43	main_safe	True	0.0	697	0	1.0	1.0	1.0	1	right	2.0	1.0	1.0	1	0.08	blockFiles/set_39/main_safe/rightBlue\GB_RB_2.xlsx
44	main_safe	True	0.0	697	0	1.0	1.0	1.0	1	right	2.0	1.0	1.0	1	0.08	blockFiles/set_39/main_safe/rightBlue\GB_RB_2.xlsx
45	main_safe	True	0.0	697	0	1.0	1.0	1.0	1	right	2.0	0.0	1.0	1	0.08	blockFiles/set_39/main_safe/rightBlue\GB_RB_2.xlsx
46	main_safe	True	0.0	697	0	1.0	1.0	1.0	1	right	2.0	1.0	1.0	1	0.08	blockFiles/set_39/main_safe/rightBlue\GB_RB_2.xlsx
47	main_safe	True	0.0	697	0	1.0	1.0	1.0	1	right	2.0	1.0	1.0	1	0.08	blockFiles/set_39/main_safe/rightBlue\GB_RB_2.xlsx
48	main_safe	True	0.0	697	0	1.0	1.0	0.0	1	left	1.0	1.0	1.0	0	-0.08	blockFiles/set_39/main_safe/rightBlue\GB_RB_2.xlsx
49	main_safe	True	0.0	697	0	1.0	1.0	0.0	1	left	1.0	1.0	1.0	0	-0.08	blockFiles/set_39/main_safe/rightBlue\GB_RB_2.xlsx
50	main_safe	True	0.0	697	0	1.0	1.0	1.0	1	right	2.0	0.0	1.0	1	0.08	blockFiles/set_39/main_safe/rightBlue\GB_RB_2.xlsx
51	main_safe	True	0.0	697	0	2.0	2.0	1.0	1	right	1.0	0.0	0.0	1	0.08	blockFiles/set_39/main_safe/rightBlue\GB_RB_1.xlsx
52	main_safe	True	0.0	697	0	2.0	2.0	0.0	1	left	1.0	1.0	1.0	0	-0.08	blockFiles/set_39/main_safe/rightBlue\GB_RB_1.xlsx
53	main_safe	True	0.0	697	0	2.0	2.0	1.0	1	right	2.0	1.0	1.0	1	0.08	blockFiles/set_39/main_safe/rightBlue\GB_RB_1.xlsx
54	main_safe	True	0.0	697	0	2.0	2.0	1.0	1	right	2.0	1.0	1.0	1	0.08	blockFiles/set_39/main_safe/rightBlue\GB_RB_1.xlsx
55	main_safe	True	0.0	697	0	2.0	2.0	0.0	1	left	1.0	0.0	1.0	0	-0.08	blockFiles/set_39/main_safe/rightBlue\GB_RB_1.xlsx
56	main_safe	True	0.0	697	0	2.0	2.0	1.0	1	right	2.0	1.0	1.0	1	0.08	blockFiles/set_39/main_safe/rightBlue\GB_RB_1.xlsx
57	main_safe	True	0.0	697	0	2.0	2.0	0.0	1	left	1.0	1.0	1.0	0	-0.08	blockFiles/set_39/main_safe/rightBlue\GB_RB_1.xlsx
58	main_safe	True	0.0	697	0	2.0	2.0	0.0	1	left	1.0	0.0	1.0	0	-0.08	blockFiles/set_39/main_safe/rightBlue\GB_RB_1.xlsx
59	main_safe	True	0.0	697	0	2.0	2.0	1.0	1	right	2.0	1.0	1.0	1	0.08	blockFiles/set_39/main_safe/rightBlue\GB_RB_1.xlsx
60	main_safe	True	0.0	697	0	2.0	2.0	1.0	1	right	2.0	1.0	1.0	1	0.08	blockFiles/set_39/main_safe/rightBlue\GB_RB_1.xlsx
61	main_safe	True	0.0	697	0	2.0	2.0	0.0	1	left	1.0	0.0	1.0	0	-0.08	blockFiles/set_39/main_safe/rightBlue\GB_RB_1.xlsx
62	main_safe	True	0.0	697	0	2.0	2.0	1.0	1	right	2.0	1.0	1.0	1	0.08	blockFiles/set_39/main_safe/rightBlue\GB_RB_1.xlsx
63	main_safe	True	0.0	697	0	2.0	2.0	0.0	1	left	1.0	1.0	1.0	0	-0.08	blockFiles/set_39/main_safe/rightBlue\GB_RB_1.xlsx
64	main_safe	True	0.0	697	0	2.0	2.0	0.0	1	left	1.0	1.0	1.0	0	-0.08	blockFiles/set_39/main_safe/rightBlue\GB_RB_1.xlsx
65	main_safe	True	0.0	697	0	2.0	2.0	1.0	1	right	2.0	1.0	1.0	1	0.08	blockFiles/set_39/main_safe/rightBlue\GB_RB_1.xlsx
66	main_safe	True	0.0	697	0	2.0	2.0	0.0	1	left	1.0	1.0	1.0	0	-0.08	blockFiles/set_39/main_safe/rightBlue\GB_RB_1.xlsx
67	main_safe	True	0.0	697	0	2.0	2.0	1.0	1	right	2.0	1.0	1.0	1	0.08	blockFiles/set_39/main_safe/rightBlue\GB_RB_1.xlsx
68	main_safe	True	0.0	697	0	2.0	2.0	1.0	1	right	2.0	1.0	1.0	1	0.08	blockFiles/set_39/main_safe/rightBlue\GB_RB_1.xlsx
69	main_safe	True	0.0	697	0	2.0	2.0	0.0	1	left	1.0	1.0	1.0	0	-0.08	blockFiles/set_39/main_safe/rightBlue\GB_RB_1.xlsx
70	main_safe	True	0.0	697	0	2.0	2.0	0.0	1	left	1.0	1.0	1.0	0	-0.08	blockFiles/set_39/main_safe/rightBlue\GB_RB_1.xlsx
71	main_safe	True	0.0	697	0	2.0	2.0	0.0	1	left	1.0	1.0	1.0	0	-0.08	blockFiles/set_39/main_safe/rightBlue\GB_RB_1.xlsx
72	main_safe	True	0.0	697	0	2.0	2.0	1.0	1	right	2.0	0.0	1.0	1	0.08	blockFiles/set_39/main_safe/rightBlue\GB_RB_1.xlsx
73	main_safe	True	0.0	697	0	2.0	2.0	1.0	1	right	2.0	1.0	1.0	1	0.08	blockFiles/set_39/main_safe/rightBlue\GB_RB_1.xlsx
74	main_safe	True	0.0	697	0	2.0	2.0	1.0	1	right	2.0	1.0	1.0	1	0.08	blockFiles/set_39/main_safe/rightBlue\GB_RB_1.xlsx
75	main_safe	True	0.0	697	0	2.0	2.0	0.0	1	left	1.0	0.0	1.0	0	-0.08	blockFiles/set_39/main_safe/rightBlue\GB_RB_1.xlsx
76	main_safe	True	0.0	697	0	3.0	3.0	1.0	1	right	1.0	0.0	1.0	1	0.08	blockFiles/set_39/main_safe/leftBlue\GB_LB_2.xlsx
77	main_safe	True	0.0	697	0	3.0	3.0	1.0	1	right	2.0	0.0	0.0	1	0.08	blockFiles/set_39/main_safe/leftBlue\GB_LB_2.xlsx
78	main_safe	True	0.0	697	0	3.0	3.0	1.0	1	right	1.0	1.0	1.0	1	0.08	blockFiles/set_39/main_safe/leftBlue\GB_LB_2.xlsx
79	main_safe	True	0.0	697	0	3.0	3.0	1.0	1	right	1.0	0.0	1.0	1	0.08	blockFiles/set_39/main_safe/leftBlue\GB_LB_2.xlsx
80	main_safe	True	0.0	697	0	3.0	3.0	0.0	1	left	2.0	1.0	1.0	0	-0.08	blockFiles/set_39/main_safe/leftBlue\GB_LB_2.xlsx
81	main_safe	True	0.0	697	0	3.0	3.0	1.0	1	right	1.0	1.0	1.0	1	0.08	blockFiles/set_39/main_safe/leftBlue\GB_LB_2.xlsx
82	main_safe	True	0.0	697	0	3.0	3.0	1.0	1	right	1.0	1.0	1.0	1	0.08	blockFiles/set_39/main_safe/leftBlue\GB_LB_2.xlsx
83	main_safe	True	0.0	697	0	3.0	3.0	1.0	1	right	1.0	1.0	1.0	1	0.08	blockFiles/set_39/main_safe/leftBlue\GB_LB_2.xlsx
84	main_safe	True	0.0	697	0	3.0	3.0	1.0	1	right	1.0	1.0	1.0	1	0.08	blockFiles/set_39/main_safe/leftBlue\GB_LB_2.xlsx
85	main_safe	True	0.0	697	0	3.0	3.0	1.0	1	right	1.0	1.0	1.0	1	0.08	blockFiles/set_39/main_safe/leftBlue\GB_LB_2.xlsx
86	main_safe	True	0.0	697	0	3.0	3.0	0.0	1	left	2.0	1.0	1.0	0	-0.08	blockFiles/set_39/main_safe/leftBlue\GB_LB_2.xlsx
87	main_safe	True	0.0	697	0	3.0	3.0	0.0	1	left	2.0	1.0	1.0	0	-0.08	blockFiles/set_39/main_safe/leftBlue\GB_LB_2.xlsx
88	main_safe	True	0.0	697	0	3.0	3.0	1.0	1	right	1.0	1.0	1.0	1	0.08	blockFiles/set_39/main_safe/leftBlue\GB_LB_2.xlsx
89	main_safe	True	0.0	697	0	3.0	3.0	0.0	1	left	2.0	1.0	1.0	0	-0.08	blockFiles/set_39/main_safe/leftBlue\GB_LB_2.xlsx
90	main_safe	True	0.0	697	0	3.0	3.0	0.0	1	left	2.0	1.0	1.0	0	-0.08	blockFiles/set_39/main_safe/leftBlue\GB_LB_2.xlsx
91	main_safe	True	0.0	697	0	3.0	3.0	1.0	1	right	1.0	1.0	1.0	1	0.08	blockFiles/set_39/main_safe/leftBlue\GB_LB_2.xlsx
92	main_safe	True	0.0	697	0	3.0	3.0	1.0	1	right	1.0	1.0	1.0	1	0.08	blockFiles/set_39/main_safe/leftBlue\GB_LB_2.xlsx
93	main_safe	True	0.0	697	0	3.0	3.0	0.0	1	left	2.0	1.0	1.0	0	-0.08	blockFiles/set_39/main_safe/leftBlue\GB_LB_2.xlsx
94	main_safe	True	0.0	697	0	3.0	3.0	0.0	1	left	2.0	1.0	1.0	0	-0.08	blockFiles/set_39/main_safe/leftBlue\GB_LB_2.xlsx
95	main_safe	True	0.0	697	0	3.0	3.0	1.0	1	right	1.0	1.0	1.0	1	0.08	blockFiles/set_39/main_safe/leftBlue\GB_LB_2.xlsx
96	main_safe	True	0.0	697	0	3.0	3.0	0.0	1	left	2.0	1.0	1.0	0	-0.08	blockFiles/set_39/main_safe/leftBlue\GB_LB_2.xlsx
97	main_safe	True	0.0	697	0	3.0	3.0	0.0	1	left	2.0	0.0	1.0	0	-0.08	blockFiles/set_39/main_safe/leftBlue\GB_LB_2.xlsx
98	main_safe	True	0.0	697	0	3.0	3.0	0.0	1	left	2.0	1.0	1.0	0	-0.08	blockFiles/set_39/main_safe/leftBlue\GB_LB_2.xlsx
99	main_safe	True	0.0	697	0	3.0	3.0	0.0	1	left	2.0	0.0	1.0	0	-0.08	blockFiles/set_39/main_safe/leftBlue\GB_LB_2.xlsx
100	main_safe	True	0.0	697	0	3.0	3.0	0.0	1	left	2.0	1.0	1.0	0	-0.08	blockFiles/set_39/main_safe/leftBlue\GB_LB_2.xlsx
101	main_safe	True	0.0	697	0	4.0	4.0	1.0	1	right	1.0	1.0	1.0	1	0.08	blockFiles/set_39/main_safe/leftBlue\GB_LB_1.xlsx
102	main_safe	True	0.0	697	0	4.0	4.0	0.0	1	left	2.0	1.0	1.0	0	-0.08	blockFiles/set_39/main_safe/leftBlue\GB_LB_1.xlsx
103	main_safe	True	0.0	697	0	4.0	4.0	0.0	1	left	2.0	1.0	1.0	0	-0.08	blockFiles/set_39/main_safe/leftBlue\GB_LB_1.xlsx
104	main_safe	True	0.0	697	0	4.0	4.0	0.0	1	left	2.0	1.0	1.0	0	-0.08	blockFiles/set_39/main_safe/leftBlue\GB_LB_1.xlsx
105	main_safe	True	0.0	697	0	4.0	4.0	0.0	1	left	2.0	1.0	1.0	0	-0.08	blockFiles/set_39/main_safe/leftBlue\GB_LB_1.xlsx
106	main_safe	True	0.0	697	0	4.0	4.0	0.0	1	left	2.0	0.0	1.0	0	-0.08	blockFiles/set_39/main_safe/leftBlue\GB_LB_1.xlsx
107	main_safe	True	0.0	697	0	4.0	4.0	0.0	1	left	2.0	1.0	1.0	0	-0.08	blockFiles/set_39/main_safe/leftBlue\GB_LB_1.xlsx
108	main_safe	True	0.0	697	0	4.0	4.0	1.0	1	right	1.0	1.0	1.0	1	0.08	blockFiles/set_39/main_safe/leftBlue\GB_LB_1.xlsx
109	main_safe	True	0.0	697	0	4.0	4.0	0.0	1	left	2.0	0.0	1.0	0	-0.08	blockFiles/set_39/main_safe/leftBlue\GB_LB_1.xlsx
110	main_safe	True	0.0	697	0	4.0	4.0	1.0	1	right	2.0	1.0	0.0	1	0.08	blockFiles/set_39/main_safe/leftBlue\GB_LB_1.xlsx
111	main_safe	True	0.0	697	0	4.0	4.0	0.0	1	left	2.0	1.0	1.0	0	-0.08	blockFiles/set_39/main_safe/leftBlue\GB_LB_1.xlsx
112	main_safe	True	0.0	697	0	4.0	4.0	1.0	1	right	1.0	1.0	1.0	1	0.08	blockFiles/set_39/main_safe/leftBlue\GB_LB_1.xlsx
113	main_safe	True	0.0	697	0	4.0	4.0	1.0	1	right	1.0	0.0	1.0	1	0.08	blockFiles/set_39/main_safe/leftBlue\GB_LB_1.xlsx
114	main_safe	True	0.0	697	0	4.0	4.0	1.0	1	right	1.0	1.0	1.0	1	0.08	blockFiles/set_39/main_safe/leftBlue\GB_LB_1.xlsx
115	main_safe	True	0.0	697	0	4.0	4.0	0.0	1	left	2.0	1.0	1.0	0	-0.08	blockFiles/set_39/main_safe/leftBlue\GB_LB_1.xlsx
116	main_safe	True	0.0	697	0	4.0	4.0	1.0	1	right	1.0	1.0	1.0	1	0.08	blockFiles/set_39/main_safe/leftBlue\GB_LB_1.xlsx
117	main_safe	True	0.0	697	0	4.0	4.0	0.0	1	left	2.0	1.0	1.0	0	-0.08	blockFiles/set_39/main_safe/leftBlue\GB_LB_1.xlsx
118	main_safe	True	0.0	697	0	4.0	4.0	0.0	1	left	2.0	1.0	1.0	0	-0.08	blockFiles/set_39/main_safe/leftBlue\GB_LB_1.xlsx
119	main_safe	True	0.0	697	0	4.0	4.0	0.0	1	left	2.0	0.0	1.0	0	-0.08	blockFiles/set_39/main_safe/leftBlue\GB_LB_1.xlsx
120	main_safe	True	0.0	697	0	4.0	4.0	1.0	1	right	1.0	1.0	1.0	1	0.08	blockFiles/set_39/main_safe/leftBlue\GB_LB_1.xlsx
121	main_safe	True	0.0	697	0	4.0	4.0	1.0	1	right	1.0	1.0	1.0	1	0.08	blockFiles/set_39/main_safe/leftBlue\GB_LB_1.xlsx
122	main_safe	True	0.0	697	0	4.0	4.0	1.0	1	right	1.0	1.0	1.0	1	0.08	blockFiles/set_39/main_safe/leftBlue\GB_LB_1.xlsx
123	main_safe	True	0.0	697	0	4.0	4.0	1.0	1	right	1.0	1.0	1.0	1	0.08	blockFiles/set_39/main_safe/leftBlue\GB_LB_1.xlsx
124	main_safe	True	0.0	697	0	4.0	4.0	0.0	1	left	2.0	1.0	1.0	0	-0.08	blockFiles/set_39/main_safe/leftBlue\GB_LB_1.xlsx
125	main_safe	True	0.0	697	0	4.0	4.0	0.0	1	left	2.0	1.0	1.0	0	-0.08	blockFiles/set_39/main_safe/leftBlue\GB_LB_1.xlsx
126	main_safe	True	0.0	697	0	5.0	5.0	0.0	1	left	1.0	1.0	1.0	0	-0.08	blockFiles/set_39/main_safe/rightBlue\GB_RB_3.xlsx
127	main_safe	True	0.0	697	0	5.0	5.0	1.0	1	right	2.0	1.0	1.0	1	0.08	blockFiles/set_39/main_safe/rightBlue\GB_RB_3.xlsx
128	main_safe	True	0.0	697	0	5.0	5.0	1.0	1	right	2.0	1.0	1.0	1	0.08	blockFiles/set_39/main_safe/rightBlue\GB_RB_3.xlsx
129	main_safe	True	0.0	697	0	5.0	5.0	0.0	0	left	1.0	0.0	0.0	1	0.08	blockFiles/set_39/main_safe/rightBlue\GB_RB_3.xlsx
130	main_safe	True	0.0	697	0	5.0	5.0	1.0	1	right	2.0	1.0	1.0	1	0.08	blockFiles/set_39/main_safe/rightBlue\GB_RB_3.xlsx
131	main_safe	True	0.0	697	0	5.0	5.0	0.0	1	left	1.0	1.0	1.0	0	-0.08	blockFiles/set_39/main_safe/rightBlue\GB_RB_3.xlsx
132	main_safe	True	0.0	697	0	5.0	5.0	1.0	1	right	2.0	1.0	1.0	1	0.08	blockFiles/set_39/main_safe/rightBlue\GB_RB_3.xlsx
133	main_safe	True	0.0	697	0	5.0	5.0	0.0	1	left	1.0	1.0	1.0	0	-0.08	blockFiles/set_39/main_safe/rightBlue\GB_RB_3.xlsx
134	main_safe	True	0.0	697	0	5.0	5.0	0.0	1	left	1.0	1.0	1.0	0	-0.08	blockFiles/set_39/main_safe/rightBlue\GB_RB_3.xlsx
135	main_safe	True	0.0	697	0	5.0	5.0	1.0	1	right	2.0	1.0	1.0	1	0.08	blockFiles/set_39/main_safe/rightBlue\GB_RB_3.xlsx
136	main_safe	True	0.0	697	0	5.0	5.0	0.0	1	left	1.0	1.0	1.0	0	-0.08	blockFiles/set_39/main_safe/rightBlue\GB_RB_3.xlsx
137	main_safe	True	1.0	697	0	5.0	5.0	1.0	1	right	n/a	0.0	n/a	1	0.08	blockFiles/set_39/main_safe/rightBlue\GB_RB_3.xlsx
138	main_safe	True	0.0	697	0	5.0	5.0	1.0	1	right	2.0	1.0	1.0	1	0.08	blockFiles/set_39/main_safe/rightBlue\GB_RB_3.xlsx
139	main_safe	True	0.0	697	0	5.0	5.0	0.0	1	left	1.0	1.0	1.0	0	-0.08	blockFiles/set_39/main_safe/rightBlue\GB_RB_3.xlsx
140	main_safe	True	0.0	697	0	5.0	5.0	0.0	1	left	1.0	1.0	1.0	0	-0.08	blockFiles/set_39/main_safe/rightBlue\GB_RB_3.xlsx
141	main_safe	True	0.0	697	0	5.0	5.0	1.0	1	right	2.0	0.0	1.0	1	0.08	blockFiles/set_39/main_safe/rightBlue\GB_RB_3.xlsx
142	main_safe	True	0.0	697	0	5.0	5.0	1.0	1	right	2.0	0.0	1.0	1	0.08	blockFiles/set_39/main_safe/rightBlue\GB_RB_3.xlsx
143	main_safe	True	0.0	697	0	5.0	5.0	0.0	1	left	1.0	1.0	1.0	0	-0.08	blockFiles/set_39/main_safe/rightBlue\GB_RB_3.xlsx
144	main_safe	True	0.0	697	0	5.0	5.0	1.0	1	right	2.0	0.0	1.0	1	0.08	blockFiles/set_39/main_safe/rightBlue\GB_RB_3.xlsx
145	main_safe	True	0.0	697	0	5.0	5.0	0.0	1	left	1.0	1.0	1.0	0	-0.08	blockFiles/set_39/main_safe/rightBlue\GB_RB_3.xlsx
146	main_safe	True	0.0	697	0	5.0	5.0	0.0	1	left	1.0	1.0	1.0	0	-0.08	blockFiles/set_39/main_safe/rightBlue\GB_RB_3.xlsx
147	main_safe	True	0.0	697	0	5.0	5.0	0.0	1	left	1.0	0.0	1.0	0	-0.08	blockFiles/set_39/main_safe/rightBlue\GB_RB_3.xlsx
148	main_safe	True	1.0	697	0	5.0	5.0	1.0	1	right	n/a	0.0	n/a	1	0.08	blockFiles/set_39/main_safe/rightBlue\GB_RB_3.xlsx
149	main_safe	True	0.0	697	0	5.0	5.0	0.0	1	left	1.0	1.0	1.0	0	-0.08	blockFiles/set_39/main_safe/rightBlue\GB_RB_3.xlsx
150	main_safe	True	0.0	697	0	5.0	5.0	1.0	1	right	2.0	1.0	1.0	1	0.08	blockFiles/set_39/main_safe/rightBlue\GB_RB_3.xlsx
151	main_safe	True	0.0	697	0	5.0	5.0	1.0	1	right	2.0	0.0	1.0	1	0.08	blockFiles/set_39/main_safe/rightBlue\GB_RB_3.xlsx
152	main_safe	True	0.0	697	0	5.0	5.0	1.0	1	right	2.0	1.0	1.0	1	0.08	blockFiles/set_39/main_safe/rightBlue\GB_RB_3.xlsx
153	patches	True	n/a	697	0	n/a	n/a	1.0	1	right	n/a	n/a	n/a	1	0.060089121423699994	blockFiles/set_39/main_PD/GB_runPatches1.xlsx
154	patches	True	n/a	697	0	n/a	n/a	1.0	1	right	n/a	n/a	n/a	1	0.0711000430211	blockFiles/set_39/main_PD/GB_runPatches1.xlsx
155	patches	True	n/a	697	0	n/a	n/a	0.0	1	left	n/a	n/a	n/a	0	-0.047361696660500004	blockFiles/set_39/main_PD/GB_runPatches1.xlsx
156	patches	True	n/a	697	0	n/a	n/a	1.0	1	right	n/a	n/a	n/a	1	0.0129360300489	blockFiles/set_39/main_PD/GB_runPatches1.xlsx
157	patches	True	n/a	697	0	n/a	n/a	0.0	1	left	n/a	n/a	n/a	0	-0.038272289447499996	blockFiles/set_39/main_PD/GB_runPatches1.xlsx
158	patches	True	n/a	697	0	n/a	n/a	1.0	1	right	n/a	n/a	n/a	1	0.0682959995605	blockFiles/set_39/main_PD/GB_runPatches1.xlsx
159	patches	True	n/a	697	0	n/a	n/a	1.0	1	right	n/a	n/a	n/a	1	0.0629061049037	blockFiles/set_39/main_PD/GB_runPatches1.xlsx
160	patches	True	n/a	697	0	n/a	n/a	0.0	1	left	n/a	n/a	n/a	0	-0.022373852618	blockFiles/set_39/main_PD/GB_runPatches1.xlsx
161	patches	True	n/a	697	0	n/a	n/a	1.0	0	right	n/a	n/a	n/a	0	-0.00962250029668	blockFiles/set_39/main_PD/GB_runPatches1.xlsx
162	patches	True	n/a	697	0	n/a	n/a	1.0	1	right	n/a	n/a	n/a	1	0.0654722754844	blockFiles/set_39/main_PD/GB_runPatches1.xlsx
163	patches	True	n/a	697	0	n/a	n/a	1.0	1	right	n/a	n/a	n/a	1	0.0354252919182	blockFiles/set_39/main_PD/GB_runPatches1.xlsx
164	patches	True	n/a	697	0	n/a	n/a	0.0	1	left	n/a	n/a	n/a	0	-0.0563209574111	blockFiles/set_39/main_PD/GB_runPatches1.xlsx
165	patches	True	n/a	697	0	n/a	n/a	1.0	1	right	n/a	n/a	n/a	1	0.04659174514930001	blockFiles/set_39/main_PD/GB_runPatches1.xlsx
166	patches	True	n/a	697	0	n/a	n/a	0.0	1	left	n/a	n/a	n/a	0	-0.0445878868178	blockFiles/set_39/main_PD/GB_runPatches1.xlsx
167	patches	True	n/a	697	0	n/a	n/a	1.0	0	right	n/a	n/a	n/a	0	-0.0297547344491	blockFiles/set_39/main_PD/GB_runPatches1.xlsx
168	patches	True	n/a	697	0	n/a	n/a	1.0	0	right	n/a	n/a	n/a	0	-0.00905391916633	blockFiles/set_39/main_PD/GB_runPatches1.xlsx
169	patches	True	n/a	697	0	n/a	n/a	1.0	1	right	n/a	n/a	n/a	1	0.046146031767100006	blockFiles/set_39/main_PD/GB_runPatches1.xlsx
170	patches	True	n/a	697	0	n/a	n/a	0.0	1	left	n/a	n/a	n/a	0	-0.07603635810319999	blockFiles/set_39/main_PD/GB_runPatches1.xlsx
171	patches	True	n/a	697	0	n/a	n/a	1.0	1	right	n/a	n/a	n/a	1	0.0403668304533	blockFiles/set_39/main_PD/GB_runPatches1.xlsx
172	patches	True	n/a	697	0	n/a	n/a	1.0	1	right	n/a	n/a	n/a	1	0.06322720739990001	blockFiles/set_39/main_PD/GB_runPatches1.xlsx
173	patches	True	n/a	697	0	n/a	n/a	1.0	1	right	n/a	n/a	n/a	1	0.028693456239999998	blockFiles/set_39/main_PD/GB_runPatches1.xlsx
174	patches	True	n/a	697	0	n/a	n/a	1.0	1	right	n/a	n/a	n/a	1	0.014401169531000001	blockFiles/set_39/main_PD/GB_runPatches1.xlsx
175	patches	True	n/a	697	0	n/a	n/a	1.0	1	right	n/a	n/a	n/a	1	0.033828446362200004	blockFiles/set_39/main_PD/GB_runPatches1.xlsx
176	patches	True	n/a	697	0	n/a	n/a	0.0	1	left	n/a	n/a	n/a	0	-0.0505270211771	blockFiles/set_39/main_PD/GB_runPatches1.xlsx
177	patches	True	n/a	697	0	n/a	n/a	1.0	1	right	n/a	n/a	n/a	1	0.0024355010874600003	blockFiles/set_39/main_PD/GB_runPatches1.xlsx
178	patches	True	n/a	697	0	n/a	n/a	1.0	0	right	n/a	n/a	n/a	0	-0.0230357773788	blockFiles/set_39/main_PD/GB_runPatches1.xlsx
179	patches	True	n/a	697	0	n/a	n/a	0.0	1	left	n/a	n/a	n/a	0	-0.0680823406018	blockFiles/set_39/main_PD/GB_runPatches1.xlsx
180	patches	True	n/a	697	0	n/a	n/a	1.0	1	right	n/a	n/a	n/a	1	0.0491616299935	blockFiles/set_39/main_PD/GB_runPatches1.xlsx
181	patches	True	n/a	697	0	n/a	n/a	0.0	1	left	n/a	n/a	n/a	0	-0.0650620311871	blockFiles/set_39/main_PD/GB_runPatches1.xlsx
182	patches	True	n/a	697	0	n/a	n/a	1.0	1	right	n/a	n/a	n/a	1	0.06073183529080001	blockFiles/set_39/main_PD/GB_runPatches1.xlsx
183	patches	True	n/a	697	0	n/a	n/a	0.0	1	left	n/a	n/a	n/a	0	-0.0316287514195	blockFiles/set_39/main_PD/GB_runPatches1.xlsx
184	patches	True	n/a	697	0	n/a	n/a	0.0	1	left	n/a	n/a	n/a	0	-0.023094709813599998	blockFiles/set_39/main_PD/GB_runPatches1.xlsx
185	patches	True	n/a	697	0	n/a	n/a	1.0	1	right	n/a	n/a	n/a	1	0.0688226032816	blockFiles/set_39/main_PD/GB_runPatches1.xlsx
186	patches	True	n/a	697	0	n/a	n/a	0.0	1	left	n/a	n/a	n/a	0	-0.010930208750100001	blockFiles/set_39/main_PD/GB_runPatches1.xlsx
187	patches	True	n/a	697	0	n/a	n/a	1.0	1	right	n/a	n/a	n/a	1	0.006346870847050001	blockFiles/set_39/main_PD/GB_runPatches1.xlsx
188	patches	True	n/a	697	0	n/a	n/a	0.0	1	left	n/a	n/a	n/a	0	-0.0518724818155	blockFiles/set_39/main_PD/GB_runPatches1.xlsx
189	patches	True	n/a	697	0	n/a	n/a	1.0	1	right	n/a	n/a	n/a	1	0.0532816447504	blockFiles/set_39/main_PD/GB_runPatches1.xlsx
190	patches	True	n/a	697	0	n/a	n/a	0.0	0	left	n/a	n/a	n/a	1	0.0344862718321	blockFiles/set_39/main_PD/GB_runPatches1.xlsx
191	patches	True	n/a	697	0	n/a	n/a	n/a	0	None	n/a	n/a	n/a	1	0.00491308948025	blockFiles/set_39/main_PD/GB_runPatches1.xlsx
192	patches	True	n/a	697	0	n/a	n/a	1.0	1	right	n/a	n/a	n/a	1	0.0774864830822	blockFiles/set_39/main_PD/GB_runPatches1.xlsx
193	patches	True	n/a	697	0	n/a	n/a	0.0	1	left	n/a	n/a	n/a	0	-0.025936164502099998	blockFiles/set_39/main_PD/GB_runPatches1.xlsx
194	patches	True	n/a	697	0	n/a	n/a	0.0	1	left	n/a	n/a	n/a	0	-0.0749948237836	blockFiles/set_39/main_PD/GB_runPatches1.xlsx
195	patches	True	n/a	697	0	n/a	n/a	1.0	0	right	n/a	n/a	n/a	0	-0.033922419696999995	blockFiles/set_39/main_PD/GB_runPatches1.xlsx
196	patches	True	n/a	697	0	n/a	n/a	0.0	1	left	n/a	n/a	n/a	0	-0.00127928918228	blockFiles/set_39/main_PD/GB_runPatches1.xlsx
197	patches	True	n/a	697	0	n/a	n/a	1.0	0	right	n/a	n/a	n/a	0	-0.06331691317259999	blockFiles/set_39/main_PD/GB_runPatches1.xlsx
198	patches	True	n/a	697	0	n/a	n/a	0.0	1	left	n/a	n/a	n/a	0	-0.0653971199878	blockFiles/set_39/main_PD/GB_runPatches1.xlsx
199	patches	True	n/a	697	0	n/a	n/a	0.0	1	left	n/a	n/a	n/a	0	-0.0300869587809	blockFiles/set_39/main_PD/GB_runPatches1.xlsx
200	patches	True	n/a	697	0	n/a	n/a	0.0	1	left	n/a	n/a	n/a	0	-0.07707536211239999	blockFiles/set_39/main_PD/GB_runPatches1.xlsx
201	patches	True	n/a	697	0	n/a	n/a	1.0	1	right	n/a	n/a	n/a	1	0.0497660930827	blockFiles/set_39/main_PD/GB_runPatches1.xlsx
202	patches	True	n/a	697	0	n/a	n/a	0.0	1	left	n/a	n/a	n/a	0	-0.048239808455099994	blockFiles/set_39/main_PD/GB_runPatches1.xlsx
203	patches	True	n/a	697	0	n/a	n/a	1.0	1	right	n/a	n/a	n/a	1	0.0405127747729	blockFiles/set_39/main_PD/GB_runPatches1.xlsx
204	patches	True	n/a	697	0	n/a	n/a	0.0	1	left	n/a	n/a	n/a	0	-0.009866637997329999	blockFiles/set_39/main_PD/GB_runPatches1.xlsx
205	patches	True	n/a	697	0	n/a	n/a	1.0	1	right	n/a	n/a	n/a	1	0.0433305244334	blockFiles/set_39/main_PD/GB_runPatches1.xlsx
206	patches	True	n/a	697	0	n/a	n/a	0.0	1	left	n/a	n/a	n/a	0	-0.0124399656616	blockFiles/set_39/main_PD/GB_runPatches1.xlsx
207	patches	True	n/a	697	0	n/a	n/a	0.0	1	left	n/a	n/a	n/a	0	-0.07722610117869999	blockFiles/set_39/main_PD/GB_runPatches1.xlsx
208	patches	True	n/a	697	0	n/a	n/a	0.0	1	left	n/a	n/a	n/a	0	-0.0664693639055	blockFiles/set_39/main_PD/GB_runPatches1.xlsx
209	patches	True	n/a	697	0	n/a	n/a	1.0	0	right	n/a	n/a	n/a	0	-0.0255580982193	blockFiles/set_39/main_PD/GB_runPatches1.xlsx
210	patches	True	n/a	697	0	n/a	n/a	1.0	1	right	n/a	n/a	n/a	1	0.0024932678230100004	blockFiles/set_39/main_PD/GB_runPatches1.xlsx
211	patches	True	n/a	697	0	n/a	n/a	1.0	1	right	n/a	n/a	n/a	1	0.071160728652	blockFiles/set_39/main_PD/GB_runPatches1.xlsx
212	patches	True	n/a	697	0	n/a	n/a	0.0	0	left	n/a	n/a	n/a	1	0.0153727883473	blockFiles/set_39/main_PD/GB_runPatches1.xlsx
213	patches	True	n/a	697	0	n/a	n/a	1.0	1	right	n/a	n/a	n/a	1	0.0430236640945	blockFiles/set_39/main_PD/GB_runPatches1.xlsx
214	patches	True	n/a	697	0	n/a	n/a	0.0	1	left	n/a	n/a	n/a	0	-0.0291745471209	blockFiles/set_39/main_PD/GB_runPatches1.xlsx
215	patches	True	n/a	697	0	n/a	n/a	1.0	1	right	n/a	n/a	n/a	1	0.0666179509088	blockFiles/set_39/main_PD/GB_runPatches1.xlsx
216	patches	True	n/a	697	0	n/a	n/a	1.0	1	right	n/a	n/a	n/a	1	0.07128715559839999	blockFiles/set_39/main_PD/GB_runPatches1.xlsx
217	patches	True	n/a	697	0	n/a	n/a	0.0	1	left	n/a	n/a	n/a	0	-0.0015126712620299998	blockFiles/set_39/main_PD/GB_runPatches1.xlsx
218	patches	True	n/a	697	0	n/a	n/a	1.0	1	right	n/a	n/a	n/a	1	0.0471340345591	blockFiles/set_39/main_PD/GB_runPatches1.xlsx
219	patches	True	n/a	697	0	n/a	n/a	1.0	1	right	n/a	n/a	n/a	1	0.069981752988	blockFiles/set_39/main_PD/GB_runPatches1.xlsx
220	patches	True	n/a	697	0	n/a	n/a	1.0	1	right	n/a	n/a	n/a	1	0.0285440457985	blockFiles/set_39/main_PD/GB_runPatches1.xlsx
221	patches	True	n/a	697	0	n/a	n/a	0.0	0	left	n/a	n/a	n/a	1	0.0010580481588799999	blockFiles/set_39/main_PD/GB_runPatches1.xlsx
222	patches	True	n/a	697	0	n/a	n/a	1.0	1	right	n/a	n/a	n/a	1	0.022524237688599996	blockFiles/set_39/main_PD/GB_runPatches1.xlsx
223	patches	True	n/a	697	0	n/a	n/a	0.0	1	left	n/a	n/a	n/a	0	-0.07818864801900001	blockFiles/set_39/main_PD/GB_runPatches1.xlsx
224	patches	True	n/a	697	0	n/a	n/a	0.0	1	left	n/a	n/a	n/a	0	-0.0227704676054	blockFiles/set_39/main_PD/GB_runPatches1.xlsx
225	patches	True	n/a	697	0	n/a	n/a	1.0	1	right	n/a	n/a	n/a	1	0.07903899742289999	blockFiles/set_39/main_PD/GB_runPatches1.xlsx
226	patches	True	n/a	697	0	n/a	n/a	0.0	0	left	n/a	n/a	n/a	1	0.0165849424526	blockFiles/set_39/main_PD/GB_runPatches1.xlsx
227	patches	True	n/a	697	0	n/a	n/a	1.0	1	right	n/a	n/a	n/a	1	0.0403281439282	blockFiles/set_39/main_PD/GB_runPatches1.xlsx
228	patches	True	n/a	697	0	n/a	n/a	1.0	1	right	n/a	n/a	n/a	1	0.06810870816930001	blockFiles/set_39/main_PD/GB_runPatches1.xlsx
229	patches	True	n/a	697	0	n/a	n/a	n/a	0	None	n/a	n/a	n/a	0	-0.0128624692187	blockFiles/set_39/main_PD/GB_runPatches1.xlsx
230	patches	True	n/a	697	0	n/a	n/a	n/a	0	None	n/a	n/a	n/a	0	-0.047595352586400005	blockFiles/set_39/main_PD/GB_runPatches1.xlsx
231	patches	True	n/a	697	0	n/a	n/a	1.0	1	right	n/a	n/a	n/a	1	0.035852845050400005	blockFiles/set_39/main_PD/GB_runPatches1.xlsx
232	patches	True	n/a	697	0	n/a	n/a	1.0	1	right	n/a	n/a	n/a	1	0.0697684241086	blockFiles/set_39/main_PD/GB_runPatches1.xlsx
233	patches	True	n/a	697	0	n/a	n/a	0.0	1	left	n/a	n/a	n/a	0	-0.0412600010633	blockFiles/set_39/main_PD/GB_runPatches1.xlsx
234	patches	True	n/a	697	0	n/a	n/a	n/a	0	None	n/a	n/a	n/a	1	0.029563470762200002	blockFiles/set_39/main_PD/GB_runPatches1.xlsx
235	patches	True	n/a	697	0	n/a	n/a	0.0	1	left	n/a	n/a	n/a	0	-0.058751185853	blockFiles/set_39/main_PD/GB_runPatches1.xlsx
236	patches	True	n/a	697	0	n/a	n/a	1.0	0	right	n/a	n/a	n/a	0	-0.00845104511827	blockFiles/set_39/main_PD/GB_runPatches1.xlsx
237	patches	True	n/a	697	0	n/a	n/a	1.0	1	right	n/a	n/a	n/a	1	0.033715851865699996	blockFiles/set_39/main_PD/GB_runPatches1.xlsx
238	patches	True	n/a	697	0	n/a	n/a	1.0	1	right	n/a	n/a	n/a	1	0.070192545671	blockFiles/set_39/main_PD/GB_runPatches1.xlsx
239	patches	True	n/a	697	0	n/a	n/a	0.0	1	left	n/a	n/a	n/a	0	-0.0306056334078	blockFiles/set_39/main_PD/GB_runPatches1.xlsx
240	patches	True	n/a	697	0	n/a	n/a	0.0	1	left	n/a	n/a	n/a	0	-0.0588383437321	blockFiles/set_39/main_PD/GB_runPatches1.xlsx
241	patches	True	n/a	697	0	n/a	n/a	0.0	1	left	n/a	n/a	n/a	0	-0.028075429685400003	blockFiles/set_39/main_PD/GB_runPatches1.xlsx
242	patches	True	n/a	697	0	n/a	n/a	1.0	0	right	n/a	n/a	n/a	0	-0.0509400863387	blockFiles/set_39/main_PD/GB_runPatches1.xlsx
243	patches	True	n/a	697	0	n/a	n/a	1.0	0	right	n/a	n/a	n/a	0	-0.024969623777999998	blockFiles/set_39/main_PD/GB_runPatches1.xlsx
244	patches	True	n/a	697	0	n/a	n/a	n/a	0	None	n/a	n/a	n/a	1	0.0040893916972	blockFiles/set_39/main_PD/GB_runPatches1.xlsx
245	patches	True	n/a	697	0	n/a	n/a	0.0	1	left	n/a	n/a	n/a	0	-0.0347604851238	blockFiles/set_39/main_PD/GB_runPatches1.xlsx
246	patches	True	n/a	697	0	n/a	n/a	0.0	1	left	n/a	n/a	n/a	0	-0.0428716986813	blockFiles/set_39/main_PD/GB_runPatches1.xlsx
247	patches	True	n/a	697	0	n/a	n/a	0.0	1	left	n/a	n/a	n/a	0	-0.059045227617	blockFiles/set_39/main_PD/GB_runPatches1.xlsx
248	patches	True	n/a	697	0	n/a	n/a	0.0	1	left	n/a	n/a	n/a	0	-0.045542570129	blockFiles/set_39/main_PD/GB_runPatches1.xlsx
249	patches	True	n/a	697	0	n/a	n/a	1.0	1	right	n/a	n/a	n/a	1	0.040911555811800004	blockFiles/set_39/main_PD/GB_runPatches1.xlsx
250	patches	True	n/a	697	0	n/a	n/a	1.0	1	right	n/a	n/a	n/a	1	0.0403916989826	blockFiles/set_39/main_PD/GB_runPatches1.xlsx
251	patches	True	n/a	697	0	n/a	n/a	0.0	1	left	n/a	n/a	n/a	0	-0.0211064922251	blockFiles/set_39/main_PD/GB_runPatches1.xlsx
252	patches	True	n/a	697	0	n/a	n/a	1.0	1	right	n/a	n/a	n/a	1	0.054468307755899996	blockFiles/set_39/main_PD/GB_runPatches1.xlsx
253	main_unc	True	0.0	697	0	0.0	0.0	1.0	1	right	2.0	0.0	0.0	1	0.055848408211000004	blockFiles/set_39/main_unc/leftBlue\GB_LB_5.xlsx
254	main_unc	True	0.0	697	0	0.0	0.0	1.0	1	right	1.0	1.0	1.0	1	0.0459346526489	blockFiles/set_39/main_unc/leftBlue\GB_LB_5.xlsx
255	main_unc	True	0.0	697	0	0.0	0.0	1.0	0	right	1.0	0.0	0.0	0	-0.00814787207171	blockFiles/set_39/main_unc/leftBlue\GB_LB_5.xlsx
256	main_unc	True	0.0	697	0	0.0	0.0	0.0	1	left	2.0	0.0	1.0	0	-0.0314840283431	blockFiles/set_39/main_unc/leftBlue\GB_LB_5.xlsx
257	main_unc	True	0.0	697	0	0.0	0.0	1.0	1	right	1.0	1.0	1.0	1	0.060508834105	blockFiles/set_39/main_unc/leftBlue\GB_LB_5.xlsx
258	main_unc	True	0.0	697	0	0.0	0.0	0.0	1	left	2.0	1.0	1.0	0	-0.0307060728967	blockFiles/set_39/main_unc/leftBlue\GB_LB_5.xlsx
259	main_unc	True	0.0	697	0	0.0	0.0	0.0	1	left	2.0	1.0	1.0	0	-0.0323136029765	blockFiles/set_39/main_unc/leftBlue\GB_LB_5.xlsx
260	main_unc	True	0.0	697	0	0.0	0.0	0.0	1	left	2.0	1.0	1.0	0	-0.0296551884338	blockFiles/set_39/main_unc/leftBlue\GB_LB_5.xlsx
261	main_unc	True	0.0	697	0	0.0	0.0	0.0	1	left	2.0	0.0	1.0	0	-0.040926599521199994	blockFiles/set_39/main_unc/leftBlue\GB_LB_5.xlsx
262	main_unc	True	0.0	697	0	0.0	0.0	0.0	1	left	2.0	0.0	1.0	0	-0.0462348900549	blockFiles/set_39/main_unc/leftBlue\GB_LB_5.xlsx
263	main_unc	True	0.0	697	0	0.0	0.0	0.0	1	left	2.0	1.0	1.0	0	-0.0231443492137	blockFiles/set_39/main_unc/leftBlue\GB_LB_5.xlsx
264	main_unc	True	0.0	697	0	0.0	0.0	1.0	1	right	1.0	0.0	1.0	1	0.0367716585472	blockFiles/set_39/main_unc/leftBlue\GB_LB_5.xlsx
265	main_unc	True	0.0	697	0	0.0	0.0	0.0	1	left	2.0	1.0	1.0	0	-0.0120265018009	blockFiles/set_39/main_unc/leftBlue\GB_LB_5.xlsx
266	main_unc	True	0.0	697	0	0.0	0.0	0.0	1	left	2.0	1.0	1.0	0	-0.0756161747687	blockFiles/set_39/main_unc/leftBlue\GB_LB_5.xlsx
267	main_unc	True	0.0	697	0	0.0	0.0	1.0	1	right	1.0	1.0	1.0	1	0.0278856515326	blockFiles/set_39/main_unc/leftBlue\GB_LB_5.xlsx
268	main_unc	True	0.0	697	0	0.0	0.0	0.0	1	left	2.0	0.0	1.0	0	-0.040367945116	blockFiles/set_39/main_unc/leftBlue\GB_LB_5.xlsx
269	main_unc	True	0.0	697	0	0.0	0.0	1.0	1	right	1.0	1.0	1.0	1	0.00455028375611	blockFiles/set_39/main_unc/leftBlue\GB_LB_5.xlsx
270	main_unc	True	0.0	697	0	0.0	0.0	0.0	1	left	2.0	1.0	1.0	0	-0.044304237924499994	blockFiles/set_39/main_unc/leftBlue\GB_LB_5.xlsx
271	main_unc	True	0.0	697	0	0.0	0.0	0.0	0	left	2.0	0.0	0.0	1	0.05035182124	blockFiles/set_39/main_unc/leftBlue\GB_LB_5.xlsx
272	main_unc	True	0.0	697	0	0.0	0.0	1.0	1	right	1.0	0.0	1.0	1	0.026417678892599997	blockFiles/set_39/main_unc/leftBlue\GB_LB_5.xlsx
273	main_unc	True	0.0	697	0	0.0	0.0	1.0	1	right	1.0	1.0	1.0	1	0.0736293854006	blockFiles/set_39/main_unc/leftBlue\GB_LB_5.xlsx
274	main_unc	True	0.0	697	0	0.0	0.0	1.0	1	right	1.0	1.0	1.0	1	0.0149274672568	blockFiles/set_39/main_unc/leftBlue\GB_LB_5.xlsx
275	main_unc	True	0.0	697	0	0.0	0.0	0.0	1	left	2.0	1.0	1.0	0	-0.028744539357699998	blockFiles/set_39/main_unc/leftBlue\GB_LB_5.xlsx
276	main_unc	True	0.0	697	0	0.0	0.0	0.0	0	left	2.0	0.0	0.0	1	0.012630112022200001	blockFiles/set_39/main_unc/leftBlue\GB_LB_5.xlsx
277	main_unc	True	0.0	697	0	0.0	0.0	1.0	1	right	1.0	1.0	1.0	1	0.074210766945	blockFiles/set_39/main_unc/leftBlue\GB_LB_5.xlsx
278	main_unc	True	0.0	697	0	1.0	1.0	1.0	1	right	1.0	1.0	0.0	1	0.021821174304900003	blockFiles/set_39/main_unc/rightBlue\GB_RB_6.xlsx
279	main_unc	True	0.0	697	0	1.0	1.0	1.0	1	right	1.0	0.0	0.0	1	0.0577086415142	blockFiles/set_39/main_unc/rightBlue\GB_RB_6.xlsx
280	main_unc	True	0.0	697	0	1.0	1.0	1.0	1	right	1.0	0.0	0.0	1	0.0409233658761	blockFiles/set_39/main_unc/rightBlue\GB_RB_6.xlsx
281	main_unc	True	0.0	697	0	1.0	1.0	0.0	1	left	1.0	0.0	1.0	0	-0.00838157346472	blockFiles/set_39/main_unc/rightBlue\GB_RB_6.xlsx
282	main_unc	True	0.0	697	0	1.0	1.0	1.0	1	right	1.0	0.0	0.0	1	0.0488916593976	blockFiles/set_39/main_unc/rightBlue\GB_RB_6.xlsx
283	main_unc	True	0.0	697	0	1.0	1.0	0.0	1	left	1.0	1.0	1.0	0	-0.0619154982455	blockFiles/set_39/main_unc/rightBlue\GB_RB_6.xlsx
284	main_unc	True	0.0	697	0	1.0	1.0	0.0	0	left	1.0	0.0	0.0	1	0.00443762073293	blockFiles/set_39/main_unc/rightBlue\GB_RB_6.xlsx
285	main_unc	True	0.0	697	0	1.0	1.0	0.0	1	left	1.0	1.0	1.0	0	-0.0404614687525	blockFiles/set_39/main_unc/rightBlue\GB_RB_6.xlsx
286	main_unc	True	0.0	697	0	1.0	1.0	0.0	1	left	1.0	0.0	1.0	0	-0.046227841638	blockFiles/set_39/main_unc/rightBlue\GB_RB_6.xlsx
287	main_unc	True	0.0	697	0	1.0	1.0	1.0	1	right	2.0	1.0	1.0	1	0.000553438197821	blockFiles/set_39/main_unc/rightBlue\GB_RB_6.xlsx
288	main_unc	True	0.0	697	0	1.0	1.0	0.0	1	left	1.0	0.0	1.0	0	-0.07188834523780001	blockFiles/set_39/main_unc/rightBlue\GB_RB_6.xlsx
289	main_unc	True	0.0	697	0	1.0	1.0	1.0	1	right	2.0	0.0	1.0	1	0.046663070861300004	blockFiles/set_39/main_unc/rightBlue\GB_RB_6.xlsx
290	main_unc	True	0.0	697	0	1.0	1.0	1.0	1	right	2.0	1.0	1.0	1	0.0776634505391	blockFiles/set_39/main_unc/rightBlue\GB_RB_6.xlsx
291	main_unc	True	0.0	697	0	1.0	1.0	0.0	1	left	1.0	1.0	1.0	0	-0.0432621478103	blockFiles/set_39/main_unc/rightBlue\GB_RB_6.xlsx
292	main_unc	True	0.0	697	0	1.0	1.0	0.0	1	left	1.0	1.0	1.0	0	-0.0318662004359	blockFiles/set_39/main_unc/rightBlue\GB_RB_6.xlsx
293	main_unc	True	0.0	697	0	1.0	1.0	0.0	1	left	1.0	1.0	1.0	0	-0.0716605455056	blockFiles/set_39/main_unc/rightBlue\GB_RB_6.xlsx
294	main_unc	True	0.0	697	0	1.0	1.0	1.0	1	right	2.0	1.0	1.0	1	0.03189496696000001	blockFiles/set_39/main_unc/rightBlue\GB_RB_6.xlsx
295	main_unc	True	0.0	697	0	1.0	1.0	1.0	0	right	2.0	1.0	0.0	0	-0.008327694516630001	blockFiles/set_39/main_unc/rightBlue\GB_RB_6.xlsx
296	main_unc	True	0.0	697	0	1.0	1.0	0.0	1	left	2.0	0.0	0.0	0	-0.056788016110699994	blockFiles/set_39/main_unc/rightBlue\GB_RB_6.xlsx
297	main_unc	True	0.0	697	0	1.0	1.0	0.0	1	left	1.0	1.0	1.0	0	-0.050013987030800004	blockFiles/set_39/main_unc/rightBlue\GB_RB_6.xlsx
298	main_unc	True	0.0	697	0	1.0	1.0	1.0	1	right	2.0	1.0	1.0	1	0.033786635696900005	blockFiles/set_39/main_unc/rightBlue\GB_RB_6.xlsx
299	main_unc	True	0.0	697	0	1.0	1.0	0.0	1	left	1.0	1.0	1.0	0	-0.0585787651688	blockFiles/set_39/main_unc/rightBlue\GB_RB_6.xlsx
300	main_unc	True	0.0	697	0	1.0	1.0	1.0	1	right	2.0	1.0	1.0	1	0.0118282414041	blockFiles/set_39/main_unc/rightBlue\GB_RB_6.xlsx
301	main_unc	True	0.0	697	0	1.0	1.0	1.0	1	right	2.0	1.0	1.0	1	0.0686309542321	blockFiles/set_39/main_unc/rightBlue\GB_RB_6.xlsx
302	main_unc	True	0.0	697	0	1.0	1.0	1.0	1	right	2.0	1.0	1.0	1	0.0689747774042	blockFiles/set_39/main_unc/rightBlue\GB_RB_6.xlsx
303	main_unc	True	0.0	697	0	2.0	2.0	0.0	1	left	1.0	0.0	0.0	0	-0.056843986921	blockFiles/set_39/main_unc/leftBlue\GB_LB_3.xlsx
304	main_unc	True	0.0	697	0	2.0	2.0	1.0	1	right	1.0	1.0	1.0	1	0.0697226191498	blockFiles/set_39/main_unc/leftBlue\GB_LB_3.xlsx
305	main_unc	True	0.0	697	0	2.0	2.0	1.0	1	right	1.0	1.0	1.0	1	0.0139522752725	blockFiles/set_39/main_unc/leftBlue\GB_LB_3.xlsx
306	main_unc	True	0.0	697	0	2.0	2.0	0.0	1	left	2.0	0.0	1.0	0	-0.0318394333683	blockFiles/set_39/main_unc/leftBlue\GB_LB_3.xlsx
307	main_unc	True	0.0	697	0	2.0	2.0	0.0	1	left	2.0	1.0	1.0	0	-0.0535025343671	blockFiles/set_39/main_unc/leftBlue\GB_LB_3.xlsx
308	main_unc	True	0.0	697	0	2.0	2.0	0.0	1	left	2.0	0.0	1.0	0	-0.0686192323454	blockFiles/set_39/main_unc/leftBlue\GB_LB_3.xlsx
309	main_unc	True	0.0	697	0	2.0	2.0	1.0	1	right	1.0	1.0	1.0	1	0.0337413637154	blockFiles/set_39/main_unc/leftBlue\GB_LB_3.xlsx
310	main_unc	True	0.0	697	0	2.0	2.0	1.0	1	right	2.0	1.0	0.0	1	0.045715809147800004	blockFiles/set_39/main_unc/leftBlue\GB_LB_3.xlsx
311	main_unc	True	0.0	697	0	2.0	2.0	1.0	1	right	2.0	0.0	0.0	1	0.0213630004041	blockFiles/set_39/main_unc/leftBlue\GB_LB_3.xlsx
312	main_unc	True	0.0	697	0	2.0	2.0	1.0	1	right	1.0	1.0	1.0	1	0.010727047044799999	blockFiles/set_39/main_unc/leftBlue\GB_LB_3.xlsx
313	main_unc	True	0.0	697	0	2.0	2.0	0.0	1	left	2.0	1.0	1.0	0	-0.0672151021846	blockFiles/set_39/main_unc/leftBlue\GB_LB_3.xlsx
314	main_unc	True	0.0	697	0	2.0	2.0	1.0	0	right	1.0	0.0	0.0	0	-0.0269653469697	blockFiles/set_39/main_unc/leftBlue\GB_LB_3.xlsx
315	main_unc	True	0.0	697	0	2.0	2.0	0.0	1	left	2.0	1.0	1.0	0	-0.0763184112497	blockFiles/set_39/main_unc/leftBlue\GB_LB_3.xlsx
316	main_unc	True	0.0	697	0	2.0	2.0	1.0	1	right	1.0	1.0	1.0	1	0.0710916130245	blockFiles/set_39/main_unc/leftBlue\GB_LB_3.xlsx
317	main_unc	True	0.0	697	0	2.0	2.0	0.0	1	left	2.0	1.0	1.0	0	-0.0215833985806	blockFiles/set_39/main_unc/leftBlue\GB_LB_3.xlsx
318	main_unc	True	0.0	697	0	2.0	2.0	1.0	1	right	1.0	1.0	1.0	1	0.0589379266649	blockFiles/set_39/main_unc/leftBlue\GB_LB_3.xlsx
319	main_unc	True	0.0	697	0	2.0	2.0	1.0	1	right	1.0	1.0	1.0	1	0.027167284432799997	blockFiles/set_39/main_unc/leftBlue\GB_LB_3.xlsx
320	main_unc	True	0.0	697	0	2.0	2.0	0.0	1	left	2.0	1.0	1.0	0	-0.0342801738158	blockFiles/set_39/main_unc/leftBlue\GB_LB_3.xlsx
321	main_unc	True	0.0	697	0	2.0	2.0	1.0	1	right	1.0	1.0	1.0	1	0.00747188972309	blockFiles/set_39/main_unc/leftBlue\GB_LB_3.xlsx
322	main_unc	True	1.0	697	0	2.0	2.0	n/a	0	None	n/a	0.0	n/a	1	0.052812496256099996	blockFiles/set_39/main_unc/leftBlue\GB_LB_3.xlsx
323	main_unc	True	0.0	697	0	2.0	2.0	0.0	1	left	2.0	1.0	1.0	0	-0.031603600643599995	blockFiles/set_39/main_unc/leftBlue\GB_LB_3.xlsx
324	main_unc	True	0.0	697	0	2.0	2.0	1.0	1	right	1.0	1.0	1.0	1	0.0571187567897	blockFiles/set_39/main_unc/leftBlue\GB_LB_3.xlsx
325	main_unc	True	0.0	697	0	2.0	2.0	1.0	1	right	1.0	1.0	1.0	1	0.0762515856326	blockFiles/set_39/main_unc/leftBlue\GB_LB_3.xlsx
326	main_unc	True	0.0	697	0	2.0	2.0	0.0	1	left	2.0	1.0	1.0	0	-0.0660672238097	blockFiles/set_39/main_unc/leftBlue\GB_LB_3.xlsx
327	main_unc	True	0.0	697	0	2.0	2.0	1.0	1	right	2.0	0.0	0.0	1	0.00893667977303	blockFiles/set_39/main_unc/leftBlue\GB_LB_3.xlsx
328	main_unc	True	0.0	697	0	2.0	2.0	1.0	1	right	1.0	0.0	1.0	1	0.052812496256099996	blockFiles/set_39/main_unc/leftBlue\GB_LB_3.xlsx
329	main_unc	True	0.0	697	0	3.0	3.0	0.0	1	left	1.0	0.0	1.0	0	-0.00845176206902	blockFiles/set_39/main_unc/rightBlue\GB_RB_4.xlsx
330	main_unc	True	0.0	697	0	3.0	3.0	1.0	1	right	1.0	0.0	0.0	1	0.055606350451699996	blockFiles/set_39/main_unc/rightBlue\GB_RB_4.xlsx
331	main_unc	True	0.0	697	0	3.0	3.0	0.0	1	left	2.0	0.0	0.0	0	-0.0427558887936	blockFiles/set_39/main_unc/rightBlue\GB_RB_4.xlsx
332	main_unc	True	0.0	697	0	3.0	3.0	0.0	0	left	2.0	0.0	1.0	1	0.0438332326896	blockFiles/set_39/main_unc/rightBlue\GB_RB_4.xlsx
333	main_unc	True	0.0	697	0	3.0	3.0	1.0	1	right	2.0	1.0	1.0	1	0.0358755596168	blockFiles/set_39/main_unc/rightBlue\GB_RB_4.xlsx
334	main_unc	True	0.0	697	0	3.0	3.0	1.0	1	right	2.0	1.0	1.0	1	0.030754195861499998	blockFiles/set_39/main_unc/rightBlue\GB_RB_4.xlsx
335	main_unc	True	0.0	697	0	3.0	3.0	1.0	1	right	2.0	1.0	1.0	1	0.0270258659124	blockFiles/set_39/main_unc/rightBlue\GB_RB_4.xlsx
336	main_unc	True	1.0	697	0	3.0	3.0	n/a	0	None	n/a	0.0	n/a	0	-0.0403205410577	blockFiles/set_39/main_unc/rightBlue\GB_RB_4.xlsx
337	main_unc	True	0.0	697	0	3.0	3.0	1.0	1	right	2.0	1.0	1.0	1	0.051168555039900004	blockFiles/set_39/main_unc/rightBlue\GB_RB_4.xlsx
338	main_unc	True	0.0	697	0	3.0	3.0	1.0	1	right	2.0	0.0	1.0	1	0.0462940032594	blockFiles/set_39/main_unc/rightBlue\GB_RB_4.xlsx
339	main_unc	True	0.0	697	0	3.0	3.0	0.0	1	left	1.0	1.0	1.0	0	-0.0433993477374	blockFiles/set_39/main_unc/rightBlue\GB_RB_4.xlsx
340	main_unc	True	0.0	697	0	3.0	3.0	0.0	1	left	1.0	1.0	1.0	0	-0.0732254688442	blockFiles/set_39/main_unc/rightBlue\GB_RB_4.xlsx
341	main_unc	True	0.0	697	0	3.0	3.0	0.0	1	left	1.0	1.0	1.0	0	-0.0367158936337	blockFiles/set_39/main_unc/rightBlue\GB_RB_4.xlsx
342	main_unc	True	0.0	697	0	3.0	3.0	0.0	1	left	1.0	1.0	1.0	0	-0.053628750126800004	blockFiles/set_39/main_unc/rightBlue\GB_RB_4.xlsx
343	main_unc	True	0.0	697	0	3.0	3.0	0.0	0	left	2.0	1.0	1.0	1	0.0329011080042	blockFiles/set_39/main_unc/rightBlue\GB_RB_4.xlsx
344	main_unc	True	0.0	697	0	3.0	3.0	1.0	1	right	2.0	1.0	1.0	1	0.05780795535069999	blockFiles/set_39/main_unc/rightBlue\GB_RB_4.xlsx
345	main_unc	True	0.0	697	0	3.0	3.0	1.0	1	right	2.0	1.0	1.0	1	0.0104351901449	blockFiles/set_39/main_unc/rightBlue\GB_RB_4.xlsx
346	main_unc	True	0.0	697	0	3.0	3.0	1.0	0	right	1.0	1.0	1.0	0	-0.0015613405592700001	blockFiles/set_39/main_unc/rightBlue\GB_RB_4.xlsx
347	main_unc	True	0.0	697	0	3.0	3.0	1.0	1	right	2.0	1.0	1.0	1	0.0586565332115	blockFiles/set_39/main_unc/rightBlue\GB_RB_4.xlsx
348	main_unc	True	0.0	697	0	3.0	3.0	0.0	1	left	1.0	1.0	1.0	0	-0.0756061364152	blockFiles/set_39/main_unc/rightBlue\GB_RB_4.xlsx
349	main_unc	True	0.0	697	0	3.0	3.0	1.0	1	right	2.0	1.0	1.0	1	0.0537479174323	blockFiles/set_39/main_unc/rightBlue\GB_RB_4.xlsx
350	main_unc	True	0.0	697	0	3.0	3.0	1.0	1	right	2.0	1.0	1.0	1	0.048357100989699996	blockFiles/set_39/main_unc/rightBlue\GB_RB_4.xlsx
351	main_unc	True	0.0	697	0	3.0	3.0	0.0	1	left	1.0	1.0	1.0	0	-0.018965702578400002	blockFiles/set_39/main_unc/rightBlue\GB_RB_4.xlsx
352	main_unc	True	0.0	697	0	3.0	3.0	0.0	1	left	1.0	1.0	1.0	0	-0.0668084227294	blockFiles/set_39/main_unc/rightBlue\GB_RB_4.xlsx
353	main_unc	True	0.0	697	0	3.0	3.0	1.0	1	right	2.0	1.0	1.0	1	0.05703918654469999	blockFiles/set_39/main_unc/rightBlue\GB_RB_4.xlsx
354	main_unc	True	0.0	697	0	3.0	3.0	0.0	1	left	1.0	0.0	1.0	0	-0.0403205410577	blockFiles/set_39/main_unc/rightBlue\GB_RB_4.xlsx
355	main_unc	True	0.0	697	0	4.0	4.0	1.0	1	right	1.0	1.0	1.0	1	0.036267949044699994	blockFiles/set_39/main_unc/leftBlue\GB_LB_4.xlsx
356	main_unc	True	0.0	697	0	4.0	4.0	1.0	0	right	1.0	0.0	0.0	0	-0.00397418031469	blockFiles/set_39/main_unc/leftBlue\GB_LB_4.xlsx
357	main_unc	True	0.0	697	0	4.0	4.0	1.0	1	right	1.0	1.0	1.0	1	0.036330936309	blockFiles/set_39/main_unc/leftBlue\GB_LB_4.xlsx
358	main_unc	True	0.0	697	0	4.0	4.0	1.0	1	right	1.0	0.0	1.0	1	0.0583124372177	blockFiles/set_39/main_unc/leftBlue\GB_LB_4.xlsx
359	main_unc	True	0.0	697	0	4.0	4.0	1.0	1	right	1.0	1.0	1.0	1	0.0679979048111	blockFiles/set_39/main_unc/leftBlue\GB_LB_4.xlsx
360	main_unc	True	0.0	697	0	4.0	4.0	0.0	1	left	2.0	1.0	1.0	0	-0.0258079990931	blockFiles/set_39/main_unc/leftBlue\GB_LB_4.xlsx
361	main_unc	True	0.0	697	0	4.0	4.0	1.0	1	right	1.0	1.0	1.0	1	0.0344745636731	blockFiles/set_39/main_unc/leftBlue\GB_LB_4.xlsx
362	main_unc	True	0.0	697	0	4.0	4.0	0.0	1	left	2.0	0.0	1.0	0	-0.0499713581055	blockFiles/set_39/main_unc/leftBlue\GB_LB_4.xlsx
363	main_unc	True	0.0	697	0	4.0	4.0	1.0	1	right	1.0	0.0	1.0	1	0.057942487001400006	blockFiles/set_39/main_unc/leftBlue\GB_LB_4.xlsx
364	main_unc	True	0.0	697	0	4.0	4.0	1.0	0	right	1.0	0.0	0.0	0	-0.000629246458411	blockFiles/set_39/main_unc/leftBlue\GB_LB_4.xlsx
365	main_unc	True	0.0	697	0	4.0	4.0	0.0	1	left	2.0	1.0	1.0	0	-0.06743770660830001	blockFiles/set_39/main_unc/leftBlue\GB_LB_4.xlsx
366	main_unc	True	0.0	697	0	4.0	4.0	1.0	1	right	1.0	1.0	1.0	1	0.0602046675421	blockFiles/set_39/main_unc/leftBlue\GB_LB_4.xlsx
367	main_unc	True	0.0	697	0	4.0	4.0	0.0	0	left	1.0	0.0	1.0	1	0.023322874698799997	blockFiles/set_39/main_unc/leftBlue\GB_LB_4.xlsx
368	main_unc	True	0.0	697	0	4.0	4.0	1.0	0	right	1.0	0.0	0.0	0	-0.00935005223379	blockFiles/set_39/main_unc/leftBlue\GB_LB_4.xlsx
369	main_unc	True	0.0	697	0	4.0	4.0	1.0	0	right	2.0	0.0	1.0	0	-0.021813212093000002	blockFiles/set_39/main_unc/leftBlue\GB_LB_4.xlsx
370	main_unc	True	0.0	697	0	4.0	4.0	1.0	1	right	1.0	1.0	1.0	1	0.0694945355505	blockFiles/set_39/main_unc/leftBlue\GB_LB_4.xlsx
371	main_unc	True	0.0	697	0	4.0	4.0	1.0	1	right	1.0	1.0	1.0	1	0.0208061152138	blockFiles/set_39/main_unc/leftBlue\GB_LB_4.xlsx
372	main_unc	True	0.0	697	0	4.0	4.0	0.0	1	left	2.0	1.0	1.0	0	-0.04801629576830001	blockFiles/set_39/main_unc/leftBlue\GB_LB_4.xlsx
373	main_unc	True	0.0	697	0	4.0	4.0	0.0	1	left	2.0	1.0	1.0	0	-0.060593418218199996	blockFiles/set_39/main_unc/leftBlue\GB_LB_4.xlsx
374	main_unc	True	0.0	697	0	4.0	4.0	1.0	0	right	1.0	0.0	0.0	0	-0.0183743279427	blockFiles/set_39/main_unc/leftBlue\GB_LB_4.xlsx
375	main_unc	True	0.0	697	0	4.0	4.0	0.0	1	left	2.0	1.0	1.0	0	-0.050796065945199996	blockFiles/set_39/main_unc/leftBlue\GB_LB_4.xlsx
376	main_unc	True	0.0	697	0	4.0	4.0	1.0	1	right	1.0	1.0	1.0	1	0.035708094239199996	blockFiles/set_39/main_unc/leftBlue\GB_LB_4.xlsx
377	main_unc	True	0.0	697	0	4.0	4.0	1.0	1	right	1.0	1.0	1.0	1	0.0630997139215	blockFiles/set_39/main_unc/leftBlue\GB_LB_4.xlsx
378	main_unc	True	0.0	697	0	4.0	4.0	1.0	1	right	1.0	1.0	1.0	1	0.055929717644999995	blockFiles/set_39/main_unc/leftBlue\GB_LB_4.xlsx
379	main_unc	True	0.0	697	0	4.0	4.0	1.0	0	right	1.0	0.0	0.0	0	-0.0310963673703	blockFiles/set_39/main_unc/leftBlue\GB_LB_4.xlsx
380	main_unc	True	0.0	697	0	5.0	5.0	1.0	1	right	2.0	0.0	1.0	1	0.0707935028709	blockFiles/set_39/main_unc/rightBlue\GB_RB_1.xlsx
381	main_unc	True	0.0	697	0	5.0	5.0	0.0	1	left	2.0	0.0	0.0	0	-0.0578878707998	blockFiles/set_39/main_unc/rightBlue\GB_RB_1.xlsx
382	main_unc	True	0.0	697	0	5.0	5.0	1.0	0	right	1.0	1.0	1.0	0	-0.012440966479499998	blockFiles/set_39/main_unc/rightBlue\GB_RB_1.xlsx
383	main_unc	True	0.0	697	0	5.0	5.0	1.0	1	right	1.0	0.0	0.0	1	0.0672919326834	blockFiles/set_39/main_unc/rightBlue\GB_RB_1.xlsx
384	main_unc	True	0.0	697	0	5.0	5.0	0.0	1	left	2.0	0.0	0.0	0	-0.0711778375879	blockFiles/set_39/main_unc/rightBlue\GB_RB_1.xlsx
385	main_unc	True	0.0	697	0	5.0	5.0	1.0	1	right	2.0	1.0	1.0	1	0.0051054681465	blockFiles/set_39/main_unc/rightBlue\GB_RB_1.xlsx
386	main_unc	True	0.0	697	0	5.0	5.0	0.0	1	left	1.0	1.0	1.0	0	-0.0669760166295	blockFiles/set_39/main_unc/rightBlue\GB_RB_1.xlsx
387	main_unc	True	0.0	697	0	5.0	5.0	1.0	0	right	2.0	0.0	0.0	0	-0.010264912843700002	blockFiles/set_39/main_unc/rightBlue\GB_RB_1.xlsx
388	main_unc	True	0.0	697	0	5.0	5.0	1.0	1	right	2.0	0.0	1.0	1	0.0740189827234	blockFiles/set_39/main_unc/rightBlue\GB_RB_1.xlsx
389	main_unc	True	0.0	697	0	5.0	5.0	1.0	1	right	2.0	1.0	1.0	1	0.06674947179849999	blockFiles/set_39/main_unc/rightBlue\GB_RB_1.xlsx
390	main_unc	True	0.0	697	0	5.0	5.0	0.0	1	left	1.0	0.0	1.0	0	-0.0108803192154	blockFiles/set_39/main_unc/rightBlue\GB_RB_1.xlsx
391	main_unc	True	0.0	697	0	5.0	5.0	0.0	0	left	1.0	0.0	0.0	1	0.0134243103676	blockFiles/set_39/main_unc/rightBlue\GB_RB_1.xlsx
392	main_unc	True	0.0	697	0	5.0	5.0	1.0	0	right	2.0	0.0	0.0	0	-0.0274085777067	blockFiles/set_39/main_unc/rightBlue\GB_RB_1.xlsx
393	main_unc	True	0.0	697	0	5.0	5.0	1.0	0	right	1.0	1.0	1.0	0	-0.014346722513399999	blockFiles/set_39/main_unc/rightBlue\GB_RB_1.xlsx
394	main_unc	True	0.0	697	0	5.0	5.0	0.0	1	left	2.0	0.0	0.0	0	-0.061040232833500005	blockFiles/set_39/main_unc/rightBlue\GB_RB_1.xlsx
395	main_unc	True	1.0	697	0	5.0	5.0	n/a	0	None	n/a	0.0	n/a	0	-0.0268414632045	blockFiles/set_39/main_unc/rightBlue\GB_RB_1.xlsx
396	main_unc	True	0.0	697	0	5.0	5.0	0.0	1	left	2.0	0.0	0.0	0	-0.032621726915199996	blockFiles/set_39/main_unc/rightBlue\GB_RB_1.xlsx
397	main_unc	True	0.0	697	0	5.0	5.0	0.0	1	left	1.0	1.0	1.0	0	-0.0781147019938	blockFiles/set_39/main_unc/rightBlue\GB_RB_1.xlsx
398	main_unc	True	0.0	697	0	5.0	5.0	1.0	1	right	2.0	1.0	1.0	1	0.0197442611121	blockFiles/set_39/main_unc/rightBlue\GB_RB_1.xlsx
399	main_unc	True	0.0	697	0	5.0	5.0	0.0	0	left	2.0	1.0	1.0	1	0.0358113922365	blockFiles/set_39/main_unc/rightBlue\GB_RB_1.xlsx
400	main_unc	True	0.0	697	0	5.0	5.0	1.0	1	right	2.0	1.0	1.0	1	0.029351960551	blockFiles/set_39/main_unc/rightBlue\GB_RB_1.xlsx
401	main_unc	True	0.0	697	0	5.0	5.0	1.0	1	right	2.0	1.0	1.0	1	0.0267531061172	blockFiles/set_39/main_unc/rightBlue\GB_RB_1.xlsx
402	main_unc	True	0.0	697	0	5.0	5.0	0.0	1	left	1.0	1.0	1.0	0	-0.0167508589476	blockFiles/set_39/main_unc/rightBlue\GB_RB_1.xlsx
403	main_unc	True	0.0	697	0	5.0	5.0	0.0	0	left	2.0	1.0	1.0	1	0.0379248171858	blockFiles/set_39/main_unc/rightBlue\GB_RB_1.xlsx
404	main_unc	True	0.0	697	0	5.0	5.0	0.0	1	left	1.0	0.0	1.0	0	-0.07126201871780001	blockFiles/set_39/main_unc/rightBlue\GB_RB_1.xlsx
405	main_unc	True	0.0	697	0	5.0	5.0	1.0	0	right	2.0	0.0	0.0	0	-0.0268414632045	blockFiles/set_39/main_unc/rightBlue\GB_RB_1.xlsx
406	main_unc	True	0.0	697	0	6.0	6.0	0.0	1	left	2.0	1.0	0.0	0	-0.0480616658367	blockFiles/set_39/main_unc/rightBlue\GB_RB_3.xlsx
407	main_unc	True	0.0	697	0	6.0	6.0	1.0	1	right	1.0	0.0	0.0	1	0.0613516949303	blockFiles/set_39/main_unc/rightBlue\GB_RB_3.xlsx
408	main_unc	True	0.0	697	0	6.0	6.0	1.0	1	right	1.0	0.0	0.0	1	0.013155039176300001	blockFiles/set_39/main_unc/rightBlue\GB_RB_3.xlsx
409	main_unc	True	0.0	697	0	6.0	6.0	0.0	1	left	2.0	1.0	0.0	0	-0.0594843471423	blockFiles/set_39/main_unc/rightBlue\GB_RB_3.xlsx
410	main_unc	True	0.0	697	0	6.0	6.0	1.0	1	right	1.0	1.0	0.0	1	0.026849891245400003	blockFiles/set_39/main_unc/rightBlue\GB_RB_3.xlsx
411	main_unc	True	0.0	697	0	6.0	6.0	1.0	1	right	1.0	0.0	0.0	1	0.0316197096743	blockFiles/set_39/main_unc/rightBlue\GB_RB_3.xlsx
412	main_unc	True	0.0	697	0	6.0	6.0	1.0	1	right	1.0	1.0	0.0	1	0.0503974434733	blockFiles/set_39/main_unc/rightBlue\GB_RB_3.xlsx
413	main_unc	True	0.0	697	0	6.0	6.0	1.0	1	right	1.0	0.0	0.0	1	0.07639744149519999	blockFiles/set_39/main_unc/rightBlue\GB_RB_3.xlsx
414	main_unc	True	0.0	697	0	6.0	6.0	1.0	1	right	1.0	0.0	0.0	1	0.07767928211019999	blockFiles/set_39/main_unc/rightBlue\GB_RB_3.xlsx
415	main_unc	True	0.0	697	0	6.0	6.0	0.0	1	left	2.0	0.0	0.0	0	-0.0235618587397	blockFiles/set_39/main_unc/rightBlue\GB_RB_3.xlsx
416	main_unc	True	0.0	697	0	6.0	6.0	1.0	1	right	1.0	0.0	0.0	1	0.0437508743815	blockFiles/set_39/main_unc/rightBlue\GB_RB_3.xlsx
417	main_unc	True	0.0	697	0	6.0	6.0	0.0	1	left	2.0	0.0	0.0	0	-0.0354322576337	blockFiles/set_39/main_unc/rightBlue\GB_RB_3.xlsx
418	main_unc	True	0.0	697	0	6.0	6.0	0.0	1	left	1.0	1.0	1.0	0	-0.010087786540399999	blockFiles/set_39/main_unc/rightBlue\GB_RB_3.xlsx
419	main_unc	True	0.0	697	0	6.0	6.0	0.0	1	left	1.0	0.0	1.0	0	-0.07902602486310001	blockFiles/set_39/main_unc/rightBlue\GB_RB_3.xlsx
420	main_unc	True	0.0	697	0	6.0	6.0	0.0	1	left	2.0	0.0	0.0	0	-0.029905886855	blockFiles/set_39/main_unc/rightBlue\GB_RB_3.xlsx
421	main_unc	True	0.0	697	0	6.0	6.0	1.0	1	right	1.0	0.0	0.0	1	0.06576042570169999	blockFiles/set_39/main_unc/rightBlue\GB_RB_3.xlsx
422	main_unc	True	0.0	697	0	6.0	6.0	1.0	1	right	1.0	0.0	0.0	1	0.059873811435	blockFiles/set_39/main_unc/rightBlue\GB_RB_3.xlsx
423	main_unc	True	0.0	697	0	6.0	6.0	0.0	1	left	1.0	1.0	1.0	0	-0.0325432585366	blockFiles/set_39/main_unc/rightBlue\GB_RB_3.xlsx
424	main_unc	True	0.0	697	0	6.0	6.0	1.0	1	right	2.0	1.0	1.0	1	0.0150176078081	blockFiles/set_39/main_unc/rightBlue\GB_RB_3.xlsx
425	main_unc	True	0.0	697	0	6.0	6.0	0.0	1	left	1.0	1.0	1.0	0	-0.05114423060790001	blockFiles/set_39/main_unc/rightBlue\GB_RB_3.xlsx
426	main_unc	True	0.0	697	0	6.0	6.0	0.0	0	left	1.0	0.0	0.0	1	0.0360006352887	blockFiles/set_39/main_unc/rightBlue\GB_RB_3.xlsx
427	main_unc	True	0.0	697	0	6.0	6.0	0.0	1	left	1.0	1.0	1.0	0	-1.01610645652e-05	blockFiles/set_39/main_unc/rightBlue\GB_RB_3.xlsx
428	main_unc	True	0.0	697	0	6.0	6.0	0.0	1	left	1.0	1.0	1.0	0	-0.0156284541078	blockFiles/set_39/main_unc/rightBlue\GB_RB_3.xlsx
429	main_unc	True	0.0	697	0	6.0	6.0	1.0	0	right	2.0	1.0	0.0	0	-0.0616278794594	blockFiles/set_39/main_unc/rightBlue\GB_RB_3.xlsx
430	main_unc	True	0.0	697	0	6.0	6.0	1.0	1	right	2.0	1.0	1.0	1	0.050555316843099996	blockFiles/set_39/main_unc/rightBlue\GB_RB_3.xlsx
431	main_unc	True	0.0	697	0	7.0	7.0	0.0	1	left	2.0	1.0	0.0	0	-0.0475046456046	blockFiles/set_39/main_unc/rightBlue\GB_RB_5.xlsx
432	main_unc	True	0.0	697	0	7.0	7.0	0.0	1	left	2.0	0.0	0.0	0	-0.0588762878068	blockFiles/set_39/main_unc/rightBlue\GB_RB_5.xlsx
433	main_unc	True	0.0	697	0	7.0	7.0	0.0	1	left	2.0	0.0	0.0	0	-0.0543177783489	blockFiles/set_39/main_unc/rightBlue\GB_RB_5.xlsx
434	main_unc	True	0.0	697	0	7.0	7.0	1.0	0	right	2.0	0.0	0.0	0	-0.0073162619397	blockFiles/set_39/main_unc/rightBlue\GB_RB_5.xlsx
435	main_unc	True	0.0	697	0	7.0	7.0	1.0	0	right	2.0	0.0	0.0	0	-0.0171707856655	blockFiles/set_39/main_unc/rightBlue\GB_RB_5.xlsx
436	main_unc	True	0.0	697	0	7.0	7.0	0.0	1	left	2.0	0.0	0.0	0	-0.0520710027032	blockFiles/set_39/main_unc/rightBlue\GB_RB_5.xlsx
437	main_unc	True	0.0	697	0	7.0	7.0	0.0	1	left	2.0	0.0	0.0	0	-0.0214120578393	blockFiles/set_39/main_unc/rightBlue\GB_RB_5.xlsx
438	main_unc	True	0.0	697	0	7.0	7.0	0.0	1	left	2.0	0.0	0.0	0	-0.03434266489	blockFiles/set_39/main_unc/rightBlue\GB_RB_5.xlsx
439	main_unc	True	0.0	697	0	7.0	7.0	1.0	1	right	1.0	0.0	0.0	1	0.0351640628092	blockFiles/set_39/main_unc/rightBlue\GB_RB_5.xlsx
440	main_unc	True	0.0	697	0	7.0	7.0	1.0	1	right	1.0	0.0	0.0	1	0.042140999436400005	blockFiles/set_39/main_unc/rightBlue\GB_RB_5.xlsx
441	main_unc	True	0.0	697	0	7.0	7.0	1.0	1	right	2.0	0.0	1.0	1	0.0630170373991	blockFiles/set_39/main_unc/rightBlue\GB_RB_5.xlsx
442	main_unc	True	0.0	697	0	7.0	7.0	0.0	1	left	2.0	0.0	0.0	0	-0.036804296094900005	blockFiles/set_39/main_unc/rightBlue\GB_RB_5.xlsx
443	main_unc	True	0.0	697	0	7.0	7.0	1.0	1	right	2.0	1.0	1.0	1	0.0254878164642	blockFiles/set_39/main_unc/rightBlue\GB_RB_5.xlsx
444	main_unc	True	0.0	697	0	7.0	7.0	0.0	0	left	1.0	0.0	0.0	1	0.0041660868749	blockFiles/set_39/main_unc/rightBlue\GB_RB_5.xlsx
445	main_unc	True	0.0	697	0	7.0	7.0	1.0	1	right	2.0	0.0	1.0	1	0.0119465001114	blockFiles/set_39/main_unc/rightBlue\GB_RB_5.xlsx
446	main_unc	True	0.0	697	0	7.0	7.0	1.0	1	right	2.0	1.0	1.0	1	0.07966190125789999	blockFiles/set_39/main_unc/rightBlue\GB_RB_5.xlsx
447	main_unc	True	0.0	697	0	7.0	7.0	1.0	1	right	2.0	1.0	1.0	1	0.025391562730099997	blockFiles/set_39/main_unc/rightBlue\GB_RB_5.xlsx
448	main_unc	True	1.0	697	0	7.0	7.0	n/a	0	None	n/a	0.0	n/a	0	-0.0417121037841	blockFiles/set_39/main_unc/rightBlue\GB_RB_5.xlsx
449	main_unc	True	0.0	697	0	7.0	7.0	0.0	1	left	1.0	1.0	1.0	0	-0.0690639480203	blockFiles/set_39/main_unc/rightBlue\GB_RB_5.xlsx
450	main_unc	True	0.0	697	0	7.0	7.0	1.0	0	right	2.0	0.0	0.0	0	-0.0240467943437	blockFiles/set_39/main_unc/rightBlue\GB_RB_5.xlsx
451	main_unc	True	0.0	697	0	7.0	7.0	1.0	1	right	2.0	1.0	1.0	1	0.050335852094	blockFiles/set_39/main_unc/rightBlue\GB_RB_5.xlsx
452	main_unc	True	0.0	697	0	7.0	7.0	1.0	1	right	2.0	1.0	1.0	1	0.059310111645599996	blockFiles/set_39/main_unc/rightBlue\GB_RB_5.xlsx
453	main_unc	True	0.0	697	0	7.0	7.0	1.0	1	right	2.0	1.0	1.0	1	0.022420622427	blockFiles/set_39/main_unc/rightBlue\GB_RB_5.xlsx
454	main_unc	True	0.0	697	0	7.0	7.0	1.0	1	right	2.0	1.0	1.0	1	0.0347345252335	blockFiles/set_39/main_unc/rightBlue\GB_RB_5.xlsx
455	main_unc	True	0.0	697	0	7.0	7.0	1.0	1	right	2.0	0.0	1.0	1	0.045493777301199995	blockFiles/set_39/main_unc/rightBlue\GB_RB_5.xlsx
456	main_unc	True	0.0	697	0	7.0	7.0	0.0	1	left	1.0	1.0	1.0	0	-0.0417121037841	blockFiles/set_39/main_unc/rightBlue\GB_RB_5.xlsx
457	main_unc	True	0.0	697	0	8.0	8.0	1.0	0	right	2.0	0.0	0.0	0	-0.0109264392778	blockFiles/set_39/main_unc/rightBlue\GB_RB_2.xlsx
458	main_unc	True	0.0	697	0	8.0	8.0	0.0	1	left	2.0	0.0	0.0	0	-0.0416490445845	blockFiles/set_39/main_unc/rightBlue\GB_RB_2.xlsx
459	main_unc	True	0.0	697	0	8.0	8.0	1.0	1	right	1.0	0.0	0.0	1	0.051466527395	blockFiles/set_39/main_unc/rightBlue\GB_RB_2.xlsx
460	main_unc	True	0.0	697	0	8.0	8.0	1.0	1	right	2.0	0.0	1.0	1	0.04472249960530001	blockFiles/set_39/main_unc/rightBlue\GB_RB_2.xlsx
461	main_unc	True	0.0	697	0	8.0	8.0	0.0	1	left	2.0	0.0	0.0	0	-0.021117723435200002	blockFiles/set_39/main_unc/rightBlue\GB_RB_2.xlsx
462	main_unc	True	0.0	697	0	8.0	8.0	0.0	0	left	1.0	0.0	0.0	1	0.054687123969199995	blockFiles/set_39/main_unc/rightBlue\GB_RB_2.xlsx
463	main_unc	True	0.0	697	0	8.0	8.0	1.0	0	right	1.0	1.0	1.0	0	-0.010989928022	blockFiles/set_39/main_unc/rightBlue\GB_RB_2.xlsx
464	main_unc	True	0.0	697	0	8.0	8.0	0.0	1	left	2.0	1.0	0.0	0	-0.051175550539	blockFiles/set_39/main_unc/rightBlue\GB_RB_2.xlsx
465	main_unc	True	0.0	697	0	8.0	8.0	1.0	1	right	1.0	0.0	0.0	1	0.009970732368530001	blockFiles/set_39/main_unc/rightBlue\GB_RB_2.xlsx
466	main_unc	True	0.0	697	0	8.0	8.0	1.0	0	right	1.0	1.0	1.0	0	-0.0313764885627	blockFiles/set_39/main_unc/rightBlue\GB_RB_2.xlsx
467	main_unc	True	0.0	697	0	8.0	8.0	0.0	1	left	2.0	0.0	0.0	0	-0.07965142771599999	blockFiles/set_39/main_unc/rightBlue\GB_RB_2.xlsx
468	main_unc	True	0.0	697	0	8.0	8.0	1.0	1	right	1.0	0.0	0.0	1	0.0678218810819	blockFiles/set_39/main_unc/rightBlue\GB_RB_2.xlsx
469	main_unc	True	0.0	697	0	8.0	8.0	0.0	1	left	2.0	0.0	0.0	0	-0.0383219021372	blockFiles/set_39/main_unc/rightBlue\GB_RB_2.xlsx
470	main_unc	True	0.0	697	0	8.0	8.0	1.0	1	right	1.0	0.0	0.0	1	0.0061381767876400005	blockFiles/set_39/main_unc/rightBlue\GB_RB_2.xlsx
471	main_unc	True	0.0	697	0	8.0	8.0	1.0	1	right	1.0	0.0	0.0	1	0.0769052917697	blockFiles/set_39/main_unc/rightBlue\GB_RB_2.xlsx
472	main_unc	True	0.0	697	0	8.0	8.0	1.0	1	right	2.0	1.0	1.0	1	0.0102805745974	blockFiles/set_39/main_unc/rightBlue\GB_RB_2.xlsx
473	main_unc	True	0.0	697	0	8.0	8.0	1.0	1	right	2.0	1.0	1.0	1	0.0278264145367	blockFiles/set_39/main_unc/rightBlue\GB_RB_2.xlsx
474	main_unc	True	0.0	697	0	8.0	8.0	1.0	1	right	2.0	0.0	1.0	1	0.0433644184656	blockFiles/set_39/main_unc/rightBlue\GB_RB_2.xlsx
475	main_unc	True	0.0	697	0	8.0	8.0	1.0	1	right	2.0	1.0	1.0	1	0.059610443022099995	blockFiles/set_39/main_unc/rightBlue\GB_RB_2.xlsx
476	main_unc	True	0.0	697	0	8.0	8.0	0.0	1	left	1.0	1.0	1.0	0	-0.0729300939292	blockFiles/set_39/main_unc/rightBlue\GB_RB_2.xlsx
477	main_unc	True	0.0	697	0	8.0	8.0	1.0	1	right	2.0	1.0	1.0	1	0.0273599519581	blockFiles/set_39/main_unc/rightBlue\GB_RB_2.xlsx
478	main_unc	True	0.0	697	0	8.0	8.0	0.0	1	left	1.0	1.0	1.0	0	-0.035454642642300006	blockFiles/set_39/main_unc/rightBlue\GB_RB_2.xlsx
479	main_unc	True	0.0	697	0	8.0	8.0	0.0	1	left	1.0	0.0	1.0	0	-0.046148972660300006	blockFiles/set_39/main_unc/rightBlue\GB_RB_2.xlsx
480	main_unc	True	0.0	697	0	8.0	8.0	0.0	1	left	1.0	1.0	1.0	0	-0.0405908199027	blockFiles/set_39/main_unc/rightBlue\GB_RB_2.xlsx
481	main_unc	True	0.0	697	0	8.0	8.0	0.0	1	left	1.0	0.0	1.0	0	-0.00460646884516	blockFiles/set_39/main_unc/rightBlue\GB_RB_2.xlsx
482	main_unc	True	0.0	697	0	9.0	9.0	0.0	1	left	1.0	1.0	0.0	0	-0.015556183327	blockFiles/set_39/main_unc/leftBlue\GB_LB_2.xlsx
483	main_unc	True	0.0	697	0	9.0	9.0	0.0	1	left	1.0	0.0	0.0	0	-0.047189923170999994	blockFiles/set_39/main_unc/leftBlue\GB_LB_2.xlsx
484	main_unc	True	0.0	697	0	9.0	9.0	0.0	1	left	1.0	0.0	0.0	0	-0.0233406637795	blockFiles/set_39/main_unc/leftBlue\GB_LB_2.xlsx
485	main_unc	True	0.0	697	0	9.0	9.0	1.0	1	right	2.0	1.0	0.0	1	0.0557021971792	blockFiles/set_39/main_unc/leftBlue\GB_LB_2.xlsx
486	main_unc	True	0.0	697	0	9.0	9.0	0.0	1	left	1.0	0.0	0.0	0	-0.0639485610835	blockFiles/set_39/main_unc/leftBlue\GB_LB_2.xlsx
487	main_unc	True	0.0	697	0	9.0	9.0	1.0	1	right	2.0	0.0	0.0	1	0.0690084657632	blockFiles/set_39/main_unc/leftBlue\GB_LB_2.xlsx
488	main_unc	True	0.0	697	0	9.0	9.0	1.0	1	right	2.0	0.0	0.0	1	0.0456219287962	blockFiles/set_39/main_unc/leftBlue\GB_LB_2.xlsx
489	main_unc	True	0.0	697	0	9.0	9.0	1.0	0	right	2.0	1.0	1.0	0	-0.012129162959799999	blockFiles/set_39/main_unc/leftBlue\GB_LB_2.xlsx
490	main_unc	True	0.0	697	0	9.0	9.0	1.0	1	right	2.0	0.0	0.0	1	0.00684297796339	blockFiles/set_39/main_unc/leftBlue\GB_LB_2.xlsx
491	main_unc	True	0.0	697	0	9.0	9.0	1.0	1	right	2.0	0.0	0.0	1	0.05223837880419999	blockFiles/set_39/main_unc/leftBlue\GB_LB_2.xlsx
492	main_unc	True	0.0	697	0	9.0	9.0	0.0	1	left	1.0	1.0	0.0	0	-0.0244368456304	blockFiles/set_39/main_unc/leftBlue\GB_LB_2.xlsx
493	main_unc	True	0.0	697	0	9.0	9.0	1.0	1	right	2.0	0.0	0.0	1	0.0578211697377	blockFiles/set_39/main_unc/leftBlue\GB_LB_2.xlsx
494	main_unc	True	0.0	697	0	9.0	9.0	0.0	1	left	1.0	0.0	0.0	0	-0.0677160997875	blockFiles/set_39/main_unc/leftBlue\GB_LB_2.xlsx
495	main_unc	True	0.0	697	0	9.0	9.0	1.0	1	right	1.0	1.0	1.0	1	0.050476728063099996	blockFiles/set_39/main_unc/leftBlue\GB_LB_2.xlsx
496	main_unc	True	0.0	697	0	9.0	9.0	0.0	1	left	2.0	1.0	1.0	0	-0.0114168533124	blockFiles/set_39/main_unc/leftBlue\GB_LB_2.xlsx
497	main_unc	True	0.0	697	0	9.0	9.0	1.0	1	right	1.0	1.0	1.0	1	0.0250957664289	blockFiles/set_39/main_unc/leftBlue\GB_LB_2.xlsx
498	main_unc	True	0.0	697	0	9.0	9.0	0.0	1	left	2.0	1.0	1.0	0	-0.0372350584716	blockFiles/set_39/main_unc/leftBlue\GB_LB_2.xlsx
499	main_unc	True	0.0	697	0	9.0	9.0	0.0	1	left	2.0	0.0	1.0	0	-0.0503438315354	blockFiles/set_39/main_unc/leftBlue\GB_LB_2.xlsx
500	main_unc	True	0.0	697	0	9.0	9.0	1.0	1	right	1.0	1.0	1.0	1	0.0220364446752	blockFiles/set_39/main_unc/leftBlue\GB_LB_2.xlsx
501	main_unc	True	0.0	697	0	9.0	9.0	1.0	1	right	1.0	1.0	1.0	1	0.06186430804430001	blockFiles/set_39/main_unc/leftBlue\GB_LB_2.xlsx
502	main_unc	True	0.0	697	0	9.0	9.0	0.0	0	left	2.0	0.0	0.0	1	0.00204854987562	blockFiles/set_39/main_unc/leftBlue\GB_LB_2.xlsx
503	main_unc	True	1.0	697	0	9.0	9.0	n/a	0	None	n/a	0.0	n/a	0	-0.04306990657	blockFiles/set_39/main_unc/leftBlue\GB_LB_2.xlsx
504	main_unc	True	0.0	697	0	9.0	9.0	1.0	1	right	1.0	1.0	1.0	1	0.06021208135409999	blockFiles/set_39/main_unc/leftBlue\GB_LB_2.xlsx
505	main_unc	True	0.0	697	0	9.0	9.0	0.0	1	left	2.0	0.0	1.0	0	-0.0237846691906	blockFiles/set_39/main_unc/leftBlue\GB_LB_2.xlsx
506	main_unc	True	0.0	697	0	9.0	9.0	1.0	1	right	1.0	0.0	1.0	1	0.0065285624377399995	blockFiles/set_39/main_unc/leftBlue\GB_LB_2.xlsx
507	main_unc	True	0.0	697	0	9.0	9.0	0.0	1	left	2.0	1.0	1.0	0	-0.04306990657	blockFiles/set_39/main_unc/leftBlue\GB_LB_2.xlsx
508	main_unc	True	0.0	697	0	10.0	10.0	1.0	1	right	1.0	1.0	1.0	1	0.041277660988300005	blockFiles/set_39/main_unc/leftBlue\GB_LB_1.xlsx
509	main_unc	True	0.0	697	0	10.0	10.0	0.0	1	left	2.0	1.0	1.0	0	-0.026274521574400002	blockFiles/set_39/main_unc/leftBlue\GB_LB_1.xlsx
510	main_unc	True	0.0	697	0	10.0	10.0	1.0	1	right	1.0	0.0	1.0	1	0.0188560728543	blockFiles/set_39/main_unc/leftBlue\GB_LB_1.xlsx
511	main_unc	True	0.0	697	0	10.0	10.0	0.0	1	left	2.0	0.0	1.0	0	-0.023298615627000002	blockFiles/set_39/main_unc/leftBlue\GB_LB_1.xlsx
512	main_unc	True	0.0	697	0	10.0	10.0	0.0	1	left	2.0	1.0	1.0	0	-0.0691554933973	blockFiles/set_39/main_unc/leftBlue\GB_LB_1.xlsx
513	main_unc	True	0.0	697	0	10.0	10.0	1.0	1	right	1.0	1.0	1.0	1	0.041047494616400004	blockFiles/set_39/main_unc/leftBlue\GB_LB_1.xlsx
514	main_unc	True	0.0	697	0	10.0	10.0	1.0	1	right	1.0	1.0	1.0	1	0.076299971547	blockFiles/set_39/main_unc/leftBlue\GB_LB_1.xlsx
515	main_unc	True	0.0	697	0	10.0	10.0	0.0	1	left	2.0	1.0	1.0	0	-0.0267023148201	blockFiles/set_39/main_unc/leftBlue\GB_LB_1.xlsx
516	main_unc	True	0.0	697	0	10.0	10.0	0.0	1	left	2.0	1.0	1.0	0	-0.0510112991184	blockFiles/set_39/main_unc/leftBlue\GB_LB_1.xlsx
517	main_unc	True	0.0	697	0	10.0	10.0	1.0	1	right	1.0	1.0	1.0	1	0.027440630663200002	blockFiles/set_39/main_unc/leftBlue\GB_LB_1.xlsx
518	main_unc	True	0.0	697	0	10.0	10.0	0.0	1	left	2.0	1.0	1.0	0	-0.06313357131559999	blockFiles/set_39/main_unc/leftBlue\GB_LB_1.xlsx
519	main_unc	True	0.0	697	0	10.0	10.0	1.0	1	right	1.0	1.0	1.0	1	0.0408375374973	blockFiles/set_39/main_unc/leftBlue\GB_LB_1.xlsx
520	main_unc	True	0.0	697	0	10.0	10.0	1.0	0	right	1.0	0.0	0.0	0	-0.0274271644093	blockFiles/set_39/main_unc/leftBlue\GB_LB_1.xlsx
521	main_unc	True	0.0	697	0	10.0	10.0	0.0	1	left	2.0	1.0	1.0	0	-0.040986571200199995	blockFiles/set_39/main_unc/leftBlue\GB_LB_1.xlsx
522	main_unc	True	0.0	697	0	10.0	10.0	1.0	1	right	1.0	1.0	1.0	1	0.00833424443379	blockFiles/set_39/main_unc/leftBlue\GB_LB_1.xlsx
523	main_unc	True	0.0	697	0	10.0	10.0	1.0	1	right	1.0	1.0	1.0	1	0.06842734571550001	blockFiles/set_39/main_unc/leftBlue\GB_LB_1.xlsx
524	main_unc	True	0.0	697	0	10.0	10.0	1.0	1	right	1.0	1.0	1.0	1	0.0293356374651	blockFiles/set_39/main_unc/leftBlue\GB_LB_1.xlsx
525	main_unc	True	0.0	697	0	10.0	10.0	0.0	0	left	2.0	0.0	0.0	1	0.0061272311396899995	blockFiles/set_39/main_unc/leftBlue\GB_LB_1.xlsx
526	main_unc	True	0.0	697	0	10.0	10.0	1.0	0	right	1.0	0.0	0.0	0	-0.020281817168	blockFiles/set_39/main_unc/leftBlue\GB_LB_1.xlsx
527	main_unc	True	0.0	697	0	10.0	10.0	1.0	1	right	1.0	1.0	1.0	1	0.0641631908715	blockFiles/set_39/main_unc/leftBlue\GB_LB_1.xlsx
528	main_unc	True	0.0	697	0	10.0	10.0	0.0	1	left	2.0	0.0	1.0	0	-0.0518816707656	blockFiles/set_39/main_unc/leftBlue\GB_LB_1.xlsx
529	main_unc	True	0.0	697	0	10.0	10.0	0.0	1	left	2.0	1.0	1.0	0	-0.0745898640901	blockFiles/set_39/main_unc/leftBlue\GB_LB_1.xlsx
530	main_unc	True	0.0	697	0	10.0	10.0	1.0	1	right	1.0	1.0	1.0	1	0.030531464126	blockFiles/set_39/main_unc/leftBlue\GB_LB_1.xlsx
531	main_unc	True	0.0	697	0	10.0	10.0	1.0	1	right	1.0	0.0	1.0	1	0.0044464770332	blockFiles/set_39/main_unc/leftBlue\GB_LB_1.xlsx
532	main_unc	True	0.0	697	0	10.0	10.0	1.0	1	right	2.0	0.0	0.0	1	0.0070627699233599996	blockFiles/set_39/main_unc/leftBlue\GB_LB_1.xlsx
533	main_unc	True	0.0	697	0	11.0	11.0	0.0	1	left	1.0	1.0	0.0	0	-0.06637466423209999	blockFiles/set_39/main_unc/leftBlue\GB_LB_6.xlsx
534	main_unc	True	0.0	697	0	11.0	11.0	0.0	1	left	1.0	0.0	0.0	0	-0.017284049652499998	blockFiles/set_39/main_unc/leftBlue\GB_LB_6.xlsx
535	main_unc	True	0.0	697	0	11.0	11.0	1.0	1	right	2.0	0.0	0.0	1	0.05997261920940001	blockFiles/set_39/main_unc/leftBlue\GB_LB_6.xlsx
536	main_unc	True	0.0	697	0	11.0	11.0	0.0	0	left	1.0	1.0	1.0	1	0.00186619887128	blockFiles/set_39/main_unc/leftBlue\GB_LB_6.xlsx
537	main_unc	True	0.0	697	0	11.0	11.0	0.0	1	left	1.0	0.0	0.0	0	-0.0722184470668	blockFiles/set_39/main_unc/leftBlue\GB_LB_6.xlsx
538	main_unc	True	1.0	697	0	11.0	11.0	n/a	0	None	n/a	0.0	n/a	0	-0.06175097242000001	blockFiles/set_39/main_unc/leftBlue\GB_LB_6.xlsx
539	main_unc	True	0.0	697	0	11.0	11.0	1.0	1	right	2.0	0.0	0.0	1	0.05843629997219999	blockFiles/set_39/main_unc/leftBlue\GB_LB_6.xlsx
540	main_unc	True	0.0	697	0	11.0	11.0	1.0	1	right	2.0	0.0	0.0	1	0.0278870923258	blockFiles/set_39/main_unc/leftBlue\GB_LB_6.xlsx
541	main_unc	True	0.0	697	0	11.0	11.0	0.0	0	left	2.0	0.0	0.0	1	0.00593741236255	blockFiles/set_39/main_unc/leftBlue\GB_LB_6.xlsx
542	main_unc	True	0.0	697	0	11.0	11.0	0.0	1	left	1.0	0.0	0.0	0	-0.0407255402952	blockFiles/set_39/main_unc/leftBlue\GB_LB_6.xlsx
543	main_unc	True	0.0	697	0	11.0	11.0	1.0	1	right	1.0	1.0	1.0	1	0.0138344158605	blockFiles/set_39/main_unc/leftBlue\GB_LB_6.xlsx
544	main_unc	True	0.0	697	0	11.0	11.0	0.0	1	left	2.0	1.0	1.0	0	-0.00406202798709	blockFiles/set_39/main_unc/leftBlue\GB_LB_6.xlsx
545	main_unc	True	0.0	697	0	11.0	11.0	1.0	1	right	1.0	1.0	1.0	1	0.05700654895980001	blockFiles/set_39/main_unc/leftBlue\GB_LB_6.xlsx
546	main_unc	True	0.0	697	0	11.0	11.0	1.0	1	right	1.0	1.0	1.0	1	0.0426147841103	blockFiles/set_39/main_unc/leftBlue\GB_LB_6.xlsx
547	main_unc	True	0.0	697	0	11.0	11.0	1.0	1	right	1.0	1.0	1.0	1	0.0510054473393	blockFiles/set_39/main_unc/leftBlue\GB_LB_6.xlsx
548	main_unc	True	0.0	697	0	11.0	11.0	0.0	1	left	2.0	1.0	1.0	0	-0.0312740688026	blockFiles/set_39/main_unc/leftBlue\GB_LB_6.xlsx
549	main_unc	True	0.0	697	0	11.0	11.0	0.0	1	left	2.0	0.0	1.0	0	-0.023999746572199998	blockFiles/set_39/main_unc/leftBlue\GB_LB_6.xlsx
550	main_unc	True	0.0	697	0	11.0	11.0	1.0	1	right	1.0	0.0	1.0	1	0.053290680609599995	blockFiles/set_39/main_unc/leftBlue\GB_LB_6.xlsx
551	main_unc	True	0.0	697	0	11.0	11.0	0.0	1	left	2.0	1.0	1.0	0	-0.0537005060166	blockFiles/set_39/main_unc/leftBlue\GB_LB_6.xlsx
552	main_unc	True	1.0	697	0	11.0	11.0	0.0	0	left	n/a	0.0	n/a	1	0.0019974533841	blockFiles/set_39/main_unc/leftBlue\GB_LB_6.xlsx
553	main_unc	True	0.0	697	0	11.0	11.0	0.0	1	left	2.0	1.0	1.0	0	-0.018259619921400003	blockFiles/set_39/main_unc/leftBlue\GB_LB_6.xlsx
554	main_unc	True	0.0	697	0	11.0	11.0	1.0	1	right	1.0	1.0	1.0	1	0.06447729658340001	blockFiles/set_39/main_unc/leftBlue\GB_LB_6.xlsx
555	main_unc	True	0.0	697	0	11.0	11.0	0.0	1	left	2.0	0.0	1.0	0	-0.0315468479134	blockFiles/set_39/main_unc/leftBlue\GB_LB_6.xlsx
556	main_unc	True	0.0	697	0	11.0	11.0	0.0	1	left	2.0	1.0	1.0	0	-0.07950908778239998	blockFiles/set_39/main_unc/leftBlue\GB_LB_6.xlsx
557	main_unc	True	0.0	697	0	11.0	11.0	1.0	0	right	1.0	1.0	0.0	0	-0.028975494206	blockFiles/set_39/main_unc/leftBlue\GB_LB_6.xlsx
558	main_unc	True	0.0	697	0	11.0	11.0	0.0	1	left	2.0	0.0	1.0	0	-0.06175097242000001	blockFiles/set_39/main_unc/leftBlue\GB_LB_6.xlsx
559	main_unc	True	0.0	697	0	11.0	11.0	0.0	0	left	2.0	0.0	0.0	1	0.0019974533841	blockFiles/set_39/main_unc/leftBlue\GB_LB_6.xlsx
