	trial_type	complete	missIndex	participant	id	blockNumber	b_t	d_t	decision1.corr	decision1.keys	a_t	r_t	decision2.corr	s_t	u_t	block_file
0	main_safe	True	0.0	277	0	0.0	0.0	1.0	1	right	1.0	0.0	0.0	1	0.08	blockFiles/set_11/main_safe/rightBlue\GB_RB_1.xlsx
1	main_safe	True	0.0	277	0	0.0	0.0	1.0	1	right	1.0	0.0	0.0	1	0.08	blockFiles/set_11/main_safe/rightBlue\GB_RB_1.xlsx
2	main_safe	True	0.0	277	0	0.0	0.0	1.0	1	right	2.0	1.0	1.0	1	0.08	blockFiles/set_11/main_safe/rightBlue\GB_RB_1.xlsx
3	main_safe	True	0.0	277	0	0.0	0.0	0.0	1	left	1.0	1.0	1.0	0	-0.08	blockFiles/set_11/main_safe/rightBlue\GB_RB_1.xlsx
4	main_safe	True	0.0	277	0	0.0	0.0	0.0	1	left	1.0	1.0	1.0	0	-0.08	blockFiles/set_11/main_safe/rightBlue\GB_RB_1.xlsx
5	main_safe	True	0.0	277	0	0.0	0.0	0.0	1	left	1.0	1.0	1.0	0	-0.08	blockFiles/set_11/main_safe/rightBlue\GB_RB_1.xlsx
6	main_safe	True	0.0	277	0	0.0	0.0	1.0	1	right	2.0	0.0	1.0	1	0.08	blockFiles/set_11/main_safe/rightBlue\GB_RB_1.xlsx
7	main_safe	True	0.0	277	0	0.0	0.0	1.0	1	right	2.0	1.0	1.0	1	0.08	blockFiles/set_11/main_safe/rightBlue\GB_RB_1.xlsx
8	main_safe	True	0.0	277	0	0.0	0.0	0.0	1	left	1.0	1.0	1.0	0	-0.08	blockFiles/set_11/main_safe/rightBlue\GB_RB_1.xlsx
9	main_safe	True	0.0	277	0	0.0	0.0	0.0	1	left	1.0	1.0	1.0	0	-0.08	blockFiles/set_11/main_safe/rightBlue\GB_RB_1.xlsx
10	main_safe	True	0.0	277	0	0.0	0.0	0.0	1	left	1.0	0.0	1.0	0	-0.08	blockFiles/set_11/main_safe/rightBlue\GB_RB_1.xlsx
11	main_safe	True	0.0	277	0	0.0	0.0	1.0	1	right	2.0	1.0	1.0	1	0.08	blockFiles/set_11/main_safe/rightBlue\GB_RB_1.xlsx
12	main_safe	True	0.0	277	0	0.0	0.0	0.0	1	left	1.0	1.0	1.0	0	-0.08	blockFiles/set_11/main_safe/rightBlue\GB_RB_1.xlsx
13	main_safe	True	0.0	277	0	0.0	0.0	0.0	1	left	1.0	1.0	1.0	0	-0.08	blockFiles/set_11/main_safe/rightBlue\GB_RB_1.xlsx
14	main_safe	True	0.0	277	0	0.0	0.0	0.0	1	left	1.0	1.0	1.0	0	-0.08	blockFiles/set_11/main_safe/rightBlue\GB_RB_1.xlsx
15	main_safe	True	0.0	277	0	0.0	0.0	1.0	1	right	2.0	1.0	1.0	1	0.08	blockFiles/set_11/main_safe/rightBlue\GB_RB_1.xlsx
16	main_safe	True	0.0	277	0	0.0	0.0	1.0	1	right	1.0	0.0	0.0	1	0.08	blockFiles/set_11/main_safe/rightBlue\GB_RB_1.xlsx
17	main_safe	True	0.0	277	0	0.0	0.0	0.0	1	left	1.0	1.0	1.0	0	-0.08	blockFiles/set_11/main_safe/rightBlue\GB_RB_1.xlsx
18	main_safe	True	0.0	277	0	0.0	0.0	0.0	1	left	1.0	1.0	1.0	0	-0.08	blockFiles/set_11/main_safe/rightBlue\GB_RB_1.xlsx
19	main_safe	True	0.0	277	0	0.0	0.0	0.0	1	left	1.0	0.0	1.0	0	-0.08	blockFiles/set_11/main_safe/rightBlue\GB_RB_1.xlsx
20	main_safe	True	0.0	277	0	0.0	0.0	1.0	1	right	1.0	0.0	0.0	1	0.08	blockFiles/set_11/main_safe/rightBlue\GB_RB_1.xlsx
21	main_safe	True	0.0	277	0	0.0	0.0	1.0	1	right	2.0	1.0	1.0	1	0.08	blockFiles/set_11/main_safe/rightBlue\GB_RB_1.xlsx
22	main_safe	True	0.0	277	0	0.0	0.0	0.0	1	left	2.0	0.0	0.0	0	-0.08	blockFiles/set_11/main_safe/rightBlue\GB_RB_1.xlsx
23	main_safe	True	0.0	277	0	0.0	0.0	0.0	1	left	1.0	0.0	1.0	0	-0.08	blockFiles/set_11/main_safe/rightBlue\GB_RB_1.xlsx
24	main_safe	True	0.0	277	0	0.0	0.0	1.0	1	right	2.0	1.0	1.0	1	0.08	blockFiles/set_11/main_safe/rightBlue\GB_RB_1.xlsx
25	main_safe	True	0.0	277	0	1.0	1.0	1.0	1	right	2.0	0.0	0.0	1	0.08	blockFiles/set_11/main_safe/leftBlue\GB_LB_2.xlsx
26	main_safe	True	0.0	277	0	1.0	1.0	0.0	1	left	2.0	1.0	1.0	0	-0.08	blockFiles/set_11/main_safe/leftBlue\GB_LB_2.xlsx
27	main_safe	True	0.0	277	0	1.0	1.0	1.0	1	right	1.0	1.0	1.0	1	0.08	blockFiles/set_11/main_safe/leftBlue\GB_LB_2.xlsx
28	main_safe	True	0.0	277	0	1.0	1.0	1.0	1	right	1.0	1.0	1.0	1	0.08	blockFiles/set_11/main_safe/leftBlue\GB_LB_2.xlsx
29	main_safe	True	0.0	277	0	1.0	1.0	1.0	1	right	1.0	1.0	1.0	1	0.08	blockFiles/set_11/main_safe/leftBlue\GB_LB_2.xlsx
30	main_safe	True	0.0	277	0	1.0	1.0	0.0	1	left	2.0	1.0	1.0	0	-0.08	blockFiles/set_11/main_safe/leftBlue\GB_LB_2.xlsx
31	main_safe	True	0.0	277	0	1.0	1.0	1.0	1	right	1.0	1.0	1.0	1	0.08	blockFiles/set_11/main_safe/leftBlue\GB_LB_2.xlsx
32	main_safe	True	0.0	277	0	1.0	1.0	1.0	1	right	2.0	1.0	0.0	1	0.08	blockFiles/set_11/main_safe/leftBlue\GB_LB_2.xlsx
33	main_safe	True	0.0	277	0	1.0	1.0	1.0	1	right	1.0	1.0	1.0	1	0.08	blockFiles/set_11/main_safe/leftBlue\GB_LB_2.xlsx
34	main_safe	True	0.0	277	0	1.0	1.0	0.0	1	left	2.0	1.0	1.0	0	-0.08	blockFiles/set_11/main_safe/leftBlue\GB_LB_2.xlsx
35	main_safe	True	1.0	277	0	1.0	1.0	0.0	1	left	n/a	0.0	n/a	0	-0.08	blockFiles/set_11/main_safe/leftBlue\GB_LB_2.xlsx
36	main_safe	True	0.0	277	0	1.0	1.0	0.0	1	left	2.0	1.0	1.0	0	-0.08	blockFiles/set_11/main_safe/leftBlue\GB_LB_2.xlsx
37	main_safe	True	0.0	277	0	1.0	1.0	0.0	1	left	2.0	1.0	1.0	0	-0.08	blockFiles/set_11/main_safe/leftBlue\GB_LB_2.xlsx
38	main_safe	True	0.0	277	0	1.0	1.0	1.0	1	right	1.0	1.0	1.0	1	0.08	blockFiles/set_11/main_safe/leftBlue\GB_LB_2.xlsx
39	main_safe	True	0.0	277	0	1.0	1.0	0.0	1	left	2.0	0.0	1.0	0	-0.08	blockFiles/set_11/main_safe/leftBlue\GB_LB_2.xlsx
40	main_safe	True	0.0	277	0	1.0	1.0	1.0	1	right	1.0	1.0	1.0	1	0.08	blockFiles/set_11/main_safe/leftBlue\GB_LB_2.xlsx
41	main_safe	True	0.0	277	0	1.0	1.0	1.0	1	right	1.0	1.0	1.0	1	0.08	blockFiles/set_11/main_safe/leftBlue\GB_LB_2.xlsx
42	main_safe	True	0.0	277	0	1.0	1.0	0.0	1	left	2.0	1.0	1.0	0	-0.08	blockFiles/set_11/main_safe/leftBlue\GB_LB_2.xlsx
43	main_safe	True	0.0	277	0	1.0	1.0	0.0	1	left	2.0	0.0	1.0	0	-0.08	blockFiles/set_11/main_safe/leftBlue\GB_LB_2.xlsx
44	main_safe	True	0.0	277	0	1.0	1.0	0.0	1	left	2.0	0.0	1.0	0	-0.08	blockFiles/set_11/main_safe/leftBlue\GB_LB_2.xlsx
45	main_safe	True	0.0	277	0	1.0	1.0	1.0	1	right	1.0	1.0	1.0	1	0.08	blockFiles/set_11/main_safe/leftBlue\GB_LB_2.xlsx
46	main_safe	True	0.0	277	0	1.0	1.0	1.0	1	right	1.0	1.0	1.0	1	0.08	blockFiles/set_11/main_safe/leftBlue\GB_LB_2.xlsx
47	main_safe	True	0.0	277	0	1.0	1.0	1.0	0	right	2.0	1.0	1.0	0	-0.08	blockFiles/set_11/main_safe/leftBlue\GB_LB_2.xlsx
48	main_safe	True	0.0	277	0	1.0	1.0	0.0	1	left	2.0	0.0	1.0	0	-0.08	blockFiles/set_11/main_safe/leftBlue\GB_LB_2.xlsx
49	main_safe	True	0.0	277	0	1.0	1.0	1.0	1	right	1.0	1.0	1.0	1	0.08	blockFiles/set_11/main_safe/leftBlue\GB_LB_2.xlsx
50	main_safe	True	0.0	277	0	1.0	1.0	0.0	1	left	2.0	1.0	1.0	0	-0.08	blockFiles/set_11/main_safe/leftBlue\GB_LB_2.xlsx
51	main_safe	True	0.0	277	0	2.0	2.0	0.0	1	left	2.0	0.0	1.0	0	-0.08	blockFiles/set_11/main_safe/leftBlue\GB_LB_1.xlsx
52	main_safe	True	0.0	277	0	2.0	2.0	1.0	1	right	2.0	0.0	0.0	1	0.08	blockFiles/set_11/main_safe/leftBlue\GB_LB_1.xlsx
53	main_safe	True	0.0	277	0	2.0	2.0	1.0	1	right	2.0	0.0	0.0	1	0.08	blockFiles/set_11/main_safe/leftBlue\GB_LB_1.xlsx
54	main_safe	True	0.0	277	0	2.0	2.0	1.0	1	right	1.0	1.0	1.0	1	0.08	blockFiles/set_11/main_safe/leftBlue\GB_LB_1.xlsx
55	main_safe	True	0.0	277	0	2.0	2.0	0.0	1	left	2.0	0.0	1.0	0	-0.08	blockFiles/set_11/main_safe/leftBlue\GB_LB_1.xlsx
56	main_safe	True	0.0	277	0	2.0	2.0	0.0	1	left	2.0	1.0	1.0	0	-0.08	blockFiles/set_11/main_safe/leftBlue\GB_LB_1.xlsx
57	main_safe	True	0.0	277	0	2.0	2.0	1.0	1	right	1.0	1.0	1.0	1	0.08	blockFiles/set_11/main_safe/leftBlue\GB_LB_1.xlsx
58	main_safe	True	0.0	277	0	2.0	2.0	0.0	1	left	2.0	0.0	1.0	0	-0.08	blockFiles/set_11/main_safe/leftBlue\GB_LB_1.xlsx
59	main_safe	True	0.0	277	0	2.0	2.0	1.0	1	right	1.0	1.0	1.0	1	0.08	blockFiles/set_11/main_safe/leftBlue\GB_LB_1.xlsx
60	main_safe	True	0.0	277	0	2.0	2.0	1.0	1	right	1.0	1.0	1.0	1	0.08	blockFiles/set_11/main_safe/leftBlue\GB_LB_1.xlsx
61	main_safe	True	0.0	277	0	2.0	2.0	0.0	1	left	2.0	1.0	1.0	0	-0.08	blockFiles/set_11/main_safe/leftBlue\GB_LB_1.xlsx
62	main_safe	True	0.0	277	0	2.0	2.0	0.0	1	left	2.0	1.0	1.0	0	-0.08	blockFiles/set_11/main_safe/leftBlue\GB_LB_1.xlsx
63	main_safe	True	0.0	277	0	2.0	2.0	0.0	1	left	2.0	1.0	1.0	0	-0.08	blockFiles/set_11/main_safe/leftBlue\GB_LB_1.xlsx
64	main_safe	True	0.0	277	0	2.0	2.0	0.0	1	left	2.0	1.0	1.0	0	-0.08	blockFiles/set_11/main_safe/leftBlue\GB_LB_1.xlsx
65	main_safe	True	0.0	277	0	2.0	2.0	1.0	1	right	1.0	1.0	1.0	1	0.08	blockFiles/set_11/main_safe/leftBlue\GB_LB_1.xlsx
66	main_safe	True	0.0	277	0	2.0	2.0	0.0	1	left	2.0	1.0	1.0	0	-0.08	blockFiles/set_11/main_safe/leftBlue\GB_LB_1.xlsx
67	main_safe	True	0.0	277	0	2.0	2.0	0.0	1	left	2.0	0.0	1.0	0	-0.08	blockFiles/set_11/main_safe/leftBlue\GB_LB_1.xlsx
68	main_safe	True	0.0	277	0	2.0	2.0	1.0	1	right	1.0	1.0	1.0	1	0.08	blockFiles/set_11/main_safe/leftBlue\GB_LB_1.xlsx
69	main_safe	True	0.0	277	0	2.0	2.0	1.0	1	right	1.0	1.0	1.0	1	0.08	blockFiles/set_11/main_safe/leftBlue\GB_LB_1.xlsx
70	main_safe	True	0.0	277	0	2.0	2.0	0.0	1	left	2.0	1.0	1.0	0	-0.08	blockFiles/set_11/main_safe/leftBlue\GB_LB_1.xlsx
71	main_safe	True	0.0	277	0	2.0	2.0	0.0	1	left	2.0	1.0	1.0	0	-0.08	blockFiles/set_11/main_safe/leftBlue\GB_LB_1.xlsx
72	main_safe	True	0.0	277	0	2.0	2.0	1.0	1	right	1.0	1.0	1.0	1	0.08	blockFiles/set_11/main_safe/leftBlue\GB_LB_1.xlsx
73	main_safe	True	0.0	277	0	2.0	2.0	0.0	1	left	2.0	1.0	1.0	0	-0.08	blockFiles/set_11/main_safe/leftBlue\GB_LB_1.xlsx
74	main_safe	True	0.0	277	0	2.0	2.0	1.0	1	right	1.0	0.0	1.0	1	0.08	blockFiles/set_11/main_safe/leftBlue\GB_LB_1.xlsx
75	main_safe	True	0.0	277	0	2.0	2.0	1.0	1	right	1.0	0.0	1.0	1	0.08	blockFiles/set_11/main_safe/leftBlue\GB_LB_1.xlsx
76	main_safe	True	0.0	277	0	3.0	3.0	0.0	1	left	1.0	1.0	1.0	0	-0.08	blockFiles/set_11/main_safe/rightBlue\GB_RB_3.xlsx
77	main_safe	True	0.0	277	0	3.0	3.0	0.0	1	left	1.0	1.0	1.0	0	-0.08	blockFiles/set_11/main_safe/rightBlue\GB_RB_3.xlsx
78	main_safe	True	0.0	277	0	3.0	3.0	1.0	1	right	2.0	0.0	1.0	1	0.08	blockFiles/set_11/main_safe/rightBlue\GB_RB_3.xlsx
79	main_safe	True	0.0	277	0	3.0	3.0	1.0	1	right	2.0	0.0	1.0	1	0.08	blockFiles/set_11/main_safe/rightBlue\GB_RB_3.xlsx
80	main_safe	True	0.0	277	0	3.0	3.0	0.0	1	left	1.0	1.0	1.0	0	-0.08	blockFiles/set_11/main_safe/rightBlue\GB_RB_3.xlsx
81	main_safe	True	0.0	277	0	3.0	3.0	1.0	1	right	1.0	1.0	0.0	1	0.08	blockFiles/set_11/main_safe/rightBlue\GB_RB_3.xlsx
82	main_safe	True	0.0	277	0	3.0	3.0	1.0	1	right	1.0	0.0	0.0	1	0.08	blockFiles/set_11/main_safe/rightBlue\GB_RB_3.xlsx
83	main_safe	True	0.0	277	0	3.0	3.0	1.0	1	right	1.0	0.0	0.0	1	0.08	blockFiles/set_11/main_safe/rightBlue\GB_RB_3.xlsx
84	main_safe	True	0.0	277	0	3.0	3.0	1.0	1	right	2.0	1.0	1.0	1	0.08	blockFiles/set_11/main_safe/rightBlue\GB_RB_3.xlsx
85	main_safe	True	0.0	277	0	3.0	3.0	0.0	1	left	1.0	1.0	1.0	0	-0.08	blockFiles/set_11/main_safe/rightBlue\GB_RB_3.xlsx
86	main_safe	True	0.0	277	0	3.0	3.0	1.0	1	right	2.0	1.0	1.0	1	0.08	blockFiles/set_11/main_safe/rightBlue\GB_RB_3.xlsx
87	main_safe	True	0.0	277	0	3.0	3.0	1.0	1	right	2.0	1.0	1.0	1	0.08	blockFiles/set_11/main_safe/rightBlue\GB_RB_3.xlsx
88	main_safe	True	0.0	277	0	3.0	3.0	0.0	1	left	1.0	1.0	1.0	0	-0.08	blockFiles/set_11/main_safe/rightBlue\GB_RB_3.xlsx
89	main_safe	True	1.0	277	0	3.0	3.0	1.0	1	right	n/a	0.0	n/a	1	0.08	blockFiles/set_11/main_safe/rightBlue\GB_RB_3.xlsx
90	main_safe	True	0.0	277	0	3.0	3.0	0.0	1	left	1.0	0.0	1.0	0	-0.08	blockFiles/set_11/main_safe/rightBlue\GB_RB_3.xlsx
91	main_safe	True	0.0	277	0	3.0	3.0	0.0	1	left	1.0	1.0	1.0	0	-0.08	blockFiles/set_11/main_safe/rightBlue\GB_RB_3.xlsx
92	main_safe	True	0.0	277	0	3.0	3.0	0.0	1	left	1.0	1.0	1.0	0	-0.08	blockFiles/set_11/main_safe/rightBlue\GB_RB_3.xlsx
93	main_safe	True	0.0	277	0	3.0	3.0	1.0	1	right	2.0	1.0	1.0	1	0.08	blockFiles/set_11/main_safe/rightBlue\GB_RB_3.xlsx
94	main_safe	True	0.0	277	0	3.0	3.0	0.0	1	left	1.0	1.0	1.0	0	-0.08	blockFiles/set_11/main_safe/rightBlue\GB_RB_3.xlsx
95	main_safe	True	0.0	277	0	3.0	3.0	1.0	1	right	2.0	1.0	1.0	1	0.08	blockFiles/set_11/main_safe/rightBlue\GB_RB_3.xlsx
96	main_safe	True	0.0	277	0	3.0	3.0	0.0	1	left	1.0	0.0	1.0	0	-0.08	blockFiles/set_11/main_safe/rightBlue\GB_RB_3.xlsx
97	main_safe	True	0.0	277	0	3.0	3.0	1.0	1	right	1.0	0.0	0.0	1	0.08	blockFiles/set_11/main_safe/rightBlue\GB_RB_3.xlsx
98	main_safe	True	0.0	277	0	3.0	3.0	0.0	1	left	1.0	1.0	1.0	0	-0.08	blockFiles/set_11/main_safe/rightBlue\GB_RB_3.xlsx
99	main_safe	True	0.0	277	0	3.0	3.0	1.0	1	right	2.0	1.0	1.0	1	0.08	blockFiles/set_11/main_safe/rightBlue\GB_RB_3.xlsx
100	main_safe	True	0.0	277	0	3.0	3.0	0.0	1	left	1.0	1.0	1.0	0	-0.08	blockFiles/set_11/main_safe/rightBlue\GB_RB_3.xlsx
101	main_safe	True	0.0	277	0	3.0	3.0	1.0	1	right	2.0	1.0	1.0	1	0.08	blockFiles/set_11/main_safe/rightBlue\GB_RB_3.xlsx
102	main_safe	True	0.0	277	0	4.0	4.0	1.0	1	right	2.0	1.0	1.0	1	0.08	blockFiles/set_11/main_safe/rightBlue\GB_RB_2.xlsx
103	main_safe	True	0.0	277	0	4.0	4.0	1.0	1	right	2.0	1.0	1.0	1	0.08	blockFiles/set_11/main_safe/rightBlue\GB_RB_2.xlsx
104	main_safe	True	0.0	277	0	4.0	4.0	1.0	1	right	2.0	1.0	1.0	1	0.08	blockFiles/set_11/main_safe/rightBlue\GB_RB_2.xlsx
105	main_safe	True	0.0	277	0	4.0	4.0	1.0	1	right	2.0	1.0	1.0	1	0.08	blockFiles/set_11/main_safe/rightBlue\GB_RB_2.xlsx
106	main_safe	True	0.0	277	0	4.0	4.0	1.0	1	right	2.0	1.0	1.0	1	0.08	blockFiles/set_11/main_safe/rightBlue\GB_RB_2.xlsx
107	main_safe	True	0.0	277	0	4.0	4.0	0.0	1	left	1.0	1.0	1.0	0	-0.08	blockFiles/set_11/main_safe/rightBlue\GB_RB_2.xlsx
108	main_safe	True	0.0	277	0	4.0	4.0	1.0	1	right	2.0	0.0	1.0	1	0.08	blockFiles/set_11/main_safe/rightBlue\GB_RB_2.xlsx
109	main_safe	True	0.0	277	0	4.0	4.0	0.0	1	left	1.0	0.0	1.0	0	-0.08	blockFiles/set_11/main_safe/rightBlue\GB_RB_2.xlsx
110	main_safe	True	0.0	277	0	4.0	4.0	1.0	1	right	2.0	1.0	1.0	1	0.08	blockFiles/set_11/main_safe/rightBlue\GB_RB_2.xlsx
111	main_safe	True	0.0	277	0	4.0	4.0	0.0	1	left	1.0	1.0	1.0	0	-0.08	blockFiles/set_11/main_safe/rightBlue\GB_RB_2.xlsx
112	main_safe	True	0.0	277	0	4.0	4.0	1.0	1	right	2.0	1.0	1.0	1	0.08	blockFiles/set_11/main_safe/rightBlue\GB_RB_2.xlsx
113	main_safe	True	0.0	277	0	4.0	4.0	0.0	1	left	1.0	1.0	1.0	0	-0.08	blockFiles/set_11/main_safe/rightBlue\GB_RB_2.xlsx
114	main_safe	True	0.0	277	0	4.0	4.0	1.0	1	right	2.0	1.0	1.0	1	0.08	blockFiles/set_11/main_safe/rightBlue\GB_RB_2.xlsx
115	main_safe	True	0.0	277	0	4.0	4.0	0.0	1	left	1.0	1.0	1.0	0	-0.08	blockFiles/set_11/main_safe/rightBlue\GB_RB_2.xlsx
116	main_safe	True	0.0	277	0	4.0	4.0	0.0	1	left	1.0	1.0	1.0	0	-0.08	blockFiles/set_11/main_safe/rightBlue\GB_RB_2.xlsx
117	main_safe	True	0.0	277	0	4.0	4.0	0.0	1	left	1.0	1.0	1.0	0	-0.08	blockFiles/set_11/main_safe/rightBlue\GB_RB_2.xlsx
118	main_safe	True	0.0	277	0	4.0	4.0	0.0	1	left	1.0	1.0	1.0	0	-0.08	blockFiles/set_11/main_safe/rightBlue\GB_RB_2.xlsx
119	main_safe	True	0.0	277	0	4.0	4.0	0.0	1	left	1.0	1.0	1.0	0	-0.08	blockFiles/set_11/main_safe/rightBlue\GB_RB_2.xlsx
120	main_safe	True	0.0	277	0	4.0	4.0	1.0	1	right	2.0	1.0	1.0	1	0.08	blockFiles/set_11/main_safe/rightBlue\GB_RB_2.xlsx
121	main_safe	True	0.0	277	0	4.0	4.0	0.0	1	left	1.0	0.0	1.0	0	-0.08	blockFiles/set_11/main_safe/rightBlue\GB_RB_2.xlsx
122	main_safe	True	0.0	277	0	4.0	4.0	1.0	1	right	2.0	1.0	1.0	1	0.08	blockFiles/set_11/main_safe/rightBlue\GB_RB_2.xlsx
123	main_safe	True	0.0	277	0	4.0	4.0	1.0	1	right	2.0	0.0	1.0	1	0.08	blockFiles/set_11/main_safe/rightBlue\GB_RB_2.xlsx
124	main_safe	True	0.0	277	0	4.0	4.0	0.0	1	left	1.0	1.0	1.0	0	-0.08	blockFiles/set_11/main_safe/rightBlue\GB_RB_2.xlsx
125	main_safe	True	0.0	277	0	4.0	4.0	0.0	1	left	1.0	1.0	1.0	0	-0.08	blockFiles/set_11/main_safe/rightBlue\GB_RB_2.xlsx
126	main_safe	True	0.0	277	0	4.0	4.0	1.0	1	right	2.0	1.0	1.0	1	0.08	blockFiles/set_11/main_safe/rightBlue\GB_RB_2.xlsx
127	main_safe	True	0.0	277	0	5.0	5.0	0.0	1	left	1.0	1.0	0.0	0	-0.08	blockFiles/set_11/main_safe/leftBlue\GB_LB_3.xlsx
128	main_safe	True	0.0	277	0	5.0	5.0	1.0	1	right	2.0	0.0	0.0	1	0.08	blockFiles/set_11/main_safe/leftBlue\GB_LB_3.xlsx
129	main_safe	True	0.0	277	0	5.0	5.0	0.0	1	left	1.0	0.0	0.0	0	-0.08	blockFiles/set_11/main_safe/leftBlue\GB_LB_3.xlsx
130	main_safe	True	0.0	277	0	5.0	5.0	1.0	1	right	1.0	1.0	1.0	1	0.08	blockFiles/set_11/main_safe/leftBlue\GB_LB_3.xlsx
131	main_safe	True	0.0	277	0	5.0	5.0	0.0	1	left	2.0	1.0	1.0	0	-0.08	blockFiles/set_11/main_safe/leftBlue\GB_LB_3.xlsx
132	main_safe	True	0.0	277	0	5.0	5.0	0.0	1	left	2.0	0.0	1.0	0	-0.08	blockFiles/set_11/main_safe/leftBlue\GB_LB_3.xlsx
133	main_safe	True	0.0	277	0	5.0	5.0	1.0	1	right	1.0	0.0	1.0	1	0.08	blockFiles/set_11/main_safe/leftBlue\GB_LB_3.xlsx
134	main_safe	True	1.0	277	0	5.0	5.0	0.0	1	left	n/a	0.0	n/a	0	-0.08	blockFiles/set_11/main_safe/leftBlue\GB_LB_3.xlsx
135	main_safe	True	0.0	277	0	5.0	5.0	0.0	1	left	2.0	0.0	1.0	0	-0.08	blockFiles/set_11/main_safe/leftBlue\GB_LB_3.xlsx
136	main_safe	True	0.0	277	0	5.0	5.0	1.0	1	right	1.0	1.0	1.0	1	0.08	blockFiles/set_11/main_safe/leftBlue\GB_LB_3.xlsx
137	main_safe	True	0.0	277	0	5.0	5.0	1.0	1	right	1.0	0.0	1.0	1	0.08	blockFiles/set_11/main_safe/leftBlue\GB_LB_3.xlsx
138	main_safe	True	0.0	277	0	5.0	5.0	1.0	1	right	1.0	1.0	1.0	1	0.08	blockFiles/set_11/main_safe/leftBlue\GB_LB_3.xlsx
139	main_safe	True	0.0	277	0	5.0	5.0	0.0	1	left	2.0	1.0	1.0	0	-0.08	blockFiles/set_11/main_safe/leftBlue\GB_LB_3.xlsx
140	main_safe	True	0.0	277	0	5.0	5.0	1.0	1	right	1.0	1.0	1.0	1	0.08	blockFiles/set_11/main_safe/leftBlue\GB_LB_3.xlsx
141	main_safe	True	0.0	277	0	5.0	5.0	0.0	1	left	2.0	1.0	1.0	0	-0.08	blockFiles/set_11/main_safe/leftBlue\GB_LB_3.xlsx
142	main_safe	True	1.0	277	0	5.0	5.0	n/a	0	None	n/a	0.0	n/a	0	-0.08	blockFiles/set_11/main_safe/leftBlue\GB_LB_3.xlsx
143	main_safe	True	0.0	277	0	5.0	5.0	1.0	1	right	1.0	1.0	1.0	1	0.08	blockFiles/set_11/main_safe/leftBlue\GB_LB_3.xlsx
144	main_safe	True	0.0	277	0	5.0	5.0	1.0	1	right	1.0	0.0	1.0	1	0.08	blockFiles/set_11/main_safe/leftBlue\GB_LB_3.xlsx
145	main_safe	True	0.0	277	0	5.0	5.0	1.0	1	right	1.0	1.0	1.0	1	0.08	blockFiles/set_11/main_safe/leftBlue\GB_LB_3.xlsx
146	main_safe	True	0.0	277	0	5.0	5.0	1.0	1	right	1.0	1.0	1.0	1	0.08	blockFiles/set_11/main_safe/leftBlue\GB_LB_3.xlsx
147	main_safe	True	0.0	277	0	5.0	5.0	1.0	1	right	1.0	1.0	1.0	1	0.08	blockFiles/set_11/main_safe/leftBlue\GB_LB_3.xlsx
148	main_safe	True	0.0	277	0	5.0	5.0	0.0	1	left	2.0	1.0	1.0	0	-0.08	blockFiles/set_11/main_safe/leftBlue\GB_LB_3.xlsx
149	main_safe	True	0.0	277	0	5.0	5.0	0.0	1	left	2.0	1.0	1.0	0	-0.08	blockFiles/set_11/main_safe/leftBlue\GB_LB_3.xlsx
150	main_safe	True	0.0	277	0	5.0	5.0	0.0	1	left	2.0	1.0	1.0	0	-0.08	blockFiles/set_11/main_safe/leftBlue\GB_LB_3.xlsx
151	main_safe	True	0.0	277	0	5.0	5.0	0.0	1	left	2.0	1.0	1.0	0	-0.08	blockFiles/set_11/main_safe/leftBlue\GB_LB_3.xlsx
152	main_safe	True	0.0	277	0	5.0	5.0	0.0	1	left	2.0	1.0	1.0	0	-0.08	blockFiles/set_11/main_safe/leftBlue\GB_LB_3.xlsx
153	main_safe	True	0.0	277	0	5.0	5.0	0.0	1	left	2.0	1.0	1.0	0	-0.08	blockFiles/set_11/main_safe/leftBlue\GB_LB_3.xlsx
154	patches	True	n/a	277	0	n/a	n/a	0.0	1	left	n/a	n/a	n/a	0	-0.0685204502009	blockFiles/set_11/main_PD/GB_runPatches1.xlsx
155	patches	True	n/a	277	0	n/a	n/a	1.0	1	right	n/a	n/a	n/a	1	0.05189439622690001	blockFiles/set_11/main_PD/GB_runPatches1.xlsx
156	patches	True	n/a	277	0	n/a	n/a	1.0	1	right	n/a	n/a	n/a	1	0.004625319391489999	blockFiles/set_11/main_PD/GB_runPatches1.xlsx
157	patches	True	n/a	277	0	n/a	n/a	0.0	1	left	n/a	n/a	n/a	0	-0.0700612684898	blockFiles/set_11/main_PD/GB_runPatches1.xlsx
158	patches	True	n/a	277	0	n/a	n/a	1.0	1	right	n/a	n/a	n/a	1	0.0663000735454	blockFiles/set_11/main_PD/GB_runPatches1.xlsx
159	patches	True	n/a	277	0	n/a	n/a	0.0	1	left	n/a	n/a	n/a	0	-0.0157965975255	blockFiles/set_11/main_PD/GB_runPatches1.xlsx
160	patches	True	n/a	277	0	n/a	n/a	1.0	1	right	n/a	n/a	n/a	1	0.0127910443768	blockFiles/set_11/main_PD/GB_runPatches1.xlsx
161	patches	True	n/a	277	0	n/a	n/a	1.0	1	right	n/a	n/a	n/a	1	0.0366611412726	blockFiles/set_11/main_PD/GB_runPatches1.xlsx
162	patches	True	n/a	277	0	n/a	n/a	1.0	0	right	n/a	n/a	n/a	0	-0.036706902179900004	blockFiles/set_11/main_PD/GB_runPatches1.xlsx
163	patches	True	n/a	277	0	n/a	n/a	1.0	0	right	n/a	n/a	n/a	0	-0.000410818699747	blockFiles/set_11/main_PD/GB_runPatches1.xlsx
164	patches	True	n/a	277	0	n/a	n/a	1.0	0	right	n/a	n/a	n/a	0	-0.0652131431364	blockFiles/set_11/main_PD/GB_runPatches1.xlsx
165	patches	True	n/a	277	0	n/a	n/a	1.0	1	right	n/a	n/a	n/a	1	0.0240367242508	blockFiles/set_11/main_PD/GB_runPatches1.xlsx
166	patches	True	n/a	277	0	n/a	n/a	1.0	0	right	n/a	n/a	n/a	0	-0.0745308267139	blockFiles/set_11/main_PD/GB_runPatches1.xlsx
167	patches	True	n/a	277	0	n/a	n/a	1.0	1	right	n/a	n/a	n/a	1	0.0695811900124	blockFiles/set_11/main_PD/GB_runPatches1.xlsx
168	patches	True	n/a	277	0	n/a	n/a	1.0	1	right	n/a	n/a	n/a	1	0.034091789946	blockFiles/set_11/main_PD/GB_runPatches1.xlsx
169	patches	True	n/a	277	0	n/a	n/a	1.0	0	right	n/a	n/a	n/a	0	-0.0073303020373	blockFiles/set_11/main_PD/GB_runPatches1.xlsx
170	patches	True	n/a	277	0	n/a	n/a	1.0	1	right	n/a	n/a	n/a	1	0.0224213429727	blockFiles/set_11/main_PD/GB_runPatches1.xlsx
171	patches	True	n/a	277	0	n/a	n/a	1.0	0	right	n/a	n/a	n/a	0	-0.056534094885	blockFiles/set_11/main_PD/GB_runPatches1.xlsx
172	patches	True	n/a	277	0	n/a	n/a	0.0	0	left	n/a	n/a	n/a	1	0.03310414636509999	blockFiles/set_11/main_PD/GB_runPatches1.xlsx
173	patches	True	n/a	277	0	n/a	n/a	1.0	0	right	n/a	n/a	n/a	0	-0.0784268666059	blockFiles/set_11/main_PD/GB_runPatches1.xlsx
174	patches	True	n/a	277	0	n/a	n/a	1.0	0	right	n/a	n/a	n/a	0	-0.0033035745658	blockFiles/set_11/main_PD/GB_runPatches1.xlsx
175	patches	True	n/a	277	0	n/a	n/a	1.0	1	right	n/a	n/a	n/a	1	0.0676042682305	blockFiles/set_11/main_PD/GB_runPatches1.xlsx
176	patches	True	n/a	277	0	n/a	n/a	0.0	0	left	n/a	n/a	n/a	1	0.028222601171599998	blockFiles/set_11/main_PD/GB_runPatches1.xlsx
177	patches	True	n/a	277	0	n/a	n/a	1.0	0	right	n/a	n/a	n/a	0	-0.0688082251139	blockFiles/set_11/main_PD/GB_runPatches1.xlsx
178	patches	True	n/a	277	0	n/a	n/a	0.0	0	left	n/a	n/a	n/a	1	0.0316602417454	blockFiles/set_11/main_PD/GB_runPatches1.xlsx
179	patches	True	n/a	277	0	n/a	n/a	1.0	0	right	n/a	n/a	n/a	0	-0.06158939044919999	blockFiles/set_11/main_PD/GB_runPatches1.xlsx
180	patches	True	n/a	277	0	n/a	n/a	1.0	0	right	n/a	n/a	n/a	0	-0.0128796150349	blockFiles/set_11/main_PD/GB_runPatches1.xlsx
181	patches	True	n/a	277	0	n/a	n/a	n/a	0	None	n/a	n/a	n/a	1	0.029981599953	blockFiles/set_11/main_PD/GB_runPatches1.xlsx
182	patches	True	n/a	277	0	n/a	n/a	0.0	0	left	n/a	n/a	n/a	1	0.0158350839093	blockFiles/set_11/main_PD/GB_runPatches1.xlsx
183	patches	True	n/a	277	0	n/a	n/a	1.0	0	right	n/a	n/a	n/a	0	-0.0779695234634	blockFiles/set_11/main_PD/GB_runPatches1.xlsx
184	patches	True	n/a	277	0	n/a	n/a	0.0	1	left	n/a	n/a	n/a	0	-0.06974489178510002	blockFiles/set_11/main_PD/GB_runPatches1.xlsx
185	patches	True	n/a	277	0	n/a	n/a	1.0	0	right	n/a	n/a	n/a	0	-0.025063068289299998	blockFiles/set_11/main_PD/GB_runPatches1.xlsx
186	patches	True	n/a	277	0	n/a	n/a	0.0	0	left	n/a	n/a	n/a	1	0.051700492613000006	blockFiles/set_11/main_PD/GB_runPatches1.xlsx
187	patches	True	n/a	277	0	n/a	n/a	1.0	1	right	n/a	n/a	n/a	1	0.00647842276841	blockFiles/set_11/main_PD/GB_runPatches1.xlsx
188	patches	True	n/a	277	0	n/a	n/a	0.0	0	left	n/a	n/a	n/a	1	0.038627450913199995	blockFiles/set_11/main_PD/GB_runPatches1.xlsx
189	patches	True	n/a	277	0	n/a	n/a	1.0	1	right	n/a	n/a	n/a	1	0.0212064615265	blockFiles/set_11/main_PD/GB_runPatches1.xlsx
190	patches	True	n/a	277	0	n/a	n/a	1.0	1	right	n/a	n/a	n/a	1	0.0404638661444	blockFiles/set_11/main_PD/GB_runPatches1.xlsx
191	patches	True	n/a	277	0	n/a	n/a	1.0	1	right	n/a	n/a	n/a	1	0.0652755627595	blockFiles/set_11/main_PD/GB_runPatches1.xlsx
192	patches	True	n/a	277	0	n/a	n/a	1.0	0	right	n/a	n/a	n/a	0	-0.0375624558702	blockFiles/set_11/main_PD/GB_runPatches1.xlsx
193	patches	True	n/a	277	0	n/a	n/a	1.0	0	right	n/a	n/a	n/a	0	-0.0053442379646	blockFiles/set_11/main_PD/GB_runPatches1.xlsx
194	patches	True	n/a	277	0	n/a	n/a	1.0	1	right	n/a	n/a	n/a	1	0.0462695133686	blockFiles/set_11/main_PD/GB_runPatches1.xlsx
195	patches	True	n/a	277	0	n/a	n/a	0.0	1	left	n/a	n/a	n/a	0	-0.053040067478999996	blockFiles/set_11/main_PD/GB_runPatches1.xlsx
196	patches	True	n/a	277	0	n/a	n/a	1.0	0	right	n/a	n/a	n/a	0	-0.042066309470699996	blockFiles/set_11/main_PD/GB_runPatches1.xlsx
197	patches	True	n/a	277	0	n/a	n/a	1.0	1	right	n/a	n/a	n/a	1	0.0411572196707	blockFiles/set_11/main_PD/GB_runPatches1.xlsx
198	patches	True	n/a	277	0	n/a	n/a	1.0	1	right	n/a	n/a	n/a	1	0.0641636464559	blockFiles/set_11/main_PD/GB_runPatches1.xlsx
199	patches	True	n/a	277	0	n/a	n/a	1.0	0	right	n/a	n/a	n/a	0	-0.0400353627838	blockFiles/set_11/main_PD/GB_runPatches1.xlsx
200	patches	True	n/a	277	0	n/a	n/a	1.0	1	right	n/a	n/a	n/a	1	0.0132379493304	blockFiles/set_11/main_PD/GB_runPatches1.xlsx
201	patches	True	n/a	277	0	n/a	n/a	0.0	0	left	n/a	n/a	n/a	1	0.062130636703199994	blockFiles/set_11/main_PD/GB_runPatches1.xlsx
202	patches	True	n/a	277	0	n/a	n/a	1.0	0	right	n/a	n/a	n/a	0	-0.042363868001800004	blockFiles/set_11/main_PD/GB_runPatches1.xlsx
203	patches	True	n/a	277	0	n/a	n/a	1.0	1	right	n/a	n/a	n/a	1	0.0154423180409	blockFiles/set_11/main_PD/GB_runPatches1.xlsx
204	patches	True	n/a	277	0	n/a	n/a	1.0	1	right	n/a	n/a	n/a	1	0.015273934006700001	blockFiles/set_11/main_PD/GB_runPatches1.xlsx
205	patches	True	n/a	277	0	n/a	n/a	1.0	1	right	n/a	n/a	n/a	1	0.06295216798780001	blockFiles/set_11/main_PD/GB_runPatches1.xlsx
206	patches	True	n/a	277	0	n/a	n/a	1.0	0	right	n/a	n/a	n/a	0	-0.0236913265288	blockFiles/set_11/main_PD/GB_runPatches1.xlsx
207	patches	True	n/a	277	0	n/a	n/a	1.0	1	right	n/a	n/a	n/a	1	0.052767066434000004	blockFiles/set_11/main_PD/GB_runPatches1.xlsx
208	patches	True	n/a	277	0	n/a	n/a	n/a	0	None	n/a	n/a	n/a	1	0.023094520345299997	blockFiles/set_11/main_PD/GB_runPatches1.xlsx
209	patches	True	n/a	277	0	n/a	n/a	1.0	0	right	n/a	n/a	n/a	0	-0.022027647756	blockFiles/set_11/main_PD/GB_runPatches1.xlsx
210	patches	True	n/a	277	0	n/a	n/a	1.0	1	right	n/a	n/a	n/a	1	0.07436683718119999	blockFiles/set_11/main_PD/GB_runPatches1.xlsx
211	patches	True	n/a	277	0	n/a	n/a	1.0	1	right	n/a	n/a	n/a	1	0.0232506686449	blockFiles/set_11/main_PD/GB_runPatches1.xlsx
212	patches	True	n/a	277	0	n/a	n/a	1.0	0	right	n/a	n/a	n/a	0	-0.0689495049417	blockFiles/set_11/main_PD/GB_runPatches1.xlsx
213	patches	True	n/a	277	0	n/a	n/a	1.0	1	right	n/a	n/a	n/a	1	0.04975509271030001	blockFiles/set_11/main_PD/GB_runPatches1.xlsx
214	patches	True	n/a	277	0	n/a	n/a	n/a	0	None	n/a	n/a	n/a	0	-0.0799602007307	blockFiles/set_11/main_PD/GB_runPatches1.xlsx
215	patches	True	n/a	277	0	n/a	n/a	1.0	0	right	n/a	n/a	n/a	0	-0.00757273314521	blockFiles/set_11/main_PD/GB_runPatches1.xlsx
216	patches	True	n/a	277	0	n/a	n/a	1.0	1	right	n/a	n/a	n/a	1	0.05400162100790001	blockFiles/set_11/main_PD/GB_runPatches1.xlsx
217	patches	True	n/a	277	0	n/a	n/a	1.0	0	right	n/a	n/a	n/a	0	-0.0169419145398	blockFiles/set_11/main_PD/GB_runPatches1.xlsx
218	patches	True	n/a	277	0	n/a	n/a	1.0	1	right	n/a	n/a	n/a	1	0.034936516769199996	blockFiles/set_11/main_PD/GB_runPatches1.xlsx
219	patches	True	n/a	277	0	n/a	n/a	1.0	1	right	n/a	n/a	n/a	1	0.0796617915668	blockFiles/set_11/main_PD/GB_runPatches1.xlsx
220	patches	True	n/a	277	0	n/a	n/a	1.0	1	right	n/a	n/a	n/a	1	0.03432701068	blockFiles/set_11/main_PD/GB_runPatches1.xlsx
221	patches	True	n/a	277	0	n/a	n/a	1.0	1	right	n/a	n/a	n/a	1	0.0306468455307	blockFiles/set_11/main_PD/GB_runPatches1.xlsx
222	patches	True	n/a	277	0	n/a	n/a	1.0	0	right	n/a	n/a	n/a	0	-0.0258390241675	blockFiles/set_11/main_PD/GB_runPatches1.xlsx
223	patches	True	n/a	277	0	n/a	n/a	0.0	0	left	n/a	n/a	n/a	1	0.0320883261785	blockFiles/set_11/main_PD/GB_runPatches1.xlsx
224	patches	True	n/a	277	0	n/a	n/a	1.0	0	right	n/a	n/a	n/a	0	-0.050809063073199996	blockFiles/set_11/main_PD/GB_runPatches1.xlsx
225	patches	True	n/a	277	0	n/a	n/a	1.0	1	right	n/a	n/a	n/a	1	0.00546070370823	blockFiles/set_11/main_PD/GB_runPatches1.xlsx
226	patches	True	n/a	277	0	n/a	n/a	1.0	0	right	n/a	n/a	n/a	0	-0.0667584185489	blockFiles/set_11/main_PD/GB_runPatches1.xlsx
227	patches	True	n/a	277	0	n/a	n/a	1.0	1	right	n/a	n/a	n/a	1	0.0747249520384	blockFiles/set_11/main_PD/GB_runPatches1.xlsx
228	patches	True	n/a	277	0	n/a	n/a	n/a	0	None	n/a	n/a	n/a	1	0.0603794938512	blockFiles/set_11/main_PD/GB_runPatches1.xlsx
229	patches	True	n/a	277	0	n/a	n/a	n/a	0	None	n/a	n/a	n/a	1	0.026136185675900002	blockFiles/set_11/main_PD/GB_runPatches1.xlsx
230	patches	True	n/a	277	0	n/a	n/a	0.0	1	left	n/a	n/a	n/a	0	-0.0606452887878	blockFiles/set_11/main_PD/GB_runPatches1.xlsx
231	patches	True	n/a	277	0	n/a	n/a	0.0	1	left	n/a	n/a	n/a	0	-0.013827133588499999	blockFiles/set_11/main_PD/GB_runPatches1.xlsx
232	patches	True	n/a	277	0	n/a	n/a	1.0	0	right	n/a	n/a	n/a	0	-0.0129020083137	blockFiles/set_11/main_PD/GB_runPatches1.xlsx
233	patches	True	n/a	277	0	n/a	n/a	1.0	1	right	n/a	n/a	n/a	1	0.0260871001892	blockFiles/set_11/main_PD/GB_runPatches1.xlsx
234	patches	True	n/a	277	0	n/a	n/a	0.0	1	left	n/a	n/a	n/a	0	-0.047010458521499994	blockFiles/set_11/main_PD/GB_runPatches1.xlsx
235	patches	True	n/a	277	0	n/a	n/a	0.0	1	left	n/a	n/a	n/a	0	-0.0736117296666	blockFiles/set_11/main_PD/GB_runPatches1.xlsx
236	patches	True	n/a	277	0	n/a	n/a	0.0	1	left	n/a	n/a	n/a	0	-0.0036452467739600002	blockFiles/set_11/main_PD/GB_runPatches1.xlsx
237	patches	True	n/a	277	0	n/a	n/a	0.0	1	left	n/a	n/a	n/a	0	-0.0368224967644	blockFiles/set_11/main_PD/GB_runPatches1.xlsx
238	patches	True	n/a	277	0	n/a	n/a	1.0	1	right	n/a	n/a	n/a	1	0.039483510982199994	blockFiles/set_11/main_PD/GB_runPatches1.xlsx
239	patches	True	n/a	277	0	n/a	n/a	1.0	0	right	n/a	n/a	n/a	0	-0.059249774496999995	blockFiles/set_11/main_PD/GB_runPatches1.xlsx
240	patches	True	n/a	277	0	n/a	n/a	0.0	1	left	n/a	n/a	n/a	0	-0.0714236248471	blockFiles/set_11/main_PD/GB_runPatches1.xlsx
241	patches	True	n/a	277	0	n/a	n/a	1.0	1	right	n/a	n/a	n/a	1	0.0177829374745	blockFiles/set_11/main_PD/GB_runPatches1.xlsx
242	patches	True	n/a	277	0	n/a	n/a	1.0	0	right	n/a	n/a	n/a	0	-0.046077386904499994	blockFiles/set_11/main_PD/GB_runPatches1.xlsx
243	patches	True	n/a	277	0	n/a	n/a	0.0	1	left	n/a	n/a	n/a	0	-0.0251730901375	blockFiles/set_11/main_PD/GB_runPatches1.xlsx
244	patches	True	n/a	277	0	n/a	n/a	1.0	1	right	n/a	n/a	n/a	1	0.0423475350812	blockFiles/set_11/main_PD/GB_runPatches1.xlsx
245	patches	True	n/a	277	0	n/a	n/a	0.0	1	left	n/a	n/a	n/a	0	-0.056899148356200004	blockFiles/set_11/main_PD/GB_runPatches1.xlsx
246	patches	True	n/a	277	0	n/a	n/a	1.0	0	right	n/a	n/a	n/a	0	-0.0467341844924	blockFiles/set_11/main_PD/GB_runPatches1.xlsx
247	patches	True	n/a	277	0	n/a	n/a	1.0	0	right	n/a	n/a	n/a	0	-0.0642875782773	blockFiles/set_11/main_PD/GB_runPatches1.xlsx
248	patches	True	n/a	277	0	n/a	n/a	n/a	0	None	n/a	n/a	n/a	1	0.017196129653599998	blockFiles/set_11/main_PD/GB_runPatches1.xlsx
249	patches	True	n/a	277	0	n/a	n/a	1.0	0	right	n/a	n/a	n/a	0	-0.026265772748699998	blockFiles/set_11/main_PD/GB_runPatches1.xlsx
250	patches	True	n/a	277	0	n/a	n/a	1.0	1	right	n/a	n/a	n/a	1	0.0448976251669	blockFiles/set_11/main_PD/GB_runPatches1.xlsx
251	patches	True	n/a	277	0	n/a	n/a	1.0	0	right	n/a	n/a	n/a	0	-0.0249342754856	blockFiles/set_11/main_PD/GB_runPatches1.xlsx
252	patches	True	n/a	277	0	n/a	n/a	1.0	0	right	n/a	n/a	n/a	0	-0.0414982915483	blockFiles/set_11/main_PD/GB_runPatches1.xlsx
253	patches	True	n/a	277	0	n/a	n/a	1.0	0	right	n/a	n/a	n/a	0	-0.059172258432999995	blockFiles/set_11/main_PD/GB_runPatches1.xlsx
254	main_unc	True	0.0	277	0	0.0	0.0	0.0	1	left	1.0	0.0	0.0	0	-0.0700915455259	blockFiles/set_11/main_unc/leftBlue\GB_LB_2.xlsx
255	main_unc	True	0.0	277	0	0.0	0.0	0.0	1	left	1.0	0.0	0.0	0	-0.0612851422466	blockFiles/set_11/main_unc/leftBlue\GB_LB_2.xlsx
256	main_unc	True	0.0	277	0	0.0	0.0	0.0	1	left	2.0	1.0	1.0	0	-0.0630968947336	blockFiles/set_11/main_unc/leftBlue\GB_LB_2.xlsx
257	main_unc	True	0.0	277	0	0.0	0.0	1.0	1	right	1.0	0.0	1.0	1	0.013118079491	blockFiles/set_11/main_unc/leftBlue\GB_LB_2.xlsx
258	main_unc	True	0.0	277	0	0.0	0.0	0.0	1	left	2.0	1.0	1.0	0	-0.05810981830580001	blockFiles/set_11/main_unc/leftBlue\GB_LB_2.xlsx
259	main_unc	True	0.0	277	0	0.0	0.0	1.0	1	right	1.0	0.0	1.0	1	0.0164704238065	blockFiles/set_11/main_unc/leftBlue\GB_LB_2.xlsx
260	main_unc	True	0.0	277	0	0.0	0.0	1.0	1	right	2.0	0.0	0.0	1	0.071395407822	blockFiles/set_11/main_unc/leftBlue\GB_LB_2.xlsx
261	main_unc	True	0.0	277	0	0.0	0.0	0.0	0	left	2.0	0.0	0.0	1	0.0117814270593	blockFiles/set_11/main_unc/leftBlue\GB_LB_2.xlsx
262	main_unc	True	0.0	277	0	0.0	0.0	1.0	1	right	1.0	1.0	1.0	1	0.069318697881	blockFiles/set_11/main_unc/leftBlue\GB_LB_2.xlsx
263	main_unc	True	0.0	277	0	0.0	0.0	0.0	1	left	2.0	1.0	1.0	0	-0.048647179100699996	blockFiles/set_11/main_unc/leftBlue\GB_LB_2.xlsx
264	main_unc	True	0.0	277	0	0.0	0.0	0.0	1	left	2.0	1.0	1.0	0	-0.0268244262971	blockFiles/set_11/main_unc/leftBlue\GB_LB_2.xlsx
265	main_unc	True	0.0	277	0	0.0	0.0	0.0	1	left	2.0	1.0	1.0	0	-0.0647080075927	blockFiles/set_11/main_unc/leftBlue\GB_LB_2.xlsx
266	main_unc	True	1.0	277	0	0.0	0.0	0.0	1	left	n/a	0.0	n/a	0	-0.00460848644376	blockFiles/set_11/main_unc/leftBlue\GB_LB_2.xlsx
267	main_unc	True	0.0	277	0	0.0	0.0	0.0	0	left	1.0	0.0	1.0	1	0.0463153759018	blockFiles/set_11/main_unc/leftBlue\GB_LB_2.xlsx
268	main_unc	True	0.0	277	0	0.0	0.0	0.0	1	left	2.0	1.0	1.0	0	-0.029627205543200003	blockFiles/set_11/main_unc/leftBlue\GB_LB_2.xlsx
269	main_unc	True	0.0	277	0	0.0	0.0	0.0	0	left	1.0	1.0	1.0	1	0.06101700792090001	blockFiles/set_11/main_unc/leftBlue\GB_LB_2.xlsx
270	main_unc	True	0.0	277	0	0.0	0.0	0.0	0	left	1.0	1.0	1.0	1	0.0035278485156599996	blockFiles/set_11/main_unc/leftBlue\GB_LB_2.xlsx
271	main_unc	True	0.0	277	0	0.0	0.0	1.0	1	right	1.0	1.0	1.0	1	0.0791448628902	blockFiles/set_11/main_unc/leftBlue\GB_LB_2.xlsx
272	main_unc	True	0.0	277	0	0.0	0.0	1.0	1	right	1.0	1.0	1.0	1	0.0640110776201	blockFiles/set_11/main_unc/leftBlue\GB_LB_2.xlsx
273	main_unc	True	0.0	277	0	0.0	0.0	0.0	1	left	2.0	0.0	1.0	0	-0.0190195704624	blockFiles/set_11/main_unc/leftBlue\GB_LB_2.xlsx
274	main_unc	True	0.0	277	0	0.0	0.0	0.0	1	left	2.0	1.0	1.0	0	-0.0522072823718	blockFiles/set_11/main_unc/leftBlue\GB_LB_2.xlsx
275	main_unc	True	0.0	277	0	0.0	0.0	1.0	1	right	1.0	1.0	1.0	1	0.00081556359306	blockFiles/set_11/main_unc/leftBlue\GB_LB_2.xlsx
276	main_unc	True	0.0	277	0	0.0	0.0	1.0	1	right	1.0	1.0	1.0	1	0.0210062734969	blockFiles/set_11/main_unc/leftBlue\GB_LB_2.xlsx
277	main_unc	True	0.0	277	0	0.0	0.0	1.0	0	right	1.0	0.0	0.0	0	-0.06960571024569999	blockFiles/set_11/main_unc/leftBlue\GB_LB_2.xlsx
278	main_unc	True	0.0	277	0	0.0	0.0	0.0	1	left	2.0	1.0	1.0	0	-0.0512641361356	blockFiles/set_11/main_unc/leftBlue\GB_LB_2.xlsx
279	main_unc	True	0.0	277	0	0.0	0.0	1.0	0	right	1.0	0.0	0.0	0	-0.00460848644376	blockFiles/set_11/main_unc/leftBlue\GB_LB_2.xlsx
280	main_unc	True	0.0	277	0	1.0	1.0	1.0	0	right	2.0	1.0	1.0	0	-0.028122547771799997	blockFiles/set_11/main_unc/leftBlue\GB_LB_1.xlsx
281	main_unc	True	0.0	277	0	1.0	1.0	0.0	0	left	1.0	1.0	1.0	1	0.0195745371841	blockFiles/set_11/main_unc/leftBlue\GB_LB_1.xlsx
282	main_unc	True	0.0	277	0	1.0	1.0	1.0	0	right	2.0	1.0	1.0	0	-0.00211329651996	blockFiles/set_11/main_unc/leftBlue\GB_LB_1.xlsx
283	main_unc	True	0.0	277	0	1.0	1.0	0.0	1	left	1.0	0.0	0.0	0	-0.07972146598619999	blockFiles/set_11/main_unc/leftBlue\GB_LB_1.xlsx
284	main_unc	True	0.0	277	0	1.0	1.0	1.0	1	right	1.0	0.0	1.0	1	0.012680807393	blockFiles/set_11/main_unc/leftBlue\GB_LB_1.xlsx
285	main_unc	True	0.0	277	0	1.0	1.0	1.0	0	right	2.0	1.0	1.0	0	-0.00406259186566	blockFiles/set_11/main_unc/leftBlue\GB_LB_1.xlsx
286	main_unc	True	0.0	277	0	1.0	1.0	1.0	1	right	2.0	0.0	0.0	1	0.0472369257919	blockFiles/set_11/main_unc/leftBlue\GB_LB_1.xlsx
287	main_unc	True	0.0	277	0	1.0	1.0	1.0	0	right	1.0	0.0	0.0	0	-0.07541952874510001	blockFiles/set_11/main_unc/leftBlue\GB_LB_1.xlsx
288	main_unc	True	0.0	277	0	1.0	1.0	0.0	1	left	1.0	0.0	0.0	0	-0.0367866502702	blockFiles/set_11/main_unc/leftBlue\GB_LB_1.xlsx
289	main_unc	True	0.0	277	0	1.0	1.0	1.0	1	right	2.0	0.0	0.0	1	0.0156403068267	blockFiles/set_11/main_unc/leftBlue\GB_LB_1.xlsx
290	main_unc	True	0.0	277	0	1.0	1.0	0.0	0	left	1.0	0.0	1.0	1	0.051891653463199995	blockFiles/set_11/main_unc/leftBlue\GB_LB_1.xlsx
291	main_unc	True	0.0	277	0	1.0	1.0	1.0	1	right	1.0	1.0	1.0	1	0.0374716493115	blockFiles/set_11/main_unc/leftBlue\GB_LB_1.xlsx
292	main_unc	True	0.0	277	0	1.0	1.0	1.0	1	right	1.0	1.0	1.0	1	0.0222602327727	blockFiles/set_11/main_unc/leftBlue\GB_LB_1.xlsx
293	main_unc	True	0.0	277	0	1.0	1.0	1.0	1	right	1.0	1.0	1.0	1	0.0540001884848	blockFiles/set_11/main_unc/leftBlue\GB_LB_1.xlsx
294	main_unc	True	0.0	277	0	1.0	1.0	1.0	0	right	1.0	0.0	0.0	0	-0.06418621590359999	blockFiles/set_11/main_unc/leftBlue\GB_LB_1.xlsx
295	main_unc	True	0.0	277	0	1.0	1.0	1.0	1	right	1.0	1.0	1.0	1	0.0219779418595	blockFiles/set_11/main_unc/leftBlue\GB_LB_1.xlsx
296	main_unc	True	0.0	277	0	1.0	1.0	1.0	1	right	1.0	1.0	1.0	1	0.031575202420399996	blockFiles/set_11/main_unc/leftBlue\GB_LB_1.xlsx
297	main_unc	True	0.0	277	0	1.0	1.0	1.0	1	right	1.0	0.0	1.0	1	0.0486816586927	blockFiles/set_11/main_unc/leftBlue\GB_LB_1.xlsx
298	main_unc	True	0.0	277	0	1.0	1.0	1.0	1	right	1.0	1.0	1.0	1	0.0266594649851	blockFiles/set_11/main_unc/leftBlue\GB_LB_1.xlsx
299	main_unc	True	0.0	277	0	1.0	1.0	0.0	1	left	2.0	0.0	1.0	0	-0.07352200560269999	blockFiles/set_11/main_unc/leftBlue\GB_LB_1.xlsx
300	main_unc	True	0.0	277	0	1.0	1.0	1.0	0	right	1.0	0.0	0.0	0	-0.0201038615033	blockFiles/set_11/main_unc/leftBlue\GB_LB_1.xlsx
301	main_unc	True	0.0	277	0	1.0	1.0	0.0	1	left	2.0	1.0	1.0	0	-0.039495024289899996	blockFiles/set_11/main_unc/leftBlue\GB_LB_1.xlsx
302	main_unc	True	0.0	277	0	1.0	1.0	0.0	1	left	1.0	0.0	0.0	0	-0.056591646932100004	blockFiles/set_11/main_unc/leftBlue\GB_LB_1.xlsx
303	main_unc	True	0.0	277	0	1.0	1.0	0.0	1	left	2.0	0.0	1.0	0	-0.0144913268648	blockFiles/set_11/main_unc/leftBlue\GB_LB_1.xlsx
304	main_unc	True	0.0	277	0	1.0	1.0	1.0	1	right	1.0	1.0	1.0	1	0.0683261916041	blockFiles/set_11/main_unc/leftBlue\GB_LB_1.xlsx
305	main_unc	True	0.0	277	0	2.0	2.0	0.0	1	left	1.0	0.0	0.0	0	-0.000520146470517	blockFiles/set_11/main_unc/leftBlue\GB_LB_4.xlsx
306	main_unc	True	0.0	277	0	2.0	2.0	1.0	1	right	2.0	1.0	0.0	1	0.04166708540169999	blockFiles/set_11/main_unc/leftBlue\GB_LB_4.xlsx
307	main_unc	True	0.0	277	0	2.0	2.0	1.0	1	right	2.0	0.0	0.0	1	0.06109553402290001	blockFiles/set_11/main_unc/leftBlue\GB_LB_4.xlsx
308	main_unc	True	0.0	277	0	2.0	2.0	0.0	1	left	1.0	0.0	0.0	0	-0.0742944972403	blockFiles/set_11/main_unc/leftBlue\GB_LB_4.xlsx
309	main_unc	True	0.0	277	0	2.0	2.0	1.0	1	right	2.0	0.0	0.0	1	0.0295563800074	blockFiles/set_11/main_unc/leftBlue\GB_LB_4.xlsx
310	main_unc	True	0.0	277	0	2.0	2.0	0.0	1	left	2.0	0.0	1.0	0	-0.0178572720475	blockFiles/set_11/main_unc/leftBlue\GB_LB_4.xlsx
311	main_unc	True	0.0	277	0	2.0	2.0	1.0	0	right	2.0	1.0	1.0	0	-0.0319874082133	blockFiles/set_11/main_unc/leftBlue\GB_LB_4.xlsx
312	main_unc	True	0.0	277	0	2.0	2.0	1.0	1	right	2.0	0.0	0.0	1	0.049610949531199995	blockFiles/set_11/main_unc/leftBlue\GB_LB_4.xlsx
313	main_unc	True	0.0	277	0	2.0	2.0	0.0	1	left	1.0	0.0	0.0	0	-0.0469572697207	blockFiles/set_11/main_unc/leftBlue\GB_LB_4.xlsx
314	main_unc	True	0.0	277	0	2.0	2.0	1.0	1	right	2.0	1.0	0.0	1	0.0637138450332	blockFiles/set_11/main_unc/leftBlue\GB_LB_4.xlsx
315	main_unc	True	0.0	277	0	2.0	2.0	0.0	1	left	1.0	0.0	0.0	0	-0.04244561292230001	blockFiles/set_11/main_unc/leftBlue\GB_LB_4.xlsx
316	main_unc	True	0.0	277	0	2.0	2.0	1.0	1	right	2.0	0.0	0.0	1	0.0275897631049	blockFiles/set_11/main_unc/leftBlue\GB_LB_4.xlsx
317	main_unc	True	0.0	277	0	2.0	2.0	0.0	1	left	1.0	0.0	0.0	0	-0.00380770424381	blockFiles/set_11/main_unc/leftBlue\GB_LB_4.xlsx
318	main_unc	True	0.0	277	0	2.0	2.0	1.0	0	right	1.0	0.0	0.0	0	-0.007593187782909999	blockFiles/set_11/main_unc/leftBlue\GB_LB_4.xlsx
319	main_unc	True	0.0	277	0	2.0	2.0	0.0	1	left	1.0	0.0	0.0	0	-0.03767734522	blockFiles/set_11/main_unc/leftBlue\GB_LB_4.xlsx
320	main_unc	True	0.0	277	0	2.0	2.0	1.0	1	right	1.0	0.0	1.0	1	0.032157493513099995	blockFiles/set_11/main_unc/leftBlue\GB_LB_4.xlsx
321	main_unc	True	0.0	277	0	2.0	2.0	1.0	1	right	2.0	0.0	0.0	1	0.057451309487199995	blockFiles/set_11/main_unc/leftBlue\GB_LB_4.xlsx
322	main_unc	True	0.0	277	0	2.0	2.0	1.0	0	right	1.0	0.0	0.0	0	-0.0353377784416	blockFiles/set_11/main_unc/leftBlue\GB_LB_4.xlsx
323	main_unc	True	0.0	277	0	2.0	2.0	0.0	1	left	1.0	0.0	0.0	0	-0.0741688207909	blockFiles/set_11/main_unc/leftBlue\GB_LB_4.xlsx
324	main_unc	True	0.0	277	0	2.0	2.0	1.0	1	right	2.0	0.0	0.0	1	0.0499394600466	blockFiles/set_11/main_unc/leftBlue\GB_LB_4.xlsx
325	main_unc	True	0.0	277	0	2.0	2.0	1.0	0	right	1.0	0.0	0.0	0	-0.011198486182799998	blockFiles/set_11/main_unc/leftBlue\GB_LB_4.xlsx
326	main_unc	True	0.0	277	0	2.0	2.0	1.0	0	right	1.0	0.0	0.0	0	-0.0123440216668	blockFiles/set_11/main_unc/leftBlue\GB_LB_4.xlsx
327	main_unc	True	0.0	277	0	2.0	2.0	0.0	0	left	2.0	0.0	0.0	1	0.0641466083564	blockFiles/set_11/main_unc/leftBlue\GB_LB_4.xlsx
328	main_unc	True	0.0	277	0	2.0	2.0	0.0	0	left	2.0	0.0	0.0	1	0.0459306734614	blockFiles/set_11/main_unc/leftBlue\GB_LB_4.xlsx
329	main_unc	True	0.0	277	0	2.0	2.0	1.0	1	right	1.0	1.0	1.0	1	0.0349935168214	blockFiles/set_11/main_unc/leftBlue\GB_LB_4.xlsx
330	main_unc	True	0.0	277	0	3.0	3.0	1.0	1	right	1.0	1.0	0.0	1	0.0317117470503	blockFiles/set_11/main_unc/rightBlue\GB_RB_1.xlsx
331	main_unc	True	0.0	277	0	3.0	3.0	0.0	1	left	2.0	0.0	0.0	0	-0.0477695455402	blockFiles/set_11/main_unc/rightBlue\GB_RB_1.xlsx
332	main_unc	True	1.0	277	0	3.0	3.0	n/a	0	None	n/a	0.0	n/a	1	0.009915222544219999	blockFiles/set_11/main_unc/rightBlue\GB_RB_1.xlsx
333	main_unc	True	0.0	277	0	3.0	3.0	0.0	1	left	2.0	1.0	0.0	0	-0.0456095384248	blockFiles/set_11/main_unc/rightBlue\GB_RB_1.xlsx
334	main_unc	True	0.0	277	0	3.0	3.0	1.0	1	right	1.0	0.0	0.0	1	0.0342674427666	blockFiles/set_11/main_unc/rightBlue\GB_RB_1.xlsx
335	main_unc	True	0.0	277	0	3.0	3.0	0.0	0	left	1.0	0.0	0.0	1	0.032827432509499994	blockFiles/set_11/main_unc/rightBlue\GB_RB_1.xlsx
336	main_unc	True	0.0	277	0	3.0	3.0	0.0	1	left	2.0	0.0	0.0	0	-0.0730066971853	blockFiles/set_11/main_unc/rightBlue\GB_RB_1.xlsx
337	main_unc	True	0.0	277	0	3.0	3.0	1.0	0	right	2.0	0.0	0.0	0	-0.07349519100039999	blockFiles/set_11/main_unc/rightBlue\GB_RB_1.xlsx
338	main_unc	True	1.0	277	0	3.0	3.0	n/a	0	None	n/a	0.0	n/a	0	-0.0107719659247	blockFiles/set_11/main_unc/rightBlue\GB_RB_1.xlsx
339	main_unc	True	0.0	277	0	3.0	3.0	0.0	1	left	2.0	0.0	0.0	0	-0.0187262844108	blockFiles/set_11/main_unc/rightBlue\GB_RB_1.xlsx
340	main_unc	True	0.0	277	0	3.0	3.0	1.0	1	right	2.0	1.0	1.0	1	0.017129982654	blockFiles/set_11/main_unc/rightBlue\GB_RB_1.xlsx
341	main_unc	True	0.0	277	0	3.0	3.0	0.0	1	left	2.0	0.0	0.0	0	-0.0775293578207	blockFiles/set_11/main_unc/rightBlue\GB_RB_1.xlsx
342	main_unc	True	0.0	277	0	3.0	3.0	0.0	1	left	2.0	0.0	0.0	0	-0.0688625397161	blockFiles/set_11/main_unc/rightBlue\GB_RB_1.xlsx
343	main_unc	True	0.0	277	0	3.0	3.0	0.0	0	left	1.0	0.0	0.0	1	0.0289963830262	blockFiles/set_11/main_unc/rightBlue\GB_RB_1.xlsx
344	main_unc	True	0.0	277	0	3.0	3.0	0.0	1	left	1.0	1.0	1.0	0	-0.053383753486	blockFiles/set_11/main_unc/rightBlue\GB_RB_1.xlsx
345	main_unc	True	0.0	277	0	3.0	3.0	0.0	0	left	2.0	1.0	1.0	1	0.0382545038499	blockFiles/set_11/main_unc/rightBlue\GB_RB_1.xlsx
346	main_unc	True	0.0	277	0	3.0	3.0	0.0	0	left	2.0	0.0	1.0	1	0.02460415015	blockFiles/set_11/main_unc/rightBlue\GB_RB_1.xlsx
347	main_unc	True	0.0	277	0	3.0	3.0	0.0	1	left	1.0	1.0	1.0	0	-0.0277998090535	blockFiles/set_11/main_unc/rightBlue\GB_RB_1.xlsx
348	main_unc	True	0.0	277	0	3.0	3.0	0.0	1	left	1.0	0.0	1.0	0	-0.0304490323178	blockFiles/set_11/main_unc/rightBlue\GB_RB_1.xlsx
349	main_unc	True	0.0	277	0	3.0	3.0	0.0	1	left	1.0	1.0	1.0	0	-0.0332460945845	blockFiles/set_11/main_unc/rightBlue\GB_RB_1.xlsx
350	main_unc	True	0.0	277	0	3.0	3.0	0.0	0	left	1.0	0.0	0.0	1	0.0212918093987	blockFiles/set_11/main_unc/rightBlue\GB_RB_1.xlsx
351	main_unc	True	0.0	277	0	3.0	3.0	1.0	1	right	2.0	1.0	1.0	1	0.0563847786561	blockFiles/set_11/main_unc/rightBlue\GB_RB_1.xlsx
352	main_unc	True	0.0	277	0	3.0	3.0	0.0	0	left	2.0	1.0	1.0	1	0.0109799394943	blockFiles/set_11/main_unc/rightBlue\GB_RB_1.xlsx
353	main_unc	True	1.0	277	0	3.0	3.0	n/a	0	None	n/a	0.0	n/a	1	0.07925314672289999	blockFiles/set_11/main_unc/rightBlue\GB_RB_1.xlsx
354	main_unc	True	1.0	277	0	3.0	3.0	n/a	0	None	n/a	0.0	n/a	1	0.032178578246400004	blockFiles/set_11/main_unc/rightBlue\GB_RB_1.xlsx
355	main_unc	True	0.0	277	0	3.0	3.0	0.0	0	left	2.0	0.0	1.0	1	0.009915222544219999	blockFiles/set_11/main_unc/rightBlue\GB_RB_1.xlsx
356	main_unc	True	0.0	277	0	3.0	3.0	0.0	1	left	2.0	0.0	0.0	0	-0.0107719659247	blockFiles/set_11/main_unc/rightBlue\GB_RB_1.xlsx
357	main_unc	True	0.0	277	0	3.0	3.0	1.0	1	right	2.0	0.0	1.0	1	0.07925314672289999	blockFiles/set_11/main_unc/rightBlue\GB_RB_1.xlsx
358	main_unc	True	0.0	277	0	3.0	3.0	0.0	0	left	2.0	1.0	1.0	1	0.032178578246400004	blockFiles/set_11/main_unc/rightBlue\GB_RB_1.xlsx
359	main_unc	True	0.0	277	0	4.0	4.0	0.0	0	left	1.0	1.0	1.0	1	0.045726647209400006	blockFiles/set_11/main_unc/leftBlue\GB_LB_5.xlsx
360	main_unc	True	0.0	277	0	4.0	4.0	1.0	1	right	2.0	1.0	0.0	1	0.0232344047539	blockFiles/set_11/main_unc/leftBlue\GB_LB_5.xlsx
361	main_unc	True	0.0	277	0	4.0	4.0	0.0	1	left	1.0	1.0	0.0	0	-0.0253152255155	blockFiles/set_11/main_unc/leftBlue\GB_LB_5.xlsx
362	main_unc	True	0.0	277	0	4.0	4.0	0.0	1	left	1.0	0.0	0.0	0	-0.0159888149053	blockFiles/set_11/main_unc/leftBlue\GB_LB_5.xlsx
363	main_unc	True	0.0	277	0	4.0	4.0	0.0	1	left	2.0	1.0	1.0	0	-0.0500606253371	blockFiles/set_11/main_unc/leftBlue\GB_LB_5.xlsx
364	main_unc	True	0.0	277	0	4.0	4.0	0.0	1	left	2.0	1.0	1.0	0	-0.0386534260586	blockFiles/set_11/main_unc/leftBlue\GB_LB_5.xlsx
365	main_unc	True	0.0	277	0	4.0	4.0	0.0	0	left	1.0	1.0	1.0	1	0.043961021117900005	blockFiles/set_11/main_unc/leftBlue\GB_LB_5.xlsx
366	main_unc	True	0.0	277	0	4.0	4.0	1.0	1	right	2.0	0.0	0.0	1	0.0544462962635	blockFiles/set_11/main_unc/leftBlue\GB_LB_5.xlsx
367	main_unc	True	0.0	277	0	4.0	4.0	0.0	1	left	1.0	0.0	0.0	0	-0.022856888081900003	blockFiles/set_11/main_unc/leftBlue\GB_LB_5.xlsx
368	main_unc	True	0.0	277	0	4.0	4.0	0.0	1	left	1.0	0.0	0.0	0	-0.0706728342362	blockFiles/set_11/main_unc/leftBlue\GB_LB_5.xlsx
369	main_unc	True	0.0	277	0	4.0	4.0	0.0	1	left	1.0	0.0	0.0	0	-0.00877004802227	blockFiles/set_11/main_unc/leftBlue\GB_LB_5.xlsx
370	main_unc	True	0.0	277	0	4.0	4.0	1.0	0	right	2.0	1.0	1.0	0	-0.0537566407956	blockFiles/set_11/main_unc/leftBlue\GB_LB_5.xlsx
371	main_unc	True	0.0	277	0	4.0	4.0	0.0	1	left	2.0	1.0	1.0	0	-0.039709451925	blockFiles/set_11/main_unc/leftBlue\GB_LB_5.xlsx
372	main_unc	True	0.0	277	0	4.0	4.0	1.0	1	right	1.0	0.0	1.0	1	0.070903398972	blockFiles/set_11/main_unc/leftBlue\GB_LB_5.xlsx
373	main_unc	True	0.0	277	0	4.0	4.0	0.0	0	left	1.0	1.0	1.0	1	0.0739943168126	blockFiles/set_11/main_unc/leftBlue\GB_LB_5.xlsx
374	main_unc	True	0.0	277	0	4.0	4.0	0.0	1	left	2.0	1.0	1.0	0	-0.0009742491319780001	blockFiles/set_11/main_unc/leftBlue\GB_LB_5.xlsx
375	main_unc	True	1.0	277	0	4.0	4.0	1.0	1	right	n/a	0.0	n/a	1	0.07067465500910002	blockFiles/set_11/main_unc/leftBlue\GB_LB_5.xlsx
376	main_unc	True	0.0	277	0	4.0	4.0	1.0	1	right	1.0	0.0	1.0	1	0.043915179763	blockFiles/set_11/main_unc/leftBlue\GB_LB_5.xlsx
377	main_unc	True	0.0	277	0	4.0	4.0	0.0	0	left	2.0	0.0	0.0	1	0.034752555880699997	blockFiles/set_11/main_unc/leftBlue\GB_LB_5.xlsx
378	main_unc	True	0.0	277	0	4.0	4.0	1.0	0	right	2.0	1.0	1.0	0	-0.0238443680108	blockFiles/set_11/main_unc/leftBlue\GB_LB_5.xlsx
379	main_unc	True	0.0	277	0	4.0	4.0	0.0	1	left	1.0	0.0	0.0	0	-0.0797606043145	blockFiles/set_11/main_unc/leftBlue\GB_LB_5.xlsx
380	main_unc	True	0.0	277	0	4.0	4.0	0.0	1	left	1.0	0.0	0.0	0	-0.0571330049075	blockFiles/set_11/main_unc/leftBlue\GB_LB_5.xlsx
381	main_unc	True	0.0	277	0	4.0	4.0	1.0	1	right	2.0	1.0	0.0	1	0.0479442853108	blockFiles/set_11/main_unc/leftBlue\GB_LB_5.xlsx
382	main_unc	True	0.0	277	0	4.0	4.0	0.0	0	left	2.0	0.0	0.0	1	0.028525703363099997	blockFiles/set_11/main_unc/leftBlue\GB_LB_5.xlsx
383	main_unc	True	0.0	277	0	4.0	4.0	0.0	0	left	2.0	0.0	0.0	1	0.041337681133300004	blockFiles/set_11/main_unc/leftBlue\GB_LB_5.xlsx
384	main_unc	True	0.0	277	0	4.0	4.0	0.0	0	left	1.0	1.0	1.0	1	0.07067465500910002	blockFiles/set_11/main_unc/leftBlue\GB_LB_5.xlsx
385	main_unc	True	0.0	277	0	5.0	5.0	1.0	0	right	1.0	1.0	1.0	0	-0.00852092618123	blockFiles/set_11/main_unc/rightBlue\GB_RB_6.xlsx
386	main_unc	True	0.0	277	0	5.0	5.0	0.0	0	left	2.0	1.0	1.0	1	0.0500888430327	blockFiles/set_11/main_unc/rightBlue\GB_RB_6.xlsx
387	main_unc	True	0.0	277	0	5.0	5.0	0.0	0	left	2.0	1.0	1.0	1	0.0238302828744	blockFiles/set_11/main_unc/rightBlue\GB_RB_6.xlsx
388	main_unc	True	0.0	277	0	5.0	5.0	0.0	0	left	1.0	0.0	0.0	1	0.047165439911199994	blockFiles/set_11/main_unc/rightBlue\GB_RB_6.xlsx
389	main_unc	True	0.0	277	0	5.0	5.0	1.0	0	right	2.0	1.0	0.0	0	-0.0652420298941	blockFiles/set_11/main_unc/rightBlue\GB_RB_6.xlsx
390	main_unc	True	0.0	277	0	5.0	5.0	1.0	0	right	1.0	0.0	1.0	0	-0.0046588721126300005	blockFiles/set_11/main_unc/rightBlue\GB_RB_6.xlsx
391	main_unc	True	0.0	277	0	5.0	5.0	0.0	0	left	1.0	0.0	0.0	1	0.0444089140929	blockFiles/set_11/main_unc/rightBlue\GB_RB_6.xlsx
392	main_unc	True	0.0	277	0	5.0	5.0	1.0	1	right	2.0	1.0	1.0	1	0.05904284494	blockFiles/set_11/main_unc/rightBlue\GB_RB_6.xlsx
393	main_unc	True	0.0	277	0	5.0	5.0	0.0	1	left	2.0	1.0	0.0	0	-0.0262008144893	blockFiles/set_11/main_unc/rightBlue\GB_RB_6.xlsx
394	main_unc	True	0.0	277	0	5.0	5.0	0.0	1	left	2.0	0.0	0.0	0	-0.07602434011180001	blockFiles/set_11/main_unc/rightBlue\GB_RB_6.xlsx
395	main_unc	True	0.0	277	0	5.0	5.0	0.0	1	left	2.0	1.0	0.0	0	-0.0665290531516	blockFiles/set_11/main_unc/rightBlue\GB_RB_6.xlsx
396	main_unc	True	0.0	277	0	5.0	5.0	0.0	1	left	1.0	1.0	1.0	0	-0.051559847481500005	blockFiles/set_11/main_unc/rightBlue\GB_RB_6.xlsx
397	main_unc	True	0.0	277	0	5.0	5.0	0.0	1	left	2.0	0.0	0.0	0	-0.026612184010400004	blockFiles/set_11/main_unc/rightBlue\GB_RB_6.xlsx
398	main_unc	True	0.0	277	0	5.0	5.0	1.0	1	right	2.0	1.0	1.0	1	0.0403519391455	blockFiles/set_11/main_unc/rightBlue\GB_RB_6.xlsx
399	main_unc	True	0.0	277	0	5.0	5.0	0.0	1	left	2.0	0.0	0.0	0	-0.00788334392011	blockFiles/set_11/main_unc/rightBlue\GB_RB_6.xlsx
400	main_unc	True	0.0	277	0	5.0	5.0	0.0	0	left	1.0	0.0	0.0	1	0.0299490648694	blockFiles/set_11/main_unc/rightBlue\GB_RB_6.xlsx
401	main_unc	True	0.0	277	0	5.0	5.0	1.0	1	right	1.0	0.0	0.0	1	0.0245829684846	blockFiles/set_11/main_unc/rightBlue\GB_RB_6.xlsx
402	main_unc	True	0.0	277	0	5.0	5.0	0.0	1	left	2.0	0.0	0.0	0	-0.0604403047264	blockFiles/set_11/main_unc/rightBlue\GB_RB_6.xlsx
403	main_unc	True	0.0	277	0	5.0	5.0	0.0	0	left	1.0	0.0	0.0	1	0.048383046388600005	blockFiles/set_11/main_unc/rightBlue\GB_RB_6.xlsx
404	main_unc	True	0.0	277	0	5.0	5.0	1.0	1	right	2.0	0.0	1.0	1	0.0319159152545	blockFiles/set_11/main_unc/rightBlue\GB_RB_6.xlsx
405	main_unc	True	0.0	277	0	5.0	5.0	0.0	1	left	1.0	1.0	1.0	0	-0.024435462132099996	blockFiles/set_11/main_unc/rightBlue\GB_RB_6.xlsx
406	main_unc	True	0.0	277	0	5.0	5.0	1.0	1	right	1.0	0.0	0.0	1	0.07584123451260001	blockFiles/set_11/main_unc/rightBlue\GB_RB_6.xlsx
407	main_unc	True	0.0	277	0	5.0	5.0	1.0	1	right	2.0	1.0	1.0	1	0.012262722645	blockFiles/set_11/main_unc/rightBlue\GB_RB_6.xlsx
408	main_unc	True	0.0	277	0	5.0	5.0	0.0	1	left	1.0	1.0	1.0	0	-0.0057520496286500005	blockFiles/set_11/main_unc/rightBlue\GB_RB_6.xlsx
409	main_unc	True	0.0	277	0	5.0	5.0	0.0	1	left	2.0	0.0	0.0	0	-0.0632801056653	blockFiles/set_11/main_unc/rightBlue\GB_RB_6.xlsx
410	main_unc	True	0.0	277	0	6.0	6.0	1.0	0	right	2.0	0.0	0.0	0	-0.0463071026839	blockFiles/set_11/main_unc/rightBlue\GB_RB_4.xlsx
411	main_unc	True	0.0	277	0	6.0	6.0	0.0	1	left	2.0	1.0	0.0	0	-0.0258876541816	blockFiles/set_11/main_unc/rightBlue\GB_RB_4.xlsx
412	main_unc	True	0.0	277	0	6.0	6.0	0.0	0	left	1.0	0.0	0.0	1	0.0677046761848	blockFiles/set_11/main_unc/rightBlue\GB_RB_4.xlsx
413	main_unc	True	0.0	277	0	6.0	6.0	1.0	1	right	1.0	0.0	0.0	1	0.0499094949104	blockFiles/set_11/main_unc/rightBlue\GB_RB_4.xlsx
414	main_unc	True	0.0	277	0	6.0	6.0	0.0	0	left	2.0	1.0	1.0	1	0.0124253082462	blockFiles/set_11/main_unc/rightBlue\GB_RB_4.xlsx
415	main_unc	True	0.0	277	0	6.0	6.0	1.0	0	right	1.0	1.0	1.0	0	-0.069132752195	blockFiles/set_11/main_unc/rightBlue\GB_RB_4.xlsx
416	main_unc	True	0.0	277	0	6.0	6.0	0.0	1	left	1.0	1.0	1.0	0	-0.0145245978609	blockFiles/set_11/main_unc/rightBlue\GB_RB_4.xlsx
417	main_unc	True	0.0	277	0	6.0	6.0	1.0	1	right	2.0	1.0	1.0	1	0.065466406811	blockFiles/set_11/main_unc/rightBlue\GB_RB_4.xlsx
418	main_unc	True	0.0	277	0	6.0	6.0	0.0	0	left	2.0	1.0	1.0	1	0.00948973985389	blockFiles/set_11/main_unc/rightBlue\GB_RB_4.xlsx
419	main_unc	True	0.0	277	0	6.0	6.0	0.0	1	left	1.0	1.0	1.0	0	-0.057257199846199994	blockFiles/set_11/main_unc/rightBlue\GB_RB_4.xlsx
420	main_unc	True	0.0	277	0	6.0	6.0	1.0	1	right	2.0	1.0	1.0	1	0.0579783558473	blockFiles/set_11/main_unc/rightBlue\GB_RB_4.xlsx
421	main_unc	True	0.0	277	0	6.0	6.0	1.0	1	right	2.0	1.0	1.0	1	0.055581586808	blockFiles/set_11/main_unc/rightBlue\GB_RB_4.xlsx
422	main_unc	True	0.0	277	0	6.0	6.0	0.0	0	left	2.0	1.0	1.0	1	0.0328491703421	blockFiles/set_11/main_unc/rightBlue\GB_RB_4.xlsx
423	main_unc	True	0.0	277	0	6.0	6.0	1.0	1	right	2.0	1.0	1.0	1	0.0558519409038	blockFiles/set_11/main_unc/rightBlue\GB_RB_4.xlsx
424	main_unc	True	0.0	277	0	6.0	6.0	1.0	0	right	1.0	1.0	1.0	0	-0.0422309598513	blockFiles/set_11/main_unc/rightBlue\GB_RB_4.xlsx
425	main_unc	True	0.0	277	0	6.0	6.0	0.0	1	left	1.0	0.0	1.0	0	-0.0364428898878	blockFiles/set_11/main_unc/rightBlue\GB_RB_4.xlsx
426	main_unc	True	0.0	277	0	6.0	6.0	1.0	0	right	2.0	0.0	0.0	0	-0.015583878085	blockFiles/set_11/main_unc/rightBlue\GB_RB_4.xlsx
427	main_unc	True	0.0	277	0	6.0	6.0	1.0	1	right	1.0	1.0	0.0	1	0.0661733334884	blockFiles/set_11/main_unc/rightBlue\GB_RB_4.xlsx
428	main_unc	True	0.0	277	0	6.0	6.0	1.0	0	right	1.0	1.0	1.0	0	-0.0246876325086	blockFiles/set_11/main_unc/rightBlue\GB_RB_4.xlsx
429	main_unc	True	0.0	277	0	6.0	6.0	0.0	1	left	1.0	1.0	1.0	0	-0.0726679698937	blockFiles/set_11/main_unc/rightBlue\GB_RB_4.xlsx
430	main_unc	True	1.0	277	0	6.0	6.0	0.0	1	left	n/a	0.0	n/a	0	-0.0026565578952399997	blockFiles/set_11/main_unc/rightBlue\GB_RB_4.xlsx
431	main_unc	True	0.0	277	0	6.0	6.0	0.0	1	left	1.0	1.0	1.0	0	-0.07461867256089999	blockFiles/set_11/main_unc/rightBlue\GB_RB_4.xlsx
432	main_unc	True	1.0	277	0	6.0	6.0	n/a	0	None	n/a	0.0	n/a	1	0.00225925736129	blockFiles/set_11/main_unc/rightBlue\GB_RB_4.xlsx
433	main_unc	True	0.0	277	0	6.0	6.0	0.0	0	left	2.0	1.0	1.0	1	0.058103886749599994	blockFiles/set_11/main_unc/rightBlue\GB_RB_4.xlsx
434	main_unc	True	0.0	277	0	6.0	6.0	0.0	1	left	2.0	0.0	0.0	0	-0.028200036678499997	blockFiles/set_11/main_unc/rightBlue\GB_RB_4.xlsx
435	main_unc	True	0.0	277	0	6.0	6.0	1.0	0	right	2.0	0.0	0.0	0	-0.0026565578952399997	blockFiles/set_11/main_unc/rightBlue\GB_RB_4.xlsx
436	main_unc	True	0.0	277	0	6.0	6.0	0.0	0	left	2.0	1.0	1.0	1	0.00225925736129	blockFiles/set_11/main_unc/rightBlue\GB_RB_4.xlsx
437	main_unc	True	0.0	277	0	7.0	7.0	1.0	1	right	2.0	0.0	0.0	1	0.0349797061831	blockFiles/set_11/main_unc/leftBlue\GB_LB_3.xlsx
438	main_unc	True	0.0	277	0	7.0	7.0	1.0	1	right	2.0	0.0	0.0	1	0.0396408979222	blockFiles/set_11/main_unc/leftBlue\GB_LB_3.xlsx
439	main_unc	True	0.0	277	0	7.0	7.0	0.0	1	left	2.0	1.0	1.0	0	-0.0196097829565	blockFiles/set_11/main_unc/leftBlue\GB_LB_3.xlsx
440	main_unc	True	0.0	277	0	7.0	7.0	0.0	1	left	1.0	0.0	0.0	0	-0.0351018660329	blockFiles/set_11/main_unc/leftBlue\GB_LB_3.xlsx
441	main_unc	True	0.0	277	0	7.0	7.0	1.0	1	right	1.0	1.0	1.0	1	0.058314696252300006	blockFiles/set_11/main_unc/leftBlue\GB_LB_3.xlsx
442	main_unc	True	0.0	277	0	7.0	7.0	0.0	1	left	2.0	1.0	1.0	0	-0.0726035622135	blockFiles/set_11/main_unc/leftBlue\GB_LB_3.xlsx
443	main_unc	True	0.0	277	0	7.0	7.0	0.0	1	left	2.0	1.0	1.0	0	-0.029414281006900002	blockFiles/set_11/main_unc/leftBlue\GB_LB_3.xlsx
444	main_unc	True	0.0	277	0	7.0	7.0	1.0	1	right	1.0	1.0	1.0	1	0.0510740730166	blockFiles/set_11/main_unc/leftBlue\GB_LB_3.xlsx
445	main_unc	True	0.0	277	0	7.0	7.0	0.0	1	left	1.0	0.0	0.0	0	-0.00536537842825	blockFiles/set_11/main_unc/leftBlue\GB_LB_3.xlsx
446	main_unc	True	0.0	277	0	7.0	7.0	0.0	0	left	2.0	1.0	0.0	1	0.00236297890544	blockFiles/set_11/main_unc/leftBlue\GB_LB_3.xlsx
447	main_unc	True	0.0	277	0	7.0	7.0	0.0	1	left	1.0	0.0	0.0	0	-0.0431883076392	blockFiles/set_11/main_unc/leftBlue\GB_LB_3.xlsx
448	main_unc	True	0.0	277	0	7.0	7.0	0.0	0	left	2.0	0.0	0.0	1	0.052026364728800005	blockFiles/set_11/main_unc/leftBlue\GB_LB_3.xlsx
449	main_unc	True	0.0	277	0	7.0	7.0	1.0	1	right	1.0	1.0	1.0	1	0.0337822541967	blockFiles/set_11/main_unc/leftBlue\GB_LB_3.xlsx
450	main_unc	True	0.0	277	0	7.0	7.0	1.0	1	right	1.0	1.0	1.0	1	0.07936906386169999	blockFiles/set_11/main_unc/leftBlue\GB_LB_3.xlsx
451	main_unc	True	0.0	277	0	7.0	7.0	0.0	0	left	2.0	0.0	0.0	1	0.0025190422497700002	blockFiles/set_11/main_unc/leftBlue\GB_LB_3.xlsx
452	main_unc	True	0.0	277	0	7.0	7.0	0.0	1	left	2.0	0.0	1.0	0	-0.0632517120987	blockFiles/set_11/main_unc/leftBlue\GB_LB_3.xlsx
453	main_unc	True	0.0	277	0	7.0	7.0	1.0	1	right	1.0	1.0	1.0	1	0.0447689110972	blockFiles/set_11/main_unc/leftBlue\GB_LB_3.xlsx
454	main_unc	True	0.0	277	0	7.0	7.0	1.0	1	right	2.0	1.0	0.0	1	0.00801533367485	blockFiles/set_11/main_unc/leftBlue\GB_LB_3.xlsx
455	main_unc	True	0.0	277	0	7.0	7.0	1.0	0	right	1.0	0.0	0.0	0	-0.0269334709644	blockFiles/set_11/main_unc/leftBlue\GB_LB_3.xlsx
456	main_unc	True	0.0	277	0	7.0	7.0	0.0	1	left	2.0	1.0	1.0	0	-0.059446115996699994	blockFiles/set_11/main_unc/leftBlue\GB_LB_3.xlsx
457	main_unc	True	1.0	277	0	7.0	7.0	1.0	0	right	n/a	0.0	n/a	0	-0.0524608443864	blockFiles/set_11/main_unc/leftBlue\GB_LB_3.xlsx
458	main_unc	True	1.0	277	0	7.0	7.0	0.0	0	left	n/a	0.0	n/a	1	0.014499375745700002	blockFiles/set_11/main_unc/leftBlue\GB_LB_3.xlsx
459	main_unc	True	0.0	277	0	7.0	7.0	0.0	1	left	1.0	1.0	0.0	0	-0.0728033834323	blockFiles/set_11/main_unc/leftBlue\GB_LB_3.xlsx
460	main_unc	True	0.0	277	0	7.0	7.0	0.0	1	left	1.0	0.0	0.0	0	-0.039613518584500004	blockFiles/set_11/main_unc/leftBlue\GB_LB_3.xlsx
461	main_unc	True	0.0	277	0	7.0	7.0	1.0	0	right	2.0	1.0	1.0	0	-0.05678748540580001	blockFiles/set_11/main_unc/leftBlue\GB_LB_3.xlsx
462	main_unc	True	0.0	277	0	7.0	7.0	0.0	1	left	2.0	0.0	1.0	0	-0.0524608443864	blockFiles/set_11/main_unc/leftBlue\GB_LB_3.xlsx
463	main_unc	True	0.0	277	0	7.0	7.0	0.0	0	left	1.0	1.0	1.0	1	0.014499375745700002	blockFiles/set_11/main_unc/leftBlue\GB_LB_3.xlsx
464	main_unc	True	0.0	277	0	8.0	8.0	1.0	1	right	1.0	0.0	1.0	1	0.035933136157699996	blockFiles/set_11/main_unc/leftBlue\GB_LB_6.xlsx
465	main_unc	True	0.0	277	0	8.0	8.0	0.0	1	left	2.0	1.0	1.0	0	-0.0408676314354	blockFiles/set_11/main_unc/leftBlue\GB_LB_6.xlsx
466	main_unc	True	0.0	277	0	8.0	8.0	0.0	1	left	2.0	1.0	1.0	0	-0.0385797643661	blockFiles/set_11/main_unc/leftBlue\GB_LB_6.xlsx
467	main_unc	True	0.0	277	0	8.0	8.0	0.0	1	left	2.0	1.0	1.0	0	-0.030946391001300002	blockFiles/set_11/main_unc/leftBlue\GB_LB_6.xlsx
468	main_unc	True	0.0	277	0	8.0	8.0	0.0	1	left	2.0	1.0	1.0	0	-0.0676535488293	blockFiles/set_11/main_unc/leftBlue\GB_LB_6.xlsx
469	main_unc	True	0.0	277	0	8.0	8.0	1.0	1	right	1.0	1.0	1.0	1	0.0154707902111	blockFiles/set_11/main_unc/leftBlue\GB_LB_6.xlsx
470	main_unc	True	0.0	277	0	8.0	8.0	0.0	1	left	2.0	1.0	1.0	0	-0.061346359867599995	blockFiles/set_11/main_unc/leftBlue\GB_LB_6.xlsx
471	main_unc	True	0.0	277	0	8.0	8.0	1.0	1	right	1.0	1.0	1.0	1	0.078551304061	blockFiles/set_11/main_unc/leftBlue\GB_LB_6.xlsx
472	main_unc	True	0.0	277	0	8.0	8.0	0.0	1	left	2.0	0.0	1.0	0	-0.0409144549444	blockFiles/set_11/main_unc/leftBlue\GB_LB_6.xlsx
473	main_unc	True	0.0	277	0	8.0	8.0	0.0	1	left	2.0	0.0	1.0	0	-0.017984019313	blockFiles/set_11/main_unc/leftBlue\GB_LB_6.xlsx
474	main_unc	True	0.0	277	0	8.0	8.0	0.0	0	left	2.0	0.0	0.0	1	0.0038967638090300002	blockFiles/set_11/main_unc/leftBlue\GB_LB_6.xlsx
475	main_unc	True	0.0	277	0	8.0	8.0	1.0	0	right	2.0	1.0	1.0	0	-0.0630293267593	blockFiles/set_11/main_unc/leftBlue\GB_LB_6.xlsx
476	main_unc	True	0.0	277	0	8.0	8.0	0.0	1	left	2.0	1.0	1.0	0	-0.0396561324596	blockFiles/set_11/main_unc/leftBlue\GB_LB_6.xlsx
477	main_unc	True	0.0	277	0	8.0	8.0	0.0	1	left	2.0	1.0	1.0	0	-0.011342139598000001	blockFiles/set_11/main_unc/leftBlue\GB_LB_6.xlsx
478	main_unc	True	0.0	277	0	8.0	8.0	1.0	1	right	1.0	1.0	1.0	1	0.0702010976896	blockFiles/set_11/main_unc/leftBlue\GB_LB_6.xlsx
479	main_unc	True	0.0	277	0	8.0	8.0	1.0	1	right	1.0	1.0	1.0	1	0.0697480216622	blockFiles/set_11/main_unc/leftBlue\GB_LB_6.xlsx
480	main_unc	True	0.0	277	0	8.0	8.0	1.0	1	right	1.0	1.0	1.0	1	0.0714600597508	blockFiles/set_11/main_unc/leftBlue\GB_LB_6.xlsx
481	main_unc	True	0.0	277	0	8.0	8.0	0.0	1	left	1.0	0.0	0.0	0	-0.00102638185024	blockFiles/set_11/main_unc/leftBlue\GB_LB_6.xlsx
482	main_unc	True	0.0	277	0	8.0	8.0	0.0	1	left	2.0	0.0	1.0	0	-0.0317441651411	blockFiles/set_11/main_unc/leftBlue\GB_LB_6.xlsx
483	main_unc	True	0.0	277	0	8.0	8.0	1.0	1	right	1.0	1.0	1.0	1	0.022432535290700002	blockFiles/set_11/main_unc/leftBlue\GB_LB_6.xlsx
484	main_unc	True	0.0	277	0	8.0	8.0	1.0	1	right	1.0	1.0	1.0	1	0.05606276892130001	blockFiles/set_11/main_unc/leftBlue\GB_LB_6.xlsx
485	main_unc	True	0.0	277	0	8.0	8.0	0.0	1	left	1.0	0.0	0.0	0	-0.07162809245289999	blockFiles/set_11/main_unc/leftBlue\GB_LB_6.xlsx
486	main_unc	True	0.0	277	0	8.0	8.0	0.0	1	left	2.0	1.0	1.0	0	-0.0425391921774	blockFiles/set_11/main_unc/leftBlue\GB_LB_6.xlsx
487	main_unc	True	0.0	277	0	8.0	8.0	0.0	0	left	1.0	1.0	1.0	1	0.0646996559761	blockFiles/set_11/main_unc/leftBlue\GB_LB_6.xlsx
488	main_unc	True	0.0	277	0	8.0	8.0	0.0	0	left	1.0	1.0	1.0	1	0.0304362461343	blockFiles/set_11/main_unc/leftBlue\GB_LB_6.xlsx
489	main_unc	True	0.0	277	0	9.0	9.0	1.0	1	right	2.0	0.0	1.0	1	0.0596344662644	blockFiles/set_11/main_unc/rightBlue\GB_RB_5.xlsx
490	main_unc	True	0.0	277	0	9.0	9.0	1.0	1	right	2.0	1.0	1.0	1	0.0145582919568	blockFiles/set_11/main_unc/rightBlue\GB_RB_5.xlsx
491	main_unc	True	0.0	277	0	9.0	9.0	0.0	0	left	1.0	0.0	0.0	1	0.0543445080891	blockFiles/set_11/main_unc/rightBlue\GB_RB_5.xlsx
492	main_unc	True	0.0	277	0	9.0	9.0	0.0	1	left	1.0	1.0	1.0	0	-0.0131550977007	blockFiles/set_11/main_unc/rightBlue\GB_RB_5.xlsx
493	main_unc	True	0.0	277	0	9.0	9.0	0.0	1	left	2.0	0.0	0.0	0	-0.009146008752290002	blockFiles/set_11/main_unc/rightBlue\GB_RB_5.xlsx
494	main_unc	True	0.0	277	0	9.0	9.0	1.0	1	right	1.0	0.0	0.0	1	0.0675975967012	blockFiles/set_11/main_unc/rightBlue\GB_RB_5.xlsx
495	main_unc	True	0.0	277	0	9.0	9.0	0.0	0	left	2.0	1.0	1.0	1	0.0400200195238	blockFiles/set_11/main_unc/rightBlue\GB_RB_5.xlsx
496	main_unc	True	0.0	277	0	9.0	9.0	1.0	1	right	2.0	1.0	1.0	1	0.07386528275910001	blockFiles/set_11/main_unc/rightBlue\GB_RB_5.xlsx
497	main_unc	True	0.0	277	0	9.0	9.0	0.0	1	left	2.0	0.0	0.0	0	-0.00558243026957	blockFiles/set_11/main_unc/rightBlue\GB_RB_5.xlsx
498	main_unc	True	0.0	277	0	9.0	9.0	1.0	1	right	2.0	1.0	1.0	1	0.014441828448299998	blockFiles/set_11/main_unc/rightBlue\GB_RB_5.xlsx
499	main_unc	True	0.0	277	0	9.0	9.0	0.0	1	left	1.0	0.0	1.0	0	-0.048100019283600005	blockFiles/set_11/main_unc/rightBlue\GB_RB_5.xlsx
500	main_unc	True	0.0	277	0	9.0	9.0	1.0	0	right	2.0	0.0	0.0	0	-0.0037840164825299998	blockFiles/set_11/main_unc/rightBlue\GB_RB_5.xlsx
501	main_unc	True	0.0	277	0	9.0	9.0	0.0	1	left	1.0	1.0	1.0	0	-0.0349187944271	blockFiles/set_11/main_unc/rightBlue\GB_RB_5.xlsx
502	main_unc	True	0.0	277	0	9.0	9.0	1.0	1	right	2.0	0.0	1.0	1	0.0745037952997	blockFiles/set_11/main_unc/rightBlue\GB_RB_5.xlsx
503	main_unc	True	0.0	277	0	9.0	9.0	0.0	1	left	1.0	1.0	1.0	0	-0.0280571090057	blockFiles/set_11/main_unc/rightBlue\GB_RB_5.xlsx
504	main_unc	True	0.0	277	0	9.0	9.0	0.0	1	left	1.0	1.0	1.0	0	-0.0669555917196	blockFiles/set_11/main_unc/rightBlue\GB_RB_5.xlsx
505	main_unc	True	0.0	277	0	9.0	9.0	0.0	1	left	1.0	1.0	1.0	0	-0.0400614713877	blockFiles/set_11/main_unc/rightBlue\GB_RB_5.xlsx
506	main_unc	True	0.0	277	0	9.0	9.0	1.0	1	right	2.0	1.0	1.0	1	0.0058779528178299996	blockFiles/set_11/main_unc/rightBlue\GB_RB_5.xlsx
507	main_unc	True	0.0	277	0	9.0	9.0	0.0	0	left	2.0	1.0	1.0	1	0.0746034102328	blockFiles/set_11/main_unc/rightBlue\GB_RB_5.xlsx
508	main_unc	True	0.0	277	0	9.0	9.0	0.0	1	left	1.0	1.0	1.0	0	-0.0355860357732	blockFiles/set_11/main_unc/rightBlue\GB_RB_5.xlsx
509	main_unc	True	0.0	277	0	9.0	9.0	1.0	1	right	2.0	1.0	1.0	1	0.070963045992	blockFiles/set_11/main_unc/rightBlue\GB_RB_5.xlsx
510	main_unc	True	0.0	277	0	9.0	9.0	1.0	1	right	2.0	1.0	1.0	1	0.013948070723600001	blockFiles/set_11/main_unc/rightBlue\GB_RB_5.xlsx
511	main_unc	True	0.0	277	0	9.0	9.0	1.0	0	right	1.0	1.0	1.0	0	-0.0307387298159	blockFiles/set_11/main_unc/rightBlue\GB_RB_5.xlsx
512	main_unc	True	0.0	277	0	9.0	9.0	1.0	1	right	2.0	1.0	1.0	1	0.050355103574699994	blockFiles/set_11/main_unc/rightBlue\GB_RB_5.xlsx
513	main_unc	True	0.0	277	0	9.0	9.0	1.0	1	right	2.0	0.0	1.0	1	0.0286518876068	blockFiles/set_11/main_unc/rightBlue\GB_RB_5.xlsx
514	main_unc	True	0.0	277	0	10.0	10.0	1.0	1	right	1.0	0.0	0.0	1	0.005017208829520001	blockFiles/set_11/main_unc/rightBlue\GB_RB_2.xlsx
515	main_unc	True	0.0	277	0	10.0	10.0	1.0	1	right	2.0	1.0	1.0	1	0.0427624553815	blockFiles/set_11/main_unc/rightBlue\GB_RB_2.xlsx
516	main_unc	True	0.0	277	0	10.0	10.0	0.0	1	left	2.0	0.0	0.0	0	-0.031152011957	blockFiles/set_11/main_unc/rightBlue\GB_RB_2.xlsx
517	main_unc	True	0.0	277	0	10.0	10.0	1.0	0	right	2.0	1.0	0.0	0	-0.044683789610900006	blockFiles/set_11/main_unc/rightBlue\GB_RB_2.xlsx
518	main_unc	True	0.0	277	0	10.0	10.0	1.0	0	right	1.0	1.0	1.0	0	-0.0232802467607	blockFiles/set_11/main_unc/rightBlue\GB_RB_2.xlsx
519	main_unc	True	0.0	277	0	10.0	10.0	1.0	1	right	1.0	0.0	0.0	1	0.005106824729590001	blockFiles/set_11/main_unc/rightBlue\GB_RB_2.xlsx
520	main_unc	True	0.0	277	0	10.0	10.0	1.0	0	right	1.0	0.0	1.0	0	-0.0591101073101	blockFiles/set_11/main_unc/rightBlue\GB_RB_2.xlsx
521	main_unc	True	0.0	277	0	10.0	10.0	1.0	0	right	2.0	0.0	0.0	0	-0.031820713263	blockFiles/set_11/main_unc/rightBlue\GB_RB_2.xlsx
522	main_unc	True	0.0	277	0	10.0	10.0	1.0	1	right	2.0	1.0	1.0	1	0.07611979756500001	blockFiles/set_11/main_unc/rightBlue\GB_RB_2.xlsx
523	main_unc	True	0.0	277	0	10.0	10.0	1.0	1	right	1.0	0.0	0.0	1	0.051331838835000004	blockFiles/set_11/main_unc/rightBlue\GB_RB_2.xlsx
524	main_unc	True	0.0	277	0	10.0	10.0	1.0	0	right	1.0	1.0	1.0	0	-0.046568137891600005	blockFiles/set_11/main_unc/rightBlue\GB_RB_2.xlsx
525	main_unc	True	0.0	277	0	10.0	10.0	1.0	0	right	2.0	0.0	0.0	0	-0.0623432836123	blockFiles/set_11/main_unc/rightBlue\GB_RB_2.xlsx
526	main_unc	True	0.0	277	0	10.0	10.0	1.0	0	right	2.0	1.0	0.0	0	-0.0504170740768	blockFiles/set_11/main_unc/rightBlue\GB_RB_2.xlsx
527	main_unc	True	0.0	277	0	10.0	10.0	1.0	0	right	2.0	1.0	0.0	0	-0.0036346076801399996	blockFiles/set_11/main_unc/rightBlue\GB_RB_2.xlsx
528	main_unc	True	0.0	277	0	10.0	10.0	1.0	1	right	1.0	0.0	0.0	1	0.00827816428617	blockFiles/set_11/main_unc/rightBlue\GB_RB_2.xlsx
529	main_unc	True	0.0	277	0	10.0	10.0	1.0	1	right	1.0	1.0	0.0	1	0.07829926993700001	blockFiles/set_11/main_unc/rightBlue\GB_RB_2.xlsx
530	main_unc	True	0.0	277	0	10.0	10.0	1.0	1	right	1.0	0.0	0.0	1	0.0786528635584	blockFiles/set_11/main_unc/rightBlue\GB_RB_2.xlsx
531	main_unc	True	0.0	277	0	10.0	10.0	1.0	1	right	2.0	1.0	1.0	1	0.06620940499009999	blockFiles/set_11/main_unc/rightBlue\GB_RB_2.xlsx
532	main_unc	True	0.0	277	0	10.0	10.0	1.0	0	right	2.0	1.0	0.0	0	-0.00544148148969	blockFiles/set_11/main_unc/rightBlue\GB_RB_2.xlsx
533	main_unc	True	0.0	277	0	10.0	10.0	0.0	0	left	2.0	1.0	1.0	1	0.00321059769019	blockFiles/set_11/main_unc/rightBlue\GB_RB_2.xlsx
534	main_unc	True	0.0	277	0	10.0	10.0	0.0	1	left	2.0	0.0	0.0	0	-0.026455484814900003	blockFiles/set_11/main_unc/rightBlue\GB_RB_2.xlsx
535	main_unc	True	0.0	277	0	10.0	10.0	1.0	0	right	1.0	1.0	1.0	0	-0.07390069523830001	blockFiles/set_11/main_unc/rightBlue\GB_RB_2.xlsx
536	main_unc	True	0.0	277	0	10.0	10.0	1.0	1	right	2.0	1.0	1.0	1	0.0652277639881	blockFiles/set_11/main_unc/rightBlue\GB_RB_2.xlsx
537	main_unc	True	0.0	277	0	10.0	10.0	1.0	1	right	2.0	1.0	1.0	1	0.034686631374099997	blockFiles/set_11/main_unc/rightBlue\GB_RB_2.xlsx
538	main_unc	True	0.0	277	0	10.0	10.0	1.0	0	right	1.0	1.0	1.0	0	-0.0370183322206	blockFiles/set_11/main_unc/rightBlue\GB_RB_2.xlsx
539	main_unc	True	0.0	277	0	11.0	11.0	0.0	1	left	1.0	1.0	1.0	0	-0.07073816789310002	blockFiles/set_11/main_unc/rightBlue\GB_RB_3.xlsx
540	main_unc	True	0.0	277	0	11.0	11.0	1.0	1	right	2.0	1.0	1.0	1	0.00730464894325	blockFiles/set_11/main_unc/rightBlue\GB_RB_3.xlsx
541	main_unc	True	0.0	277	0	11.0	11.0	0.0	1	left	2.0	0.0	0.0	0	-0.0624485534057	blockFiles/set_11/main_unc/rightBlue\GB_RB_3.xlsx
542	main_unc	True	0.0	277	0	11.0	11.0	1.0	0	right	2.0	1.0	0.0	0	-0.030535191204400004	blockFiles/set_11/main_unc/rightBlue\GB_RB_3.xlsx
543	main_unc	True	0.0	277	0	11.0	11.0	0.0	1	left	2.0	0.0	0.0	0	-0.0444334337488	blockFiles/set_11/main_unc/rightBlue\GB_RB_3.xlsx
544	main_unc	True	0.0	277	0	11.0	11.0	1.0	0	right	2.0	1.0	0.0	0	-0.0140841268934	blockFiles/set_11/main_unc/rightBlue\GB_RB_3.xlsx
545	main_unc	True	0.0	277	0	11.0	11.0	1.0	0	right	1.0	1.0	1.0	0	-0.0073658728413299995	blockFiles/set_11/main_unc/rightBlue\GB_RB_3.xlsx
546	main_unc	True	0.0	277	0	11.0	11.0	1.0	1	right	2.0	1.0	1.0	1	0.057729694247199995	blockFiles/set_11/main_unc/rightBlue\GB_RB_3.xlsx
547	main_unc	True	0.0	277	0	11.0	11.0	1.0	1	right	1.0	0.0	0.0	1	0.0572966599464	blockFiles/set_11/main_unc/rightBlue\GB_RB_3.xlsx
548	main_unc	True	0.0	277	0	11.0	11.0	1.0	1	right	1.0	1.0	0.0	1	0.0789417007752	blockFiles/set_11/main_unc/rightBlue\GB_RB_3.xlsx
549	main_unc	True	0.0	277	0	11.0	11.0	1.0	1	right	1.0	0.0	0.0	1	0.025216385033	blockFiles/set_11/main_unc/rightBlue\GB_RB_3.xlsx
550	main_unc	True	0.0	277	0	11.0	11.0	0.0	1	left	2.0	0.0	0.0	0	-0.0422550754808	blockFiles/set_11/main_unc/rightBlue\GB_RB_3.xlsx
551	main_unc	True	0.0	277	0	11.0	11.0	1.0	0	right	2.0	0.0	0.0	0	-0.017068197988	blockFiles/set_11/main_unc/rightBlue\GB_RB_3.xlsx
552	main_unc	True	0.0	277	0	11.0	11.0	1.0	1	right	1.0	0.0	0.0	1	0.047017656024500004	blockFiles/set_11/main_unc/rightBlue\GB_RB_3.xlsx
553	main_unc	True	0.0	277	0	11.0	11.0	1.0	1	right	2.0	1.0	1.0	1	0.0172219785489	blockFiles/set_11/main_unc/rightBlue\GB_RB_3.xlsx
554	main_unc	True	0.0	277	0	11.0	11.0	1.0	0	right	1.0	1.0	1.0	0	-0.0799655861408	blockFiles/set_11/main_unc/rightBlue\GB_RB_3.xlsx
555	main_unc	True	0.0	277	0	11.0	11.0	0.0	0	left	2.0	1.0	1.0	1	0.00462825903669	blockFiles/set_11/main_unc/rightBlue\GB_RB_3.xlsx
556	main_unc	True	0.0	277	0	11.0	11.0	0.0	1	left	2.0	0.0	0.0	0	-0.057426999658300004	blockFiles/set_11/main_unc/rightBlue\GB_RB_3.xlsx
557	main_unc	True	0.0	277	0	11.0	11.0	0.0	0	left	2.0	1.0	1.0	1	0.0381044459902	blockFiles/set_11/main_unc/rightBlue\GB_RB_3.xlsx
558	main_unc	True	0.0	277	0	11.0	11.0	1.0	1	right	2.0	1.0	1.0	1	0.0115688704699	blockFiles/set_11/main_unc/rightBlue\GB_RB_3.xlsx
559	main_unc	True	0.0	277	0	11.0	11.0	1.0	1	right	2.0	1.0	1.0	1	0.033915087115	blockFiles/set_11/main_unc/rightBlue\GB_RB_3.xlsx
560	main_unc	True	0.0	277	0	11.0	11.0	1.0	0	right	1.0	1.0	1.0	0	-0.0779838221893	blockFiles/set_11/main_unc/rightBlue\GB_RB_3.xlsx
561	main_unc	True	0.0	277	0	11.0	11.0	1.0	1	right	2.0	0.0	1.0	1	0.0155837038159	blockFiles/set_11/main_unc/rightBlue\GB_RB_3.xlsx
562	main_unc	True	0.0	277	0	11.0	11.0	0.0	1	left	1.0	1.0	1.0	0	-0.054414936825599995	blockFiles/set_11/main_unc/rightBlue\GB_RB_3.xlsx
563	main_unc	True	0.0	277	0	11.0	11.0	1.0	1	right	1.0	0.0	0.0	1	0.0557436794788	blockFiles/set_11/main_unc/rightBlue\GB_RB_3.xlsx
