	trial_type	complete	missIndex	participant	id	blockNumber	b_t	d_t	decision1.corr	decision1.keys	a_t	r_t	decision2.corr	s_t	u_t	block_file
0	main_safe	True	0.0	117	0	0.0	0.0	1.0	0	right	1.0	1.0	1.0	0	-0.08	blockFiles/set_36/main_safe/rightBlue\GB_RB_2.xlsx
1	main_safe	True	0.0	117	0	0.0	0.0	0.0	1	left	2.0	0.0	0.0	0	-0.08	blockFiles/set_36/main_safe/rightBlue\GB_RB_2.xlsx
2	main_safe	True	0.0	117	0	0.0	0.0	1.0	1	right	1.0	0.0	0.0	1	0.08	blockFiles/set_36/main_safe/rightBlue\GB_RB_2.xlsx
3	main_safe	True	0.0	117	0	0.0	0.0	1.0	1	right	2.0	1.0	1.0	1	0.08	blockFiles/set_36/main_safe/rightBlue\GB_RB_2.xlsx
4	main_safe	True	0.0	117	0	0.0	0.0	1.0	1	right	2.0	1.0	1.0	1	0.08	blockFiles/set_36/main_safe/rightBlue\GB_RB_2.xlsx
5	main_safe	True	0.0	117	0	0.0	0.0	0.0	1	left	1.0	1.0	1.0	0	-0.08	blockFiles/set_36/main_safe/rightBlue\GB_RB_2.xlsx
6	main_safe	True	0.0	117	0	0.0	0.0	0.0	1	left	1.0	1.0	1.0	0	-0.08	blockFiles/set_36/main_safe/rightBlue\GB_RB_2.xlsx
7	main_safe	True	0.0	117	0	0.0	0.0	0.0	1	left	1.0	1.0	1.0	0	-0.08	blockFiles/set_36/main_safe/rightBlue\GB_RB_2.xlsx
8	main_safe	True	0.0	117	0	0.0	0.0	1.0	1	right	2.0	1.0	1.0	1	0.08	blockFiles/set_36/main_safe/rightBlue\GB_RB_2.xlsx
9	main_safe	True	0.0	117	0	0.0	0.0	0.0	1	left	2.0	0.0	0.0	0	-0.08	blockFiles/set_36/main_safe/rightBlue\GB_RB_2.xlsx
10	main_safe	True	0.0	117	0	0.0	0.0	1.0	1	right	2.0	0.0	1.0	1	0.08	blockFiles/set_36/main_safe/rightBlue\GB_RB_2.xlsx
11	main_safe	True	0.0	117	0	0.0	0.0	1.0	1	right	2.0	1.0	1.0	1	0.08	blockFiles/set_36/main_safe/rightBlue\GB_RB_2.xlsx
12	main_safe	True	0.0	117	0	0.0	0.0	0.0	1	left	1.0	0.0	1.0	0	-0.08	blockFiles/set_36/main_safe/rightBlue\GB_RB_2.xlsx
13	main_safe	True	0.0	117	0	0.0	0.0	0.0	1	left	1.0	1.0	1.0	0	-0.08	blockFiles/set_36/main_safe/rightBlue\GB_RB_2.xlsx
14	main_safe	True	0.0	117	0	0.0	0.0	1.0	1	right	2.0	0.0	1.0	1	0.08	blockFiles/set_36/main_safe/rightBlue\GB_RB_2.xlsx
15	main_safe	True	0.0	117	0	0.0	0.0	1.0	1	right	2.0	1.0	1.0	1	0.08	blockFiles/set_36/main_safe/rightBlue\GB_RB_2.xlsx
16	main_safe	True	1.0	117	0	0.0	0.0	0.0	1	left	n/a	0.0	n/a	0	-0.08	blockFiles/set_36/main_safe/rightBlue\GB_RB_2.xlsx
17	main_safe	True	0.0	117	0	0.0	0.0	1.0	1	right	2.0	1.0	1.0	1	0.08	blockFiles/set_36/main_safe/rightBlue\GB_RB_2.xlsx
18	main_safe	True	0.0	117	0	0.0	0.0	0.0	1	left	1.0	1.0	1.0	0	-0.08	blockFiles/set_36/main_safe/rightBlue\GB_RB_2.xlsx
19	main_safe	True	0.0	117	0	0.0	0.0	0.0	1	left	1.0	1.0	1.0	0	-0.08	blockFiles/set_36/main_safe/rightBlue\GB_RB_2.xlsx
20	main_safe	True	0.0	117	0	0.0	0.0	1.0	1	right	2.0	0.0	1.0	1	0.08	blockFiles/set_36/main_safe/rightBlue\GB_RB_2.xlsx
21	main_safe	True	0.0	117	0	0.0	0.0	1.0	1	right	2.0	1.0	1.0	1	0.08	blockFiles/set_36/main_safe/rightBlue\GB_RB_2.xlsx
22	main_safe	True	0.0	117	0	0.0	0.0	1.0	1	right	2.0	1.0	1.0	1	0.08	blockFiles/set_36/main_safe/rightBlue\GB_RB_2.xlsx
23	main_safe	True	0.0	117	0	0.0	0.0	0.0	1	left	1.0	1.0	1.0	0	-0.08	blockFiles/set_36/main_safe/rightBlue\GB_RB_2.xlsx
24	main_safe	True	0.0	117	0	0.0	0.0	0.0	1	left	1.0	0.0	1.0	0	-0.08	blockFiles/set_36/main_safe/rightBlue\GB_RB_2.xlsx
25	main_safe	True	0.0	117	0	0.0	0.0	0.0	1	left	1.0	1.0	1.0	0	-0.08	blockFiles/set_36/main_safe/rightBlue\GB_RB_2.xlsx
26	main_safe	True	0.0	117	0	1.0	1.0	0.0	1	left	2.0	0.0	0.0	0	-0.08	blockFiles/set_36/main_safe/rightBlue\GB_RB_3.xlsx
27	main_safe	True	0.0	117	0	1.0	1.0	0.0	1	left	1.0	1.0	1.0	0	-0.08	blockFiles/set_36/main_safe/rightBlue\GB_RB_3.xlsx
28	main_safe	True	0.0	117	0	1.0	1.0	0.0	1	left	1.0	0.0	1.0	0	-0.08	blockFiles/set_36/main_safe/rightBlue\GB_RB_3.xlsx
29	main_safe	True	0.0	117	0	1.0	1.0	1.0	1	right	2.0	1.0	1.0	1	0.08	blockFiles/set_36/main_safe/rightBlue\GB_RB_3.xlsx
30	main_safe	True	0.0	117	0	1.0	1.0	1.0	1	right	2.0	1.0	1.0	1	0.08	blockFiles/set_36/main_safe/rightBlue\GB_RB_3.xlsx
31	main_safe	True	0.0	117	0	1.0	1.0	0.0	1	left	1.0	1.0	1.0	0	-0.08	blockFiles/set_36/main_safe/rightBlue\GB_RB_3.xlsx
32	main_safe	True	0.0	117	0	1.0	1.0	1.0	1	right	2.0	1.0	1.0	1	0.08	blockFiles/set_36/main_safe/rightBlue\GB_RB_3.xlsx
33	main_safe	True	0.0	117	0	1.0	1.0	0.0	1	left	1.0	1.0	1.0	0	-0.08	blockFiles/set_36/main_safe/rightBlue\GB_RB_3.xlsx
34	main_safe	True	0.0	117	0	1.0	1.0	0.0	1	left	1.0	1.0	1.0	0	-0.08	blockFiles/set_36/main_safe/rightBlue\GB_RB_3.xlsx
35	main_safe	True	0.0	117	0	1.0	1.0	1.0	1	right	2.0	1.0	1.0	1	0.08	blockFiles/set_36/main_safe/rightBlue\GB_RB_3.xlsx
36	main_safe	True	0.0	117	0	1.0	1.0	0.0	1	left	1.0	1.0	1.0	0	-0.08	blockFiles/set_36/main_safe/rightBlue\GB_RB_3.xlsx
37	main_safe	True	0.0	117	0	1.0	1.0	1.0	1	right	2.0	0.0	1.0	1	0.08	blockFiles/set_36/main_safe/rightBlue\GB_RB_3.xlsx
38	main_safe	True	0.0	117	0	1.0	1.0	0.0	1	left	1.0	1.0	1.0	0	-0.08	blockFiles/set_36/main_safe/rightBlue\GB_RB_3.xlsx
39	main_safe	True	0.0	117	0	1.0	1.0	0.0	1	left	1.0	1.0	1.0	0	-0.08	blockFiles/set_36/main_safe/rightBlue\GB_RB_3.xlsx
40	main_safe	True	0.0	117	0	1.0	1.0	0.0	1	left	1.0	1.0	1.0	0	-0.08	blockFiles/set_36/main_safe/rightBlue\GB_RB_3.xlsx
41	main_safe	True	0.0	117	0	1.0	1.0	1.0	1	right	2.0	1.0	1.0	1	0.08	blockFiles/set_36/main_safe/rightBlue\GB_RB_3.xlsx
42	main_safe	True	0.0	117	0	1.0	1.0	0.0	1	left	1.0	1.0	1.0	0	-0.08	blockFiles/set_36/main_safe/rightBlue\GB_RB_3.xlsx
43	main_safe	True	0.0	117	0	1.0	1.0	0.0	1	left	1.0	1.0	1.0	0	-0.08	blockFiles/set_36/main_safe/rightBlue\GB_RB_3.xlsx
44	main_safe	True	0.0	117	0	1.0	1.0	1.0	1	right	2.0	0.0	1.0	1	0.08	blockFiles/set_36/main_safe/rightBlue\GB_RB_3.xlsx
45	main_safe	True	0.0	117	0	1.0	1.0	1.0	1	right	2.0	1.0	1.0	1	0.08	blockFiles/set_36/main_safe/rightBlue\GB_RB_3.xlsx
46	main_safe	True	0.0	117	0	1.0	1.0	1.0	1	right	2.0	0.0	1.0	1	0.08	blockFiles/set_36/main_safe/rightBlue\GB_RB_3.xlsx
47	main_safe	True	0.0	117	0	1.0	1.0	1.0	1	right	2.0	1.0	1.0	1	0.08	blockFiles/set_36/main_safe/rightBlue\GB_RB_3.xlsx
48	main_safe	True	0.0	117	0	1.0	1.0	1.0	1	right	2.0	1.0	1.0	1	0.08	blockFiles/set_36/main_safe/rightBlue\GB_RB_3.xlsx
49	main_safe	True	0.0	117	0	1.0	1.0	0.0	1	left	1.0	0.0	1.0	0	-0.08	blockFiles/set_36/main_safe/rightBlue\GB_RB_3.xlsx
50	main_safe	True	0.0	117	0	1.0	1.0	0.0	1	left	1.0	0.0	1.0	0	-0.08	blockFiles/set_36/main_safe/rightBlue\GB_RB_3.xlsx
51	main_safe	True	0.0	117	0	2.0	2.0	0.0	1	left	2.0	1.0	1.0	0	-0.08	blockFiles/set_36/main_safe/leftBlue\GB_LB_1.xlsx
52	main_safe	True	0.0	117	0	2.0	2.0	1.0	1	right	1.0	1.0	1.0	1	0.08	blockFiles/set_36/main_safe/leftBlue\GB_LB_1.xlsx
53	main_safe	True	0.0	117	0	2.0	2.0	1.0	1	right	1.0	1.0	1.0	1	0.08	blockFiles/set_36/main_safe/leftBlue\GB_LB_1.xlsx
54	main_safe	True	0.0	117	0	2.0	2.0	0.0	0	left	2.0	0.0	0.0	1	0.08	blockFiles/set_36/main_safe/leftBlue\GB_LB_1.xlsx
55	main_safe	True	0.0	117	0	2.0	2.0	0.0	1	left	2.0	1.0	1.0	0	-0.08	blockFiles/set_36/main_safe/leftBlue\GB_LB_1.xlsx
56	main_safe	True	0.0	117	0	2.0	2.0	1.0	1	right	1.0	1.0	1.0	1	0.08	blockFiles/set_36/main_safe/leftBlue\GB_LB_1.xlsx
57	main_safe	True	0.0	117	0	2.0	2.0	0.0	1	left	2.0	1.0	1.0	0	-0.08	blockFiles/set_36/main_safe/leftBlue\GB_LB_1.xlsx
58	main_safe	True	0.0	117	0	2.0	2.0	0.0	1	left	2.0	1.0	1.0	0	-0.08	blockFiles/set_36/main_safe/leftBlue\GB_LB_1.xlsx
59	main_safe	True	0.0	117	0	2.0	2.0	0.0	1	left	2.0	1.0	1.0	0	-0.08	blockFiles/set_36/main_safe/leftBlue\GB_LB_1.xlsx
60	main_safe	True	1.0	117	0	2.0	2.0	1.0	1	right	n/a	0.0	n/a	1	0.08	blockFiles/set_36/main_safe/leftBlue\GB_LB_1.xlsx
61	main_safe	True	0.0	117	0	2.0	2.0	1.0	1	right	1.0	1.0	1.0	1	0.08	blockFiles/set_36/main_safe/leftBlue\GB_LB_1.xlsx
62	main_safe	True	0.0	117	0	2.0	2.0	1.0	1	right	1.0	0.0	1.0	1	0.08	blockFiles/set_36/main_safe/leftBlue\GB_LB_1.xlsx
63	main_safe	True	0.0	117	0	2.0	2.0	0.0	1	left	2.0	1.0	1.0	0	-0.08	blockFiles/set_36/main_safe/leftBlue\GB_LB_1.xlsx
64	main_safe	True	0.0	117	0	2.0	2.0	1.0	1	right	1.0	1.0	1.0	1	0.08	blockFiles/set_36/main_safe/leftBlue\GB_LB_1.xlsx
65	main_safe	True	0.0	117	0	2.0	2.0	1.0	1	right	1.0	0.0	1.0	1	0.08	blockFiles/set_36/main_safe/leftBlue\GB_LB_1.xlsx
66	main_safe	True	0.0	117	0	2.0	2.0	1.0	1	right	1.0	1.0	1.0	1	0.08	blockFiles/set_36/main_safe/leftBlue\GB_LB_1.xlsx
67	main_safe	True	0.0	117	0	2.0	2.0	0.0	1	left	2.0	1.0	1.0	0	-0.08	blockFiles/set_36/main_safe/leftBlue\GB_LB_1.xlsx
68	main_safe	True	0.0	117	0	2.0	2.0	0.0	1	left	2.0	0.0	1.0	0	-0.08	blockFiles/set_36/main_safe/leftBlue\GB_LB_1.xlsx
69	main_safe	True	0.0	117	0	2.0	2.0	1.0	1	right	1.0	0.0	1.0	1	0.08	blockFiles/set_36/main_safe/leftBlue\GB_LB_1.xlsx
70	main_safe	True	0.0	117	0	2.0	2.0	0.0	1	left	2.0	1.0	1.0	0	-0.08	blockFiles/set_36/main_safe/leftBlue\GB_LB_1.xlsx
71	main_safe	True	0.0	117	0	2.0	2.0	0.0	1	left	2.0	0.0	1.0	0	-0.08	blockFiles/set_36/main_safe/leftBlue\GB_LB_1.xlsx
72	main_safe	True	0.0	117	0	2.0	2.0	1.0	1	right	1.0	1.0	1.0	1	0.08	blockFiles/set_36/main_safe/leftBlue\GB_LB_1.xlsx
73	main_safe	True	0.0	117	0	2.0	2.0	1.0	1	right	1.0	1.0	1.0	1	0.08	blockFiles/set_36/main_safe/leftBlue\GB_LB_1.xlsx
74	main_safe	True	0.0	117	0	2.0	2.0	1.0	1	right	1.0	1.0	1.0	1	0.08	blockFiles/set_36/main_safe/leftBlue\GB_LB_1.xlsx
75	main_safe	True	0.0	117	0	2.0	2.0	0.0	1	left	2.0	1.0	1.0	0	-0.08	blockFiles/set_36/main_safe/leftBlue\GB_LB_1.xlsx
76	main_safe	True	0.0	117	0	2.0	2.0	1.0	1	right	1.0	1.0	1.0	1	0.08	blockFiles/set_36/main_safe/leftBlue\GB_LB_1.xlsx
77	main_safe	True	0.0	117	0	3.0	3.0	1.0	1	right	1.0	1.0	0.0	1	0.08	blockFiles/set_36/main_safe/rightBlue\GB_RB_1.xlsx
78	main_safe	True	0.0	117	0	3.0	3.0	0.0	1	left	2.0	0.0	0.0	0	-0.08	blockFiles/set_36/main_safe/rightBlue\GB_RB_1.xlsx
79	main_safe	True	0.0	117	0	3.0	3.0	0.0	1	left	2.0	0.0	0.0	0	-0.08	blockFiles/set_36/main_safe/rightBlue\GB_RB_1.xlsx
80	main_safe	True	0.0	117	0	3.0	3.0	0.0	1	left	1.0	1.0	1.0	0	-0.08	blockFiles/set_36/main_safe/rightBlue\GB_RB_1.xlsx
81	main_safe	True	0.0	117	0	3.0	3.0	0.0	1	left	1.0	1.0	1.0	0	-0.08	blockFiles/set_36/main_safe/rightBlue\GB_RB_1.xlsx
82	main_safe	True	0.0	117	0	3.0	3.0	0.0	1	left	1.0	1.0	1.0	0	-0.08	blockFiles/set_36/main_safe/rightBlue\GB_RB_1.xlsx
83	main_safe	True	0.0	117	0	3.0	3.0	0.0	1	left	1.0	0.0	1.0	0	-0.08	blockFiles/set_36/main_safe/rightBlue\GB_RB_1.xlsx
84	main_safe	True	0.0	117	0	3.0	3.0	1.0	1	right	2.0	1.0	1.0	1	0.08	blockFiles/set_36/main_safe/rightBlue\GB_RB_1.xlsx
85	main_safe	True	0.0	117	0	3.0	3.0	0.0	1	left	1.0	1.0	1.0	0	-0.08	blockFiles/set_36/main_safe/rightBlue\GB_RB_1.xlsx
86	main_safe	True	0.0	117	0	3.0	3.0	1.0	1	right	2.0	1.0	1.0	1	0.08	blockFiles/set_36/main_safe/rightBlue\GB_RB_1.xlsx
87	main_safe	True	0.0	117	0	3.0	3.0	0.0	1	left	1.0	1.0	1.0	0	-0.08	blockFiles/set_36/main_safe/rightBlue\GB_RB_1.xlsx
88	main_safe	True	0.0	117	0	3.0	3.0	1.0	1	right	2.0	0.0	1.0	1	0.08	blockFiles/set_36/main_safe/rightBlue\GB_RB_1.xlsx
89	main_safe	True	0.0	117	0	3.0	3.0	1.0	1	right	2.0	1.0	1.0	1	0.08	blockFiles/set_36/main_safe/rightBlue\GB_RB_1.xlsx
90	main_safe	True	0.0	117	0	3.0	3.0	0.0	1	left	1.0	1.0	1.0	0	-0.08	blockFiles/set_36/main_safe/rightBlue\GB_RB_1.xlsx
91	main_safe	True	0.0	117	0	3.0	3.0	0.0	1	left	1.0	1.0	1.0	0	-0.08	blockFiles/set_36/main_safe/rightBlue\GB_RB_1.xlsx
92	main_safe	True	0.0	117	0	3.0	3.0	1.0	1	right	2.0	1.0	1.0	1	0.08	blockFiles/set_36/main_safe/rightBlue\GB_RB_1.xlsx
93	main_safe	True	0.0	117	0	3.0	3.0	1.0	1	right	2.0	1.0	1.0	1	0.08	blockFiles/set_36/main_safe/rightBlue\GB_RB_1.xlsx
94	main_safe	True	0.0	117	0	3.0	3.0	1.0	1	right	2.0	1.0	1.0	1	0.08	blockFiles/set_36/main_safe/rightBlue\GB_RB_1.xlsx
95	main_safe	True	0.0	117	0	3.0	3.0	0.0	1	left	1.0	1.0	1.0	0	-0.08	blockFiles/set_36/main_safe/rightBlue\GB_RB_1.xlsx
96	main_safe	True	0.0	117	0	3.0	3.0	1.0	1	right	2.0	0.0	1.0	1	0.08	blockFiles/set_36/main_safe/rightBlue\GB_RB_1.xlsx
97	main_safe	True	0.0	117	0	3.0	3.0	1.0	1	right	2.0	0.0	1.0	1	0.08	blockFiles/set_36/main_safe/rightBlue\GB_RB_1.xlsx
98	main_safe	True	0.0	117	0	3.0	3.0	0.0	1	left	1.0	1.0	1.0	0	-0.08	blockFiles/set_36/main_safe/rightBlue\GB_RB_1.xlsx
99	main_safe	True	0.0	117	0	3.0	3.0	1.0	1	right	2.0	1.0	1.0	1	0.08	blockFiles/set_36/main_safe/rightBlue\GB_RB_1.xlsx
100	main_safe	True	0.0	117	0	3.0	3.0	0.0	1	left	1.0	1.0	1.0	0	-0.08	blockFiles/set_36/main_safe/rightBlue\GB_RB_1.xlsx
101	main_safe	True	0.0	117	0	3.0	3.0	1.0	1	right	2.0	1.0	1.0	1	0.08	blockFiles/set_36/main_safe/rightBlue\GB_RB_1.xlsx
102	main_safe	True	0.0	117	0	4.0	4.0	1.0	1	right	2.0	0.0	0.0	1	0.08	blockFiles/set_36/main_safe/leftBlue\GB_LB_3.xlsx
103	main_safe	True	0.0	117	0	4.0	4.0	0.0	1	left	1.0	0.0	0.0	0	-0.08	blockFiles/set_36/main_safe/leftBlue\GB_LB_3.xlsx
104	main_safe	True	0.0	117	0	4.0	4.0	1.0	1	right	1.0	1.0	1.0	1	0.08	blockFiles/set_36/main_safe/leftBlue\GB_LB_3.xlsx
105	main_safe	True	0.0	117	0	4.0	4.0	1.0	1	right	1.0	1.0	1.0	1	0.08	blockFiles/set_36/main_safe/leftBlue\GB_LB_3.xlsx
106	main_safe	True	0.0	117	0	4.0	4.0	0.0	1	left	2.0	1.0	1.0	0	-0.08	blockFiles/set_36/main_safe/leftBlue\GB_LB_3.xlsx
107	main_safe	True	0.0	117	0	4.0	4.0	1.0	1	right	1.0	0.0	1.0	1	0.08	blockFiles/set_36/main_safe/leftBlue\GB_LB_3.xlsx
108	main_safe	True	0.0	117	0	4.0	4.0	0.0	1	left	2.0	1.0	1.0	0	-0.08	blockFiles/set_36/main_safe/leftBlue\GB_LB_3.xlsx
109	main_safe	True	0.0	117	0	4.0	4.0	1.0	1	right	1.0	1.0	1.0	1	0.08	blockFiles/set_36/main_safe/leftBlue\GB_LB_3.xlsx
110	main_safe	True	0.0	117	0	4.0	4.0	0.0	1	left	2.0	1.0	1.0	0	-0.08	blockFiles/set_36/main_safe/leftBlue\GB_LB_3.xlsx
111	main_safe	True	0.0	117	0	4.0	4.0	0.0	1	left	2.0	0.0	1.0	0	-0.08	blockFiles/set_36/main_safe/leftBlue\GB_LB_3.xlsx
112	main_safe	True	0.0	117	0	4.0	4.0	0.0	1	left	2.0	1.0	1.0	0	-0.08	blockFiles/set_36/main_safe/leftBlue\GB_LB_3.xlsx
113	main_safe	True	0.0	117	0	4.0	4.0	0.0	1	left	2.0	1.0	1.0	0	-0.08	blockFiles/set_36/main_safe/leftBlue\GB_LB_3.xlsx
114	main_safe	True	0.0	117	0	4.0	4.0	1.0	1	right	1.0	1.0	1.0	1	0.08	blockFiles/set_36/main_safe/leftBlue\GB_LB_3.xlsx
115	main_safe	True	0.0	117	0	4.0	4.0	0.0	1	left	2.0	1.0	1.0	0	-0.08	blockFiles/set_36/main_safe/leftBlue\GB_LB_3.xlsx
116	main_safe	True	0.0	117	0	4.0	4.0	1.0	1	right	1.0	1.0	1.0	1	0.08	blockFiles/set_36/main_safe/leftBlue\GB_LB_3.xlsx
117	main_safe	True	0.0	117	0	4.0	4.0	0.0	1	left	2.0	1.0	1.0	0	-0.08	blockFiles/set_36/main_safe/leftBlue\GB_LB_3.xlsx
118	main_safe	True	0.0	117	0	4.0	4.0	0.0	1	left	2.0	1.0	1.0	0	-0.08	blockFiles/set_36/main_safe/leftBlue\GB_LB_3.xlsx
119	main_safe	True	0.0	117	0	4.0	4.0	1.0	1	right	1.0	1.0	1.0	1	0.08	blockFiles/set_36/main_safe/leftBlue\GB_LB_3.xlsx
120	main_safe	True	0.0	117	0	4.0	4.0	0.0	1	left	2.0	1.0	1.0	0	-0.08	blockFiles/set_36/main_safe/leftBlue\GB_LB_3.xlsx
121	main_safe	True	0.0	117	0	4.0	4.0	0.0	1	left	2.0	0.0	1.0	0	-0.08	blockFiles/set_36/main_safe/leftBlue\GB_LB_3.xlsx
122	main_safe	True	0.0	117	0	4.0	4.0	1.0	1	right	1.0	0.0	1.0	1	0.08	blockFiles/set_36/main_safe/leftBlue\GB_LB_3.xlsx
123	main_safe	True	0.0	117	0	4.0	4.0	0.0	1	left	2.0	1.0	1.0	0	-0.08	blockFiles/set_36/main_safe/leftBlue\GB_LB_3.xlsx
124	main_safe	True	0.0	117	0	4.0	4.0	1.0	1	right	1.0	1.0	1.0	1	0.08	blockFiles/set_36/main_safe/leftBlue\GB_LB_3.xlsx
125	main_safe	True	0.0	117	0	4.0	4.0	1.0	1	right	1.0	1.0	1.0	1	0.08	blockFiles/set_36/main_safe/leftBlue\GB_LB_3.xlsx
126	main_safe	True	0.0	117	0	4.0	4.0	1.0	1	right	1.0	0.0	1.0	1	0.08	blockFiles/set_36/main_safe/leftBlue\GB_LB_3.xlsx
127	main_safe	True	0.0	117	0	5.0	5.0	1.0	1	right	2.0	0.0	0.0	1	0.08	blockFiles/set_36/main_safe/leftBlue\GB_LB_2.xlsx
128	main_safe	True	0.0	117	0	5.0	5.0	1.0	1	right	1.0	1.0	1.0	1	0.08	blockFiles/set_36/main_safe/leftBlue\GB_LB_2.xlsx
129	main_safe	True	0.0	117	0	5.0	5.0	0.0	1	left	2.0	1.0	1.0	0	-0.08	blockFiles/set_36/main_safe/leftBlue\GB_LB_2.xlsx
130	main_safe	True	0.0	117	0	5.0	5.0	1.0	1	right	1.0	1.0	1.0	1	0.08	blockFiles/set_36/main_safe/leftBlue\GB_LB_2.xlsx
131	main_safe	True	0.0	117	0	5.0	5.0	0.0	1	left	2.0	1.0	1.0	0	-0.08	blockFiles/set_36/main_safe/leftBlue\GB_LB_2.xlsx
132	main_safe	True	0.0	117	0	5.0	5.0	1.0	1	right	1.0	1.0	1.0	1	0.08	blockFiles/set_36/main_safe/leftBlue\GB_LB_2.xlsx
133	main_safe	True	0.0	117	0	5.0	5.0	0.0	1	left	2.0	1.0	1.0	0	-0.08	blockFiles/set_36/main_safe/leftBlue\GB_LB_2.xlsx
134	main_safe	True	0.0	117	0	5.0	5.0	1.0	1	right	1.0	1.0	1.0	1	0.08	blockFiles/set_36/main_safe/leftBlue\GB_LB_2.xlsx
135	main_safe	True	0.0	117	0	5.0	5.0	0.0	1	left	1.0	0.0	0.0	0	-0.08	blockFiles/set_36/main_safe/leftBlue\GB_LB_2.xlsx
136	main_safe	True	0.0	117	0	5.0	5.0	1.0	1	right	1.0	1.0	1.0	1	0.08	blockFiles/set_36/main_safe/leftBlue\GB_LB_2.xlsx
137	main_safe	True	0.0	117	0	5.0	5.0	0.0	1	left	2.0	0.0	1.0	0	-0.08	blockFiles/set_36/main_safe/leftBlue\GB_LB_2.xlsx
138	main_safe	True	0.0	117	0	5.0	5.0	0.0	1	left	2.0	1.0	1.0	0	-0.08	blockFiles/set_36/main_safe/leftBlue\GB_LB_2.xlsx
139	main_safe	True	0.0	117	0	5.0	5.0	0.0	1	left	2.0	1.0	1.0	0	-0.08	blockFiles/set_36/main_safe/leftBlue\GB_LB_2.xlsx
140	main_safe	True	0.0	117	0	5.0	5.0	0.0	1	left	2.0	0.0	1.0	0	-0.08	blockFiles/set_36/main_safe/leftBlue\GB_LB_2.xlsx
141	main_safe	True	0.0	117	0	5.0	5.0	1.0	1	right	1.0	1.0	1.0	1	0.08	blockFiles/set_36/main_safe/leftBlue\GB_LB_2.xlsx
142	main_safe	True	0.0	117	0	5.0	5.0	0.0	1	left	2.0	0.0	1.0	0	-0.08	blockFiles/set_36/main_safe/leftBlue\GB_LB_2.xlsx
143	main_safe	True	0.0	117	0	5.0	5.0	0.0	0	left	1.0	1.0	1.0	1	0.08	blockFiles/set_36/main_safe/leftBlue\GB_LB_2.xlsx
144	main_safe	True	0.0	117	0	5.0	5.0	0.0	1	left	2.0	1.0	1.0	0	-0.08	blockFiles/set_36/main_safe/leftBlue\GB_LB_2.xlsx
145	main_safe	True	0.0	117	0	5.0	5.0	0.0	1	left	2.0	1.0	1.0	0	-0.08	blockFiles/set_36/main_safe/leftBlue\GB_LB_2.xlsx
146	main_safe	True	1.0	117	0	5.0	5.0	n/a	0	None	n/a	0.0	n/a	0	-0.08	blockFiles/set_36/main_safe/leftBlue\GB_LB_2.xlsx
147	main_safe	True	0.0	117	0	5.0	5.0	1.0	1	right	1.0	1.0	1.0	1	0.08	blockFiles/set_36/main_safe/leftBlue\GB_LB_2.xlsx
148	main_safe	True	0.0	117	0	5.0	5.0	0.0	1	left	2.0	0.0	1.0	0	-0.08	blockFiles/set_36/main_safe/leftBlue\GB_LB_2.xlsx
149	main_safe	True	0.0	117	0	5.0	5.0	1.0	1	right	1.0	0.0	1.0	1	0.08	blockFiles/set_36/main_safe/leftBlue\GB_LB_2.xlsx
150	main_safe	True	0.0	117	0	5.0	5.0	1.0	1	right	1.0	1.0	1.0	1	0.08	blockFiles/set_36/main_safe/leftBlue\GB_LB_2.xlsx
151	main_safe	True	0.0	117	0	5.0	5.0	1.0	1	right	2.0	0.0	0.0	1	0.08	blockFiles/set_36/main_safe/leftBlue\GB_LB_2.xlsx
152	main_safe	True	0.0	117	0	5.0	5.0	0.0	1	left	2.0	1.0	1.0	0	-0.08	blockFiles/set_36/main_safe/leftBlue\GB_LB_2.xlsx
153	patches	True	n/a	117	0	n/a	n/a	n/a	0	None	n/a	n/a	n/a	1	0.009036734085530001	blockFiles/set_36/main_PD/GB_runPatches1.xlsx
154	patches	True	n/a	117	0	n/a	n/a	1.0	1	right	n/a	n/a	n/a	1	0.0540329226479	blockFiles/set_36/main_PD/GB_runPatches1.xlsx
155	patches	True	n/a	117	0	n/a	n/a	0.0	1	left	n/a	n/a	n/a	0	-0.0469162212498	blockFiles/set_36/main_PD/GB_runPatches1.xlsx
156	patches	True	n/a	117	0	n/a	n/a	1.0	1	right	n/a	n/a	n/a	1	0.0066395042650399996	blockFiles/set_36/main_PD/GB_runPatches1.xlsx
157	patches	True	n/a	117	0	n/a	n/a	0.0	1	left	n/a	n/a	n/a	0	-0.044377174843100005	blockFiles/set_36/main_PD/GB_runPatches1.xlsx
158	patches	True	n/a	117	0	n/a	n/a	1.0	1	right	n/a	n/a	n/a	1	0.0449486439675	blockFiles/set_36/main_PD/GB_runPatches1.xlsx
159	patches	True	n/a	117	0	n/a	n/a	0.0	0	left	n/a	n/a	n/a	1	0.0108138842694	blockFiles/set_36/main_PD/GB_runPatches1.xlsx
160	patches	True	n/a	117	0	n/a	n/a	0.0	1	left	n/a	n/a	n/a	0	-0.049781998135099995	blockFiles/set_36/main_PD/GB_runPatches1.xlsx
161	patches	True	n/a	117	0	n/a	n/a	1.0	1	right	n/a	n/a	n/a	1	0.0699960128032	blockFiles/set_36/main_PD/GB_runPatches1.xlsx
162	patches	True	n/a	117	0	n/a	n/a	0.0	0	left	n/a	n/a	n/a	1	0.018926280234	blockFiles/set_36/main_PD/GB_runPatches1.xlsx
163	patches	True	n/a	117	0	n/a	n/a	1.0	0	right	n/a	n/a	n/a	0	-0.078013430573	blockFiles/set_36/main_PD/GB_runPatches1.xlsx
164	patches	True	n/a	117	0	n/a	n/a	0.0	1	left	n/a	n/a	n/a	0	-0.0298783254437	blockFiles/set_36/main_PD/GB_runPatches1.xlsx
165	patches	True	n/a	117	0	n/a	n/a	0.0	0	left	n/a	n/a	n/a	1	0.00500245437026	blockFiles/set_36/main_PD/GB_runPatches1.xlsx
166	patches	True	n/a	117	0	n/a	n/a	0.0	1	left	n/a	n/a	n/a	0	-0.05230393534530001	blockFiles/set_36/main_PD/GB_runPatches1.xlsx
167	patches	True	n/a	117	0	n/a	n/a	0.0	1	left	n/a	n/a	n/a	0	-0.0284653200395	blockFiles/set_36/main_PD/GB_runPatches1.xlsx
168	patches	True	n/a	117	0	n/a	n/a	0.0	0	left	n/a	n/a	n/a	1	0.046587456967699996	blockFiles/set_36/main_PD/GB_runPatches1.xlsx
169	patches	True	n/a	117	0	n/a	n/a	0.0	0	left	n/a	n/a	n/a	1	0.0036323822103399997	blockFiles/set_36/main_PD/GB_runPatches1.xlsx
170	patches	True	n/a	117	0	n/a	n/a	1.0	1	right	n/a	n/a	n/a	1	0.054632542729400005	blockFiles/set_36/main_PD/GB_runPatches1.xlsx
171	patches	True	n/a	117	0	n/a	n/a	0.0	1	left	n/a	n/a	n/a	0	-0.0610022674315	blockFiles/set_36/main_PD/GB_runPatches1.xlsx
172	patches	True	n/a	117	0	n/a	n/a	1.0	1	right	n/a	n/a	n/a	1	0.014442116022099999	blockFiles/set_36/main_PD/GB_runPatches1.xlsx
173	patches	True	n/a	117	0	n/a	n/a	0.0	1	left	n/a	n/a	n/a	0	-0.069782240279	blockFiles/set_36/main_PD/GB_runPatches1.xlsx
174	patches	True	n/a	117	0	n/a	n/a	0.0	1	left	n/a	n/a	n/a	0	-0.038237595260099996	blockFiles/set_36/main_PD/GB_runPatches1.xlsx
175	patches	True	n/a	117	0	n/a	n/a	0.0	1	left	n/a	n/a	n/a	0	-0.0499000354856	blockFiles/set_36/main_PD/GB_runPatches1.xlsx
176	patches	True	n/a	117	0	n/a	n/a	0.0	1	left	n/a	n/a	n/a	0	-0.020709213689	blockFiles/set_36/main_PD/GB_runPatches1.xlsx
177	patches	True	n/a	117	0	n/a	n/a	0.0	1	left	n/a	n/a	n/a	0	-0.0749528004788	blockFiles/set_36/main_PD/GB_runPatches1.xlsx
178	patches	True	n/a	117	0	n/a	n/a	1.0	1	right	n/a	n/a	n/a	1	0.055392813831599996	blockFiles/set_36/main_PD/GB_runPatches1.xlsx
179	patches	True	n/a	117	0	n/a	n/a	0.0	0	left	n/a	n/a	n/a	1	0.027531823366900004	blockFiles/set_36/main_PD/GB_runPatches1.xlsx
180	patches	True	n/a	117	0	n/a	n/a	1.0	0	right	n/a	n/a	n/a	0	-0.031728165186900005	blockFiles/set_36/main_PD/GB_runPatches1.xlsx
181	patches	True	n/a	117	0	n/a	n/a	1.0	1	right	n/a	n/a	n/a	1	0.0476944722608	blockFiles/set_36/main_PD/GB_runPatches1.xlsx
182	patches	True	n/a	117	0	n/a	n/a	1.0	0	right	n/a	n/a	n/a	0	-0.032123427428299996	blockFiles/set_36/main_PD/GB_runPatches1.xlsx
183	patches	True	n/a	117	0	n/a	n/a	1.0	1	right	n/a	n/a	n/a	1	0.029142548013499997	blockFiles/set_36/main_PD/GB_runPatches1.xlsx
184	patches	True	n/a	117	0	n/a	n/a	1.0	1	right	n/a	n/a	n/a	1	0.0223591342196	blockFiles/set_36/main_PD/GB_runPatches1.xlsx
185	patches	True	n/a	117	0	n/a	n/a	1.0	1	right	n/a	n/a	n/a	1	0.06507341427730001	blockFiles/set_36/main_PD/GB_runPatches1.xlsx
186	patches	True	n/a	117	0	n/a	n/a	1.0	1	right	n/a	n/a	n/a	1	0.0577971049584	blockFiles/set_36/main_PD/GB_runPatches1.xlsx
187	patches	True	n/a	117	0	n/a	n/a	0.0	1	left	n/a	n/a	n/a	0	-0.055857567731300004	blockFiles/set_36/main_PD/GB_runPatches1.xlsx
188	patches	True	n/a	117	0	n/a	n/a	1.0	0	right	n/a	n/a	n/a	0	-0.0714855509251	blockFiles/set_36/main_PD/GB_runPatches1.xlsx
189	patches	True	n/a	117	0	n/a	n/a	1.0	0	right	n/a	n/a	n/a	0	-0.006641536261890001	blockFiles/set_36/main_PD/GB_runPatches1.xlsx
190	patches	True	n/a	117	0	n/a	n/a	1.0	1	right	n/a	n/a	n/a	1	0.00781855525449	blockFiles/set_36/main_PD/GB_runPatches1.xlsx
191	patches	True	n/a	117	0	n/a	n/a	1.0	0	right	n/a	n/a	n/a	0	-0.0268440564163	blockFiles/set_36/main_PD/GB_runPatches1.xlsx
192	patches	True	n/a	117	0	n/a	n/a	1.0	1	right	n/a	n/a	n/a	1	0.05770005790519999	blockFiles/set_36/main_PD/GB_runPatches1.xlsx
193	patches	True	n/a	117	0	n/a	n/a	1.0	1	right	n/a	n/a	n/a	1	0.0720192442276	blockFiles/set_36/main_PD/GB_runPatches1.xlsx
194	patches	True	n/a	117	0	n/a	n/a	1.0	1	right	n/a	n/a	n/a	1	0.023804222233599997	blockFiles/set_36/main_PD/GB_runPatches1.xlsx
195	patches	True	n/a	117	0	n/a	n/a	0.0	1	left	n/a	n/a	n/a	0	-0.048600112348800004	blockFiles/set_36/main_PD/GB_runPatches1.xlsx
196	patches	True	n/a	117	0	n/a	n/a	0.0	1	left	n/a	n/a	n/a	0	-0.0012027585133900002	blockFiles/set_36/main_PD/GB_runPatches1.xlsx
197	patches	True	n/a	117	0	n/a	n/a	1.0	1	right	n/a	n/a	n/a	1	0.053761276919400004	blockFiles/set_36/main_PD/GB_runPatches1.xlsx
198	patches	True	n/a	117	0	n/a	n/a	0.0	1	left	n/a	n/a	n/a	0	-0.008666461277749999	blockFiles/set_36/main_PD/GB_runPatches1.xlsx
199	patches	True	n/a	117	0	n/a	n/a	1.0	1	right	n/a	n/a	n/a	1	0.0552797737159	blockFiles/set_36/main_PD/GB_runPatches1.xlsx
200	patches	True	n/a	117	0	n/a	n/a	0.0	1	left	n/a	n/a	n/a	0	-0.07482425540689999	blockFiles/set_36/main_PD/GB_runPatches1.xlsx
201	patches	True	n/a	117	0	n/a	n/a	1.0	1	right	n/a	n/a	n/a	1	0.0794043097459	blockFiles/set_36/main_PD/GB_runPatches1.xlsx
202	patches	True	n/a	117	0	n/a	n/a	0.0	1	left	n/a	n/a	n/a	0	-0.030938214566599998	blockFiles/set_36/main_PD/GB_runPatches1.xlsx
203	patches	True	n/a	117	0	n/a	n/a	1.0	1	right	n/a	n/a	n/a	1	0.0354337845184	blockFiles/set_36/main_PD/GB_runPatches1.xlsx
204	patches	True	n/a	117	0	n/a	n/a	1.0	1	right	n/a	n/a	n/a	1	0.0218463423476	blockFiles/set_36/main_PD/GB_runPatches1.xlsx
205	patches	True	n/a	117	0	n/a	n/a	1.0	1	right	n/a	n/a	n/a	1	0.0242611387372	blockFiles/set_36/main_PD/GB_runPatches1.xlsx
206	patches	True	n/a	117	0	n/a	n/a	0.0	1	left	n/a	n/a	n/a	0	-0.0163186347857	blockFiles/set_36/main_PD/GB_runPatches1.xlsx
207	patches	True	n/a	117	0	n/a	n/a	0.0	0	left	n/a	n/a	n/a	1	0.0303109792992	blockFiles/set_36/main_PD/GB_runPatches1.xlsx
208	patches	True	n/a	117	0	n/a	n/a	0.0	1	left	n/a	n/a	n/a	0	-0.0589951929823	blockFiles/set_36/main_PD/GB_runPatches1.xlsx
209	patches	True	n/a	117	0	n/a	n/a	0.0	1	left	n/a	n/a	n/a	0	-0.0370099444501	blockFiles/set_36/main_PD/GB_runPatches1.xlsx
210	patches	True	n/a	117	0	n/a	n/a	0.0	1	left	n/a	n/a	n/a	0	-0.0363636537082	blockFiles/set_36/main_PD/GB_runPatches1.xlsx
211	patches	True	n/a	117	0	n/a	n/a	1.0	1	right	n/a	n/a	n/a	1	0.026015828345	blockFiles/set_36/main_PD/GB_runPatches1.xlsx
212	patches	True	n/a	117	0	n/a	n/a	0.0	1	left	n/a	n/a	n/a	0	-0.07255107183010001	blockFiles/set_36/main_PD/GB_runPatches1.xlsx
213	patches	True	n/a	117	0	n/a	n/a	0.0	0	left	n/a	n/a	n/a	1	0.056119914930300004	blockFiles/set_36/main_PD/GB_runPatches1.xlsx
214	patches	True	n/a	117	0	n/a	n/a	0.0	1	left	n/a	n/a	n/a	0	-0.0147140463255	blockFiles/set_36/main_PD/GB_runPatches1.xlsx
215	patches	True	n/a	117	0	n/a	n/a	0.0	0	left	n/a	n/a	n/a	1	0.03361074185	blockFiles/set_36/main_PD/GB_runPatches1.xlsx
216	patches	True	n/a	117	0	n/a	n/a	0.0	1	left	n/a	n/a	n/a	0	-0.0271206333861	blockFiles/set_36/main_PD/GB_runPatches1.xlsx
217	patches	True	n/a	117	0	n/a	n/a	0.0	1	left	n/a	n/a	n/a	0	-0.0172125264071	blockFiles/set_36/main_PD/GB_runPatches1.xlsx
218	patches	True	n/a	117	0	n/a	n/a	1.0	0	right	n/a	n/a	n/a	0	-0.0427408188395	blockFiles/set_36/main_PD/GB_runPatches1.xlsx
219	patches	True	n/a	117	0	n/a	n/a	0.0	1	left	n/a	n/a	n/a	0	-0.0429847195931	blockFiles/set_36/main_PD/GB_runPatches1.xlsx
220	patches	True	n/a	117	0	n/a	n/a	1.0	0	right	n/a	n/a	n/a	0	-0.015267741102700001	blockFiles/set_36/main_PD/GB_runPatches1.xlsx
221	patches	True	n/a	117	0	n/a	n/a	1.0	0	right	n/a	n/a	n/a	0	-0.07009259467939999	blockFiles/set_36/main_PD/GB_runPatches1.xlsx
222	patches	True	n/a	117	0	n/a	n/a	0.0	1	left	n/a	n/a	n/a	0	-0.0023055567219899997	blockFiles/set_36/main_PD/GB_runPatches1.xlsx
223	patches	True	n/a	117	0	n/a	n/a	0.0	0	left	n/a	n/a	n/a	1	0.0480478660949	blockFiles/set_36/main_PD/GB_runPatches1.xlsx
224	patches	True	n/a	117	0	n/a	n/a	1.0	1	right	n/a	n/a	n/a	1	0.07244923667980001	blockFiles/set_36/main_PD/GB_runPatches1.xlsx
225	patches	True	n/a	117	0	n/a	n/a	1.0	0	right	n/a	n/a	n/a	0	-0.0352497722022	blockFiles/set_36/main_PD/GB_runPatches1.xlsx
226	patches	True	n/a	117	0	n/a	n/a	0.0	1	left	n/a	n/a	n/a	0	-0.028656209092599996	blockFiles/set_36/main_PD/GB_runPatches1.xlsx
227	patches	True	n/a	117	0	n/a	n/a	0.0	0	left	n/a	n/a	n/a	1	0.0355046656169	blockFiles/set_36/main_PD/GB_runPatches1.xlsx
228	patches	True	n/a	117	0	n/a	n/a	0.0	0	left	n/a	n/a	n/a	1	0.0221364327893	blockFiles/set_36/main_PD/GB_runPatches1.xlsx
229	patches	True	n/a	117	0	n/a	n/a	0.0	1	left	n/a	n/a	n/a	0	-0.0428704411909	blockFiles/set_36/main_PD/GB_runPatches1.xlsx
230	patches	True	n/a	117	0	n/a	n/a	0.0	1	left	n/a	n/a	n/a	0	-0.0191224105842	blockFiles/set_36/main_PD/GB_runPatches1.xlsx
231	patches	True	n/a	117	0	n/a	n/a	0.0	0	left	n/a	n/a	n/a	1	0.0787958472967	blockFiles/set_36/main_PD/GB_runPatches1.xlsx
232	patches	True	n/a	117	0	n/a	n/a	1.0	1	right	n/a	n/a	n/a	1	0.0436015760712	blockFiles/set_36/main_PD/GB_runPatches1.xlsx
233	patches	True	n/a	117	0	n/a	n/a	0.0	1	left	n/a	n/a	n/a	0	-0.059679852984800004	blockFiles/set_36/main_PD/GB_runPatches1.xlsx
234	patches	True	n/a	117	0	n/a	n/a	1.0	1	right	n/a	n/a	n/a	1	0.0748453212343	blockFiles/set_36/main_PD/GB_runPatches1.xlsx
235	patches	True	n/a	117	0	n/a	n/a	0.0	0	left	n/a	n/a	n/a	1	0.009307180475440002	blockFiles/set_36/main_PD/GB_runPatches1.xlsx
236	patches	True	n/a	117	0	n/a	n/a	0.0	0	left	n/a	n/a	n/a	1	0.012124894894700002	blockFiles/set_36/main_PD/GB_runPatches1.xlsx
237	patches	True	n/a	117	0	n/a	n/a	0.0	1	left	n/a	n/a	n/a	0	-0.0137086362019	blockFiles/set_36/main_PD/GB_runPatches1.xlsx
238	patches	True	n/a	117	0	n/a	n/a	0.0	0	left	n/a	n/a	n/a	1	0.06785783972590001	blockFiles/set_36/main_PD/GB_runPatches1.xlsx
239	patches	True	n/a	117	0	n/a	n/a	0.0	0	left	n/a	n/a	n/a	1	0.0592456223816	blockFiles/set_36/main_PD/GB_runPatches1.xlsx
240	patches	True	n/a	117	0	n/a	n/a	0.0	1	left	n/a	n/a	n/a	0	-0.0381392938644	blockFiles/set_36/main_PD/GB_runPatches1.xlsx
241	patches	True	n/a	117	0	n/a	n/a	1.0	1	right	n/a	n/a	n/a	1	0.07326241888110001	blockFiles/set_36/main_PD/GB_runPatches1.xlsx
242	patches	True	n/a	117	0	n/a	n/a	0.0	1	left	n/a	n/a	n/a	0	-0.0445189012215	blockFiles/set_36/main_PD/GB_runPatches1.xlsx
243	patches	True	n/a	117	0	n/a	n/a	0.0	1	left	n/a	n/a	n/a	0	-0.00348046034575	blockFiles/set_36/main_PD/GB_runPatches1.xlsx
244	patches	True	n/a	117	0	n/a	n/a	0.0	1	left	n/a	n/a	n/a	0	-0.0633586956188	blockFiles/set_36/main_PD/GB_runPatches1.xlsx
245	patches	True	n/a	117	0	n/a	n/a	0.0	0	left	n/a	n/a	n/a	1	0.0327978242561	blockFiles/set_36/main_PD/GB_runPatches1.xlsx
246	patches	True	n/a	117	0	n/a	n/a	1.0	1	right	n/a	n/a	n/a	1	0.0797025189735	blockFiles/set_36/main_PD/GB_runPatches1.xlsx
247	patches	True	n/a	117	0	n/a	n/a	0.0	1	left	n/a	n/a	n/a	0	-0.039523098282499995	blockFiles/set_36/main_PD/GB_runPatches1.xlsx
248	patches	True	n/a	117	0	n/a	n/a	1.0	0	right	n/a	n/a	n/a	0	-0.0231448088773	blockFiles/set_36/main_PD/GB_runPatches1.xlsx
249	patches	True	n/a	117	0	n/a	n/a	0.0	1	left	n/a	n/a	n/a	0	-0.0379782656953	blockFiles/set_36/main_PD/GB_runPatches1.xlsx
250	patches	True	n/a	117	0	n/a	n/a	0.0	0	left	n/a	n/a	n/a	1	0.035958726573699994	blockFiles/set_36/main_PD/GB_runPatches1.xlsx
251	patches	True	n/a	117	0	n/a	n/a	1.0	1	right	n/a	n/a	n/a	1	0.042265769951	blockFiles/set_36/main_PD/GB_runPatches1.xlsx
252	patches	True	n/a	117	0	n/a	n/a	0.0	0	left	n/a	n/a	n/a	1	0.0016008364222899999	blockFiles/set_36/main_PD/GB_runPatches1.xlsx
253	main_unc	True	0.0	117	0	0.0	0.0	1.0	1	right	1.0	1.0	1.0	1	0.056573661007	blockFiles/set_36/main_unc/leftBlue\GB_LB_2.xlsx
254	main_unc	True	0.0	117	0	0.0	0.0	0.0	1	left	2.0	1.0	1.0	0	-0.0322008501925	blockFiles/set_36/main_unc/leftBlue\GB_LB_2.xlsx
255	main_unc	True	0.0	117	0	0.0	0.0	1.0	1	right	1.0	1.0	1.0	1	0.0793925782293	blockFiles/set_36/main_unc/leftBlue\GB_LB_2.xlsx
256	main_unc	True	0.0	117	0	0.0	0.0	0.0	1	left	2.0	1.0	1.0	0	-0.0415186309628	blockFiles/set_36/main_unc/leftBlue\GB_LB_2.xlsx
257	main_unc	True	0.0	117	0	0.0	0.0	1.0	0	right	2.0	1.0	1.0	0	-0.00814967533574	blockFiles/set_36/main_unc/leftBlue\GB_LB_2.xlsx
258	main_unc	True	0.0	117	0	0.0	0.0	1.0	1	right	1.0	0.0	1.0	1	0.04668215854090001	blockFiles/set_36/main_unc/leftBlue\GB_LB_2.xlsx
259	main_unc	True	0.0	117	0	0.0	0.0	0.0	1	left	1.0	0.0	0.0	0	-0.07690113453189999	blockFiles/set_36/main_unc/leftBlue\GB_LB_2.xlsx
260	main_unc	True	0.0	117	0	0.0	0.0	0.0	0	left	1.0	0.0	1.0	1	0.012014095503799999	blockFiles/set_36/main_unc/leftBlue\GB_LB_2.xlsx
261	main_unc	True	0.0	117	0	0.0	0.0	0.0	0	left	2.0	0.0	0.0	1	0.032544454503799995	blockFiles/set_36/main_unc/leftBlue\GB_LB_2.xlsx
262	main_unc	True	0.0	117	0	0.0	0.0	0.0	1	left	2.0	1.0	1.0	0	-0.062893057242	blockFiles/set_36/main_unc/leftBlue\GB_LB_2.xlsx
263	main_unc	True	0.0	117	0	0.0	0.0	1.0	1	right	1.0	0.0	1.0	1	0.0482217627764	blockFiles/set_36/main_unc/leftBlue\GB_LB_2.xlsx
264	main_unc	True	0.0	117	0	0.0	0.0	0.0	1	left	1.0	1.0	0.0	0	-0.076774378065	blockFiles/set_36/main_unc/leftBlue\GB_LB_2.xlsx
265	main_unc	True	0.0	117	0	0.0	0.0	0.0	1	left	1.0	0.0	0.0	0	-0.0352872404829	blockFiles/set_36/main_unc/leftBlue\GB_LB_2.xlsx
266	main_unc	True	0.0	117	0	0.0	0.0	0.0	0	left	2.0	0.0	0.0	1	0.000369879994541	blockFiles/set_36/main_unc/leftBlue\GB_LB_2.xlsx
267	main_unc	True	0.0	117	0	0.0	0.0	1.0	1	right	1.0	1.0	1.0	1	0.038904598057300004	blockFiles/set_36/main_unc/leftBlue\GB_LB_2.xlsx
268	main_unc	True	0.0	117	0	0.0	0.0	0.0	0	left	2.0	0.0	0.0	1	0.030554413683700002	blockFiles/set_36/main_unc/leftBlue\GB_LB_2.xlsx
269	main_unc	True	0.0	117	0	0.0	0.0	1.0	1	right	1.0	0.0	1.0	1	0.0290080754273	blockFiles/set_36/main_unc/leftBlue\GB_LB_2.xlsx
270	main_unc	True	0.0	117	0	0.0	0.0	0.0	1	left	2.0	1.0	1.0	0	-0.0467163063399	blockFiles/set_36/main_unc/leftBlue\GB_LB_2.xlsx
271	main_unc	True	0.0	117	0	0.0	0.0	0.0	1	left	2.0	1.0	1.0	0	-0.0701174792275	blockFiles/set_36/main_unc/leftBlue\GB_LB_2.xlsx
272	main_unc	True	0.0	117	0	0.0	0.0	0.0	1	left	2.0	0.0	1.0	0	-0.0135383236408	blockFiles/set_36/main_unc/leftBlue\GB_LB_2.xlsx
273	main_unc	True	0.0	117	0	0.0	0.0	0.0	1	left	2.0	1.0	1.0	0	-0.0108731636219	blockFiles/set_36/main_unc/leftBlue\GB_LB_2.xlsx
274	main_unc	True	0.0	117	0	0.0	0.0	0.0	1	left	2.0	1.0	1.0	0	-0.026456809118400003	blockFiles/set_36/main_unc/leftBlue\GB_LB_2.xlsx
275	main_unc	True	0.0	117	0	0.0	0.0	0.0	0	left	2.0	0.0	0.0	1	0.0378658524901	blockFiles/set_36/main_unc/leftBlue\GB_LB_2.xlsx
276	main_unc	True	0.0	117	0	0.0	0.0	1.0	1	right	1.0	1.0	1.0	1	0.05761224431919999	blockFiles/set_36/main_unc/leftBlue\GB_LB_2.xlsx
277	main_unc	True	0.0	117	0	0.0	0.0	1.0	1	right	1.0	1.0	1.0	1	0.0641415449604	blockFiles/set_36/main_unc/leftBlue\GB_LB_2.xlsx
278	main_unc	True	0.0	117	0	1.0	1.0	1.0	1	right	1.0	1.0	1.0	1	0.025880379788599996	blockFiles/set_36/main_unc/leftBlue\GB_LB_6.xlsx
279	main_unc	True	0.0	117	0	1.0	1.0	0.0	1	left	2.0	0.0	1.0	0	-0.0567428027838	blockFiles/set_36/main_unc/leftBlue\GB_LB_6.xlsx
280	main_unc	True	0.0	117	0	1.0	1.0	1.0	1	right	1.0	0.0	1.0	1	0.0482653865404	blockFiles/set_36/main_unc/leftBlue\GB_LB_6.xlsx
281	main_unc	True	0.0	117	0	1.0	1.0	1.0	1	right	2.0	0.0	0.0	1	0.022329425644099996	blockFiles/set_36/main_unc/leftBlue\GB_LB_6.xlsx
282	main_unc	True	0.0	117	0	1.0	1.0	0.0	1	left	1.0	1.0	0.0	0	-0.029814186803999998	blockFiles/set_36/main_unc/leftBlue\GB_LB_6.xlsx
283	main_unc	True	0.0	117	0	1.0	1.0	0.0	0	left	1.0	1.0	1.0	1	0.0133567503467	blockFiles/set_36/main_unc/leftBlue\GB_LB_6.xlsx
284	main_unc	True	0.0	117	0	1.0	1.0	0.0	1	left	1.0	0.0	0.0	0	-0.0449030715227	blockFiles/set_36/main_unc/leftBlue\GB_LB_6.xlsx
285	main_unc	True	0.0	117	0	1.0	1.0	1.0	1	right	2.0	0.0	0.0	1	0.067069980111	blockFiles/set_36/main_unc/leftBlue\GB_LB_6.xlsx
286	main_unc	True	0.0	117	0	1.0	1.0	0.0	1	left	1.0	0.0	0.0	0	-0.0592292722501	blockFiles/set_36/main_unc/leftBlue\GB_LB_6.xlsx
287	main_unc	True	0.0	117	0	1.0	1.0	0.0	0	left	2.0	0.0	0.0	1	0.0318340347707	blockFiles/set_36/main_unc/leftBlue\GB_LB_6.xlsx
288	main_unc	True	0.0	117	0	1.0	1.0	0.0	1	left	2.0	1.0	1.0	0	-0.0019061299599699999	blockFiles/set_36/main_unc/leftBlue\GB_LB_6.xlsx
289	main_unc	True	0.0	117	0	1.0	1.0	0.0	1	left	2.0	1.0	1.0	0	-0.0609846370481	blockFiles/set_36/main_unc/leftBlue\GB_LB_6.xlsx
290	main_unc	True	0.0	117	0	1.0	1.0	1.0	1	right	1.0	1.0	1.0	1	0.0619232866168	blockFiles/set_36/main_unc/leftBlue\GB_LB_6.xlsx
291	main_unc	True	0.0	117	0	1.0	1.0	0.0	1	left	2.0	1.0	1.0	0	-0.042198006101	blockFiles/set_36/main_unc/leftBlue\GB_LB_6.xlsx
292	main_unc	True	0.0	117	0	1.0	1.0	1.0	1	right	1.0	1.0	1.0	1	0.011986264362899998	blockFiles/set_36/main_unc/leftBlue\GB_LB_6.xlsx
293	main_unc	True	0.0	117	0	1.0	1.0	0.0	0	left	2.0	0.0	0.0	1	0.0631983132288	blockFiles/set_36/main_unc/leftBlue\GB_LB_6.xlsx
294	main_unc	True	0.0	117	0	1.0	1.0	0.0	0	left	2.0	0.0	0.0	1	0.0013372940570100002	blockFiles/set_36/main_unc/leftBlue\GB_LB_6.xlsx
295	main_unc	True	0.0	117	0	1.0	1.0	1.0	1	right	1.0	1.0	1.0	1	0.0774159866571	blockFiles/set_36/main_unc/leftBlue\GB_LB_6.xlsx
296	main_unc	True	0.0	117	0	1.0	1.0	1.0	1	right	1.0	1.0	1.0	1	0.0328537373617	blockFiles/set_36/main_unc/leftBlue\GB_LB_6.xlsx
297	main_unc	True	0.0	117	0	1.0	1.0	1.0	0	right	1.0	0.0	0.0	0	-0.0316986172833	blockFiles/set_36/main_unc/leftBlue\GB_LB_6.xlsx
298	main_unc	True	0.0	117	0	1.0	1.0	0.0	1	left	2.0	1.0	1.0	0	-0.012484333515200001	blockFiles/set_36/main_unc/leftBlue\GB_LB_6.xlsx
299	main_unc	True	0.0	117	0	1.0	1.0	0.0	0	left	1.0	1.0	1.0	1	0.017207316085700003	blockFiles/set_36/main_unc/leftBlue\GB_LB_6.xlsx
300	main_unc	True	0.0	117	0	1.0	1.0	0.0	0	left	1.0	1.0	1.0	1	0.0782697871327	blockFiles/set_36/main_unc/leftBlue\GB_LB_6.xlsx
301	main_unc	True	0.0	117	0	1.0	1.0	0.0	1	left	2.0	0.0	1.0	0	-0.0715487491153	blockFiles/set_36/main_unc/leftBlue\GB_LB_6.xlsx
302	main_unc	True	0.0	117	0	1.0	1.0	0.0	1	left	1.0	0.0	0.0	0	-0.0346330660954	blockFiles/set_36/main_unc/leftBlue\GB_LB_6.xlsx
303	main_unc	True	0.0	117	0	2.0	2.0	0.0	1	left	2.0	0.0	0.0	0	-0.020242858212400003	blockFiles/set_36/main_unc/rightBlue\GB_RB_1.xlsx
304	main_unc	True	0.0	117	0	2.0	2.0	0.0	1	left	1.0	1.0	1.0	0	-0.0666221308336	blockFiles/set_36/main_unc/rightBlue\GB_RB_1.xlsx
305	main_unc	True	0.0	117	0	2.0	2.0	0.0	1	left	1.0	1.0	1.0	0	-0.0120901491493	blockFiles/set_36/main_unc/rightBlue\GB_RB_1.xlsx
306	main_unc	True	0.0	117	0	2.0	2.0	0.0	1	left	1.0	0.0	1.0	0	-0.056276725903199994	blockFiles/set_36/main_unc/rightBlue\GB_RB_1.xlsx
307	main_unc	True	0.0	117	0	2.0	2.0	0.0	1	left	2.0	0.0	0.0	0	-0.034899945613	blockFiles/set_36/main_unc/rightBlue\GB_RB_1.xlsx
308	main_unc	True	0.0	117	0	2.0	2.0	0.0	1	left	1.0	1.0	1.0	0	-0.0234740502201	blockFiles/set_36/main_unc/rightBlue\GB_RB_1.xlsx
309	main_unc	True	0.0	117	0	2.0	2.0	0.0	0	left	2.0	1.0	1.0	1	0.0304625439271	blockFiles/set_36/main_unc/rightBlue\GB_RB_1.xlsx
310	main_unc	True	0.0	117	0	2.0	2.0	1.0	1	right	2.0	1.0	1.0	1	0.055070399195	blockFiles/set_36/main_unc/rightBlue\GB_RB_1.xlsx
311	main_unc	True	0.0	117	0	2.0	2.0	0.0	1	left	1.0	1.0	1.0	0	-0.05230562152340001	blockFiles/set_36/main_unc/rightBlue\GB_RB_1.xlsx
312	main_unc	True	0.0	117	0	2.0	2.0	1.0	1	right	2.0	1.0	1.0	1	0.033539702855099995	blockFiles/set_36/main_unc/rightBlue\GB_RB_1.xlsx
313	main_unc	True	0.0	117	0	2.0	2.0	0.0	1	left	1.0	1.0	1.0	0	-0.0362362316437	blockFiles/set_36/main_unc/rightBlue\GB_RB_1.xlsx
314	main_unc	True	0.0	117	0	2.0	2.0	0.0	1	left	1.0	1.0	1.0	0	-0.0402576822229	blockFiles/set_36/main_unc/rightBlue\GB_RB_1.xlsx
315	main_unc	True	0.0	117	0	2.0	2.0	0.0	1	left	1.0	1.0	1.0	0	-0.0354673046432	blockFiles/set_36/main_unc/rightBlue\GB_RB_1.xlsx
316	main_unc	True	0.0	117	0	2.0	2.0	0.0	0	left	1.0	0.0	0.0	1	0.00650762470439	blockFiles/set_36/main_unc/rightBlue\GB_RB_1.xlsx
317	main_unc	True	0.0	117	0	2.0	2.0	1.0	1	right	2.0	0.0	1.0	1	0.0281041590124	blockFiles/set_36/main_unc/rightBlue\GB_RB_1.xlsx
318	main_unc	True	0.0	117	0	2.0	2.0	1.0	1	right	2.0	1.0	1.0	1	0.07892559224739999	blockFiles/set_36/main_unc/rightBlue\GB_RB_1.xlsx
319	main_unc	True	0.0	117	0	2.0	2.0	1.0	1	right	2.0	1.0	1.0	1	0.06762505611399999	blockFiles/set_36/main_unc/rightBlue\GB_RB_1.xlsx
320	main_unc	True	0.0	117	0	2.0	2.0	0.0	1	left	1.0	0.0	1.0	0	-0.00688548848033	blockFiles/set_36/main_unc/rightBlue\GB_RB_1.xlsx
321	main_unc	True	0.0	117	0	2.0	2.0	0.0	1	left	1.0	0.0	1.0	0	-0.025511578861599996	blockFiles/set_36/main_unc/rightBlue\GB_RB_1.xlsx
322	main_unc	True	0.0	117	0	2.0	2.0	1.0	1	right	2.0	1.0	1.0	1	0.062078960388900005	blockFiles/set_36/main_unc/rightBlue\GB_RB_1.xlsx
323	main_unc	True	0.0	117	0	2.0	2.0	0.0	0	left	1.0	0.0	0.0	1	0.00249140130356	blockFiles/set_36/main_unc/rightBlue\GB_RB_1.xlsx
324	main_unc	True	0.0	117	0	2.0	2.0	1.0	1	right	2.0	1.0	1.0	1	0.0547966954298	blockFiles/set_36/main_unc/rightBlue\GB_RB_1.xlsx
325	main_unc	True	0.0	117	0	2.0	2.0	1.0	1	right	2.0	1.0	1.0	1	0.0765045315586	blockFiles/set_36/main_unc/rightBlue\GB_RB_1.xlsx
326	main_unc	True	0.0	117	0	2.0	2.0	0.0	1	left	1.0	1.0	1.0	0	-0.041006100643400004	blockFiles/set_36/main_unc/rightBlue\GB_RB_1.xlsx
327	main_unc	True	0.0	117	0	2.0	2.0	0.0	1	left	1.0	1.0	1.0	0	-0.048793023545300004	blockFiles/set_36/main_unc/rightBlue\GB_RB_1.xlsx
328	main_unc	True	0.0	117	0	3.0	3.0	1.0	1	right	2.0	1.0	1.0	1	0.0219456542097	blockFiles/set_36/main_unc/rightBlue\GB_RB_5.xlsx
329	main_unc	True	0.0	117	0	3.0	3.0	0.0	1	left	1.0	1.0	1.0	0	-0.0643286669068	blockFiles/set_36/main_unc/rightBlue\GB_RB_5.xlsx
330	main_unc	True	0.0	117	0	3.0	3.0	1.0	1	right	2.0	1.0	1.0	1	0.0419003399834	blockFiles/set_36/main_unc/rightBlue\GB_RB_5.xlsx
331	main_unc	True	0.0	117	0	3.0	3.0	1.0	1	right	2.0	0.0	1.0	1	0.042872351426599994	blockFiles/set_36/main_unc/rightBlue\GB_RB_5.xlsx
332	main_unc	True	0.0	117	0	3.0	3.0	0.0	1	left	1.0	0.0	1.0	0	-0.0625356891192	blockFiles/set_36/main_unc/rightBlue\GB_RB_5.xlsx
333	main_unc	True	0.0	117	0	3.0	3.0	0.0	1	left	1.0	1.0	1.0	0	-0.054416425582	blockFiles/set_36/main_unc/rightBlue\GB_RB_5.xlsx
334	main_unc	True	0.0	117	0	3.0	3.0	1.0	1	right	2.0	0.0	1.0	1	0.0659715129621	blockFiles/set_36/main_unc/rightBlue\GB_RB_5.xlsx
335	main_unc	True	0.0	117	0	3.0	3.0	0.0	1	left	1.0	1.0	1.0	0	-0.0385566428304	blockFiles/set_36/main_unc/rightBlue\GB_RB_5.xlsx
336	main_unc	True	0.0	117	0	3.0	3.0	1.0	1	right	2.0	1.0	1.0	1	0.011462188866	blockFiles/set_36/main_unc/rightBlue\GB_RB_5.xlsx
337	main_unc	True	0.0	117	0	3.0	3.0	1.0	1	right	2.0	1.0	1.0	1	0.0376399134845	blockFiles/set_36/main_unc/rightBlue\GB_RB_5.xlsx
338	main_unc	True	0.0	117	0	3.0	3.0	0.0	1	left	1.0	1.0	1.0	0	-0.031196909938	blockFiles/set_36/main_unc/rightBlue\GB_RB_5.xlsx
339	main_unc	True	0.0	117	0	3.0	3.0	1.0	0	right	2.0	1.0	0.0	0	-0.031000899933299998	blockFiles/set_36/main_unc/rightBlue\GB_RB_5.xlsx
340	main_unc	True	0.0	117	0	3.0	3.0	0.0	1	left	1.0	1.0	1.0	0	-0.0272706642933	blockFiles/set_36/main_unc/rightBlue\GB_RB_5.xlsx
341	main_unc	True	1.0	117	0	3.0	3.0	1.0	1	right	n/a	0.0	n/a	1	0.0799665646441	blockFiles/set_36/main_unc/rightBlue\GB_RB_5.xlsx
342	main_unc	True	0.0	117	0	3.0	3.0	0.0	0	left	1.0	0.0	0.0	1	0.00893350515515	blockFiles/set_36/main_unc/rightBlue\GB_RB_5.xlsx
343	main_unc	True	0.0	117	0	3.0	3.0	1.0	1	right	2.0	1.0	1.0	1	0.0465783821605	blockFiles/set_36/main_unc/rightBlue\GB_RB_5.xlsx
344	main_unc	True	0.0	117	0	3.0	3.0	1.0	1	right	2.0	1.0	1.0	1	0.04289255931969999	blockFiles/set_36/main_unc/rightBlue\GB_RB_5.xlsx
345	main_unc	True	0.0	117	0	3.0	3.0	1.0	0	right	1.0	1.0	1.0	0	-0.023520386517	blockFiles/set_36/main_unc/rightBlue\GB_RB_5.xlsx
346	main_unc	True	0.0	117	0	3.0	3.0	0.0	1	left	1.0	0.0	1.0	0	-0.0599906477518	blockFiles/set_36/main_unc/rightBlue\GB_RB_5.xlsx
347	main_unc	True	0.0	117	0	3.0	3.0	0.0	0	left	2.0	1.0	1.0	1	0.0210549977608	blockFiles/set_36/main_unc/rightBlue\GB_RB_5.xlsx
348	main_unc	True	0.0	117	0	3.0	3.0	0.0	1	left	1.0	1.0	1.0	0	-0.00320821518078	blockFiles/set_36/main_unc/rightBlue\GB_RB_5.xlsx
349	main_unc	True	0.0	117	0	3.0	3.0	1.0	1	right	2.0	1.0	1.0	1	0.07627928588539999	blockFiles/set_36/main_unc/rightBlue\GB_RB_5.xlsx
350	main_unc	True	0.0	117	0	3.0	3.0	0.0	0	left	2.0	1.0	1.0	1	0.0304045780376	blockFiles/set_36/main_unc/rightBlue\GB_RB_5.xlsx
351	main_unc	True	0.0	117	0	3.0	3.0	0.0	1	left	1.0	0.0	1.0	0	-0.0548479929753	blockFiles/set_36/main_unc/rightBlue\GB_RB_5.xlsx
352	main_unc	True	0.0	117	0	3.0	3.0	0.0	1	left	2.0	0.0	0.0	0	-0.00394940167665	blockFiles/set_36/main_unc/rightBlue\GB_RB_5.xlsx
353	main_unc	True	0.0	117	0	3.0	3.0	0.0	0	left	2.0	1.0	1.0	1	0.0799665646441	blockFiles/set_36/main_unc/rightBlue\GB_RB_5.xlsx
354	main_unc	True	0.0	117	0	4.0	4.0	0.0	1	left	2.0	0.0	1.0	0	-0.0158483725972	blockFiles/set_36/main_unc/leftBlue\GB_LB_3.xlsx
355	main_unc	True	0.0	117	0	4.0	4.0	1.0	1	right	2.0	0.0	0.0	1	0.0655284225568	blockFiles/set_36/main_unc/leftBlue\GB_LB_3.xlsx
356	main_unc	True	0.0	117	0	4.0	4.0	0.0	1	left	2.0	0.0	1.0	0	-0.0038945587351900002	blockFiles/set_36/main_unc/leftBlue\GB_LB_3.xlsx
357	main_unc	True	0.0	117	0	4.0	4.0	0.0	1	left	1.0	0.0	0.0	0	-0.0420972418971	blockFiles/set_36/main_unc/leftBlue\GB_LB_3.xlsx
358	main_unc	True	0.0	117	0	4.0	4.0	0.0	1	left	1.0	0.0	0.0	0	-0.0455494636111	blockFiles/set_36/main_unc/leftBlue\GB_LB_3.xlsx
359	main_unc	True	0.0	117	0	4.0	4.0	1.0	1	right	2.0	0.0	0.0	1	0.021909442767500002	blockFiles/set_36/main_unc/leftBlue\GB_LB_3.xlsx
360	main_unc	True	0.0	117	0	4.0	4.0	0.0	1	left	2.0	1.0	1.0	0	-0.066367789153	blockFiles/set_36/main_unc/leftBlue\GB_LB_3.xlsx
361	main_unc	True	0.0	117	0	4.0	4.0	1.0	1	right	1.0	1.0	1.0	1	0.0213853195868	blockFiles/set_36/main_unc/leftBlue\GB_LB_3.xlsx
362	main_unc	True	0.0	117	0	4.0	4.0	0.0	1	left	2.0	1.0	1.0	0	-0.050131183601900005	blockFiles/set_36/main_unc/leftBlue\GB_LB_3.xlsx
363	main_unc	True	0.0	117	0	4.0	4.0	0.0	1	left	2.0	1.0	1.0	0	-0.013383379857999998	blockFiles/set_36/main_unc/leftBlue\GB_LB_3.xlsx
364	main_unc	True	0.0	117	0	4.0	4.0	0.0	0	left	2.0	0.0	0.0	1	0.052233418151699997	blockFiles/set_36/main_unc/leftBlue\GB_LB_3.xlsx
365	main_unc	True	0.0	117	0	4.0	4.0	0.0	1	left	2.0	1.0	1.0	0	-0.015956144258399998	blockFiles/set_36/main_unc/leftBlue\GB_LB_3.xlsx
366	main_unc	True	0.0	117	0	4.0	4.0	1.0	1	right	1.0	1.0	1.0	1	0.031948320455800004	blockFiles/set_36/main_unc/leftBlue\GB_LB_3.xlsx
367	main_unc	True	0.0	117	0	4.0	4.0	0.0	0	left	2.0	0.0	0.0	1	0.0032221980579200003	blockFiles/set_36/main_unc/leftBlue\GB_LB_3.xlsx
368	main_unc	True	0.0	117	0	4.0	4.0	1.0	1	right	1.0	0.0	1.0	1	0.07466302188110001	blockFiles/set_36/main_unc/leftBlue\GB_LB_3.xlsx
369	main_unc	True	0.0	117	0	4.0	4.0	0.0	0	left	1.0	1.0	1.0	1	0.0525792484358	blockFiles/set_36/main_unc/leftBlue\GB_LB_3.xlsx
370	main_unc	True	0.0	117	0	4.0	4.0	1.0	1	right	1.0	1.0	1.0	1	0.0496068831719	blockFiles/set_36/main_unc/leftBlue\GB_LB_3.xlsx
371	main_unc	True	0.0	117	0	4.0	4.0	0.0	0	left	2.0	0.0	0.0	1	0.00137987267226	blockFiles/set_36/main_unc/leftBlue\GB_LB_3.xlsx
372	main_unc	True	0.0	117	0	4.0	4.0	0.0	1	left	1.0	0.0	0.0	0	-0.0540217435546	blockFiles/set_36/main_unc/leftBlue\GB_LB_3.xlsx
373	main_unc	True	0.0	117	0	4.0	4.0	1.0	1	right	1.0	1.0	1.0	1	0.0133162793703	blockFiles/set_36/main_unc/leftBlue\GB_LB_3.xlsx
374	main_unc	True	0.0	117	0	4.0	4.0	0.0	0	left	2.0	0.0	0.0	1	0.0547906013764	blockFiles/set_36/main_unc/leftBlue\GB_LB_3.xlsx
375	main_unc	True	0.0	117	0	4.0	4.0	0.0	1	left	2.0	1.0	1.0	0	-0.07941403113310001	blockFiles/set_36/main_unc/leftBlue\GB_LB_3.xlsx
376	main_unc	True	0.0	117	0	4.0	4.0	0.0	0	left	2.0	1.0	0.0	1	0.00496763434261	blockFiles/set_36/main_unc/leftBlue\GB_LB_3.xlsx
377	main_unc	True	0.0	117	0	4.0	4.0	0.0	1	left	2.0	1.0	1.0	0	-0.0458617789485	blockFiles/set_36/main_unc/leftBlue\GB_LB_3.xlsx
378	main_unc	True	0.0	117	0	4.0	4.0	0.0	1	left	2.0	1.0	1.0	0	-0.0782322205789	blockFiles/set_36/main_unc/leftBlue\GB_LB_3.xlsx
379	main_unc	True	0.0	117	0	5.0	5.0	1.0	1	right	2.0	0.0	0.0	1	0.052829080913199995	blockFiles/set_36/main_unc/leftBlue\GB_LB_1.xlsx
380	main_unc	True	0.0	117	0	5.0	5.0	1.0	1	right	1.0	1.0	1.0	1	0.077967057731	blockFiles/set_36/main_unc/leftBlue\GB_LB_1.xlsx
381	main_unc	True	0.0	117	0	5.0	5.0	0.0	1	left	2.0	0.0	1.0	0	-0.0419193493016	blockFiles/set_36/main_unc/leftBlue\GB_LB_1.xlsx
382	main_unc	True	0.0	117	0	5.0	5.0	1.0	1	right	1.0	1.0	1.0	1	0.047240613047	blockFiles/set_36/main_unc/leftBlue\GB_LB_1.xlsx
383	main_unc	True	0.0	117	0	5.0	5.0	0.0	0	left	2.0	0.0	0.0	1	0.00758608268574	blockFiles/set_36/main_unc/leftBlue\GB_LB_1.xlsx
384	main_unc	True	0.0	117	0	5.0	5.0	0.0	0	left	1.0	1.0	1.0	1	0.0338096067496	blockFiles/set_36/main_unc/leftBlue\GB_LB_1.xlsx
385	main_unc	True	0.0	117	0	5.0	5.0	0.0	1	left	2.0	0.0	1.0	0	-0.0524102667347	blockFiles/set_36/main_unc/leftBlue\GB_LB_1.xlsx
386	main_unc	True	0.0	117	0	5.0	5.0	1.0	1	right	1.0	1.0	1.0	1	0.0625012311339	blockFiles/set_36/main_unc/leftBlue\GB_LB_1.xlsx
387	main_unc	True	0.0	117	0	5.0	5.0	0.0	0	left	2.0	0.0	0.0	1	7.552864029999999e-05	blockFiles/set_36/main_unc/leftBlue\GB_LB_1.xlsx
388	main_unc	True	0.0	117	0	5.0	5.0	0.0	1	left	2.0	0.0	1.0	0	-0.044332558661699994	blockFiles/set_36/main_unc/leftBlue\GB_LB_1.xlsx
389	main_unc	True	0.0	117	0	5.0	5.0	0.0	1	left	1.0	0.0	0.0	0	-0.0542827125639	blockFiles/set_36/main_unc/leftBlue\GB_LB_1.xlsx
390	main_unc	True	0.0	117	0	5.0	5.0	1.0	1	right	1.0	0.0	1.0	1	0.0067151633277500004	blockFiles/set_36/main_unc/leftBlue\GB_LB_1.xlsx
391	main_unc	True	0.0	117	0	5.0	5.0	1.0	1	right	1.0	1.0	1.0	1	0.0684491795488	blockFiles/set_36/main_unc/leftBlue\GB_LB_1.xlsx
392	main_unc	True	0.0	117	0	5.0	5.0	0.0	1	left	2.0	1.0	1.0	0	-0.032248386293599995	blockFiles/set_36/main_unc/leftBlue\GB_LB_1.xlsx
393	main_unc	True	0.0	117	0	5.0	5.0	1.0	1	right	1.0	1.0	1.0	1	0.06941199615600001	blockFiles/set_36/main_unc/leftBlue\GB_LB_1.xlsx
394	main_unc	True	0.0	117	0	5.0	5.0	0.0	0	left	2.0	0.0	0.0	1	0.0227065113373	blockFiles/set_36/main_unc/leftBlue\GB_LB_1.xlsx
395	main_unc	True	0.0	117	0	5.0	5.0	0.0	1	left	2.0	1.0	1.0	0	-0.005440599787979999	blockFiles/set_36/main_unc/leftBlue\GB_LB_1.xlsx
396	main_unc	True	0.0	117	0	5.0	5.0	1.0	1	right	1.0	1.0	1.0	1	0.06616862483319999	blockFiles/set_36/main_unc/leftBlue\GB_LB_1.xlsx
397	main_unc	True	0.0	117	0	5.0	5.0	1.0	1	right	1.0	1.0	1.0	1	0.035821236539599996	blockFiles/set_36/main_unc/leftBlue\GB_LB_1.xlsx
398	main_unc	True	0.0	117	0	5.0	5.0	0.0	1	left	2.0	1.0	1.0	0	-0.015403338857	blockFiles/set_36/main_unc/leftBlue\GB_LB_1.xlsx
399	main_unc	True	0.0	117	0	5.0	5.0	0.0	1	left	2.0	1.0	1.0	0	-0.055041247270999995	blockFiles/set_36/main_unc/leftBlue\GB_LB_1.xlsx
400	main_unc	True	0.0	117	0	5.0	5.0	0.0	1	left	2.0	0.0	1.0	0	-0.029960273764999996	blockFiles/set_36/main_unc/leftBlue\GB_LB_1.xlsx
401	main_unc	True	0.0	117	0	5.0	5.0	0.0	1	left	2.0	1.0	1.0	0	-0.037801252231	blockFiles/set_36/main_unc/leftBlue\GB_LB_1.xlsx
402	main_unc	True	0.0	117	0	5.0	5.0	0.0	1	left	2.0	1.0	1.0	0	-0.042529020886900006	blockFiles/set_36/main_unc/leftBlue\GB_LB_1.xlsx
403	main_unc	True	0.0	117	0	5.0	5.0	0.0	1	left	2.0	1.0	1.0	0	-0.0076780028827500004	blockFiles/set_36/main_unc/leftBlue\GB_LB_1.xlsx
404	main_unc	True	0.0	117	0	6.0	6.0	1.0	1	right	1.0	0.0	0.0	1	0.060741024147699996	blockFiles/set_36/main_unc/rightBlue\GB_RB_3.xlsx
405	main_unc	True	0.0	117	0	6.0	6.0	1.0	1	right	2.0	1.0	1.0	1	0.0479752988368	blockFiles/set_36/main_unc/rightBlue\GB_RB_3.xlsx
406	main_unc	True	0.0	117	0	6.0	6.0	0.0	1	left	1.0	1.0	1.0	0	-0.032469146233099995	blockFiles/set_36/main_unc/rightBlue\GB_RB_3.xlsx
407	main_unc	True	0.0	117	0	6.0	6.0	0.0	1	left	1.0	0.0	1.0	0	-0.0506631524488	blockFiles/set_36/main_unc/rightBlue\GB_RB_3.xlsx
408	main_unc	True	0.0	117	0	6.0	6.0	1.0	1	right	2.0	1.0	1.0	1	0.023479704111799997	blockFiles/set_36/main_unc/rightBlue\GB_RB_3.xlsx
409	main_unc	True	0.0	117	0	6.0	6.0	0.0	1	left	1.0	1.0	1.0	0	-0.0552328551561	blockFiles/set_36/main_unc/rightBlue\GB_RB_3.xlsx
410	main_unc	True	0.0	117	0	6.0	6.0	0.0	0	left	1.0	0.0	0.0	1	0.0178805103153	blockFiles/set_36/main_unc/rightBlue\GB_RB_3.xlsx
411	main_unc	True	0.0	117	0	6.0	6.0	1.0	0	right	2.0	0.0	0.0	0	-0.00788244957104	blockFiles/set_36/main_unc/rightBlue\GB_RB_3.xlsx
412	main_unc	True	0.0	117	0	6.0	6.0	0.0	1	left	1.0	0.0	1.0	0	-0.0218958466873	blockFiles/set_36/main_unc/rightBlue\GB_RB_3.xlsx
413	main_unc	True	0.0	117	0	6.0	6.0	1.0	1	right	2.0	1.0	1.0	1	0.0631039729528	blockFiles/set_36/main_unc/rightBlue\GB_RB_3.xlsx
414	main_unc	True	0.0	117	0	6.0	6.0	1.0	1	right	2.0	0.0	1.0	1	0.048992504347099994	blockFiles/set_36/main_unc/rightBlue\GB_RB_3.xlsx
415	main_unc	True	0.0	117	0	6.0	6.0	1.0	1	right	2.0	0.0	1.0	1	0.0444725645706	blockFiles/set_36/main_unc/rightBlue\GB_RB_3.xlsx
416	main_unc	True	0.0	117	0	6.0	6.0	1.0	1	right	2.0	1.0	1.0	1	0.04615373549980001	blockFiles/set_36/main_unc/rightBlue\GB_RB_3.xlsx
417	main_unc	True	0.0	117	0	6.0	6.0	0.0	1	left	1.0	1.0	1.0	0	-0.0597335062921	blockFiles/set_36/main_unc/rightBlue\GB_RB_3.xlsx
418	main_unc	True	0.0	117	0	6.0	6.0	0.0	0	left	1.0	1.0	0.0	1	0.037774637416	blockFiles/set_36/main_unc/rightBlue\GB_RB_3.xlsx
419	main_unc	True	0.0	117	0	6.0	6.0	0.0	1	left	1.0	1.0	1.0	0	-0.00305328035727	blockFiles/set_36/main_unc/rightBlue\GB_RB_3.xlsx
420	main_unc	True	0.0	117	0	6.0	6.0	1.0	1	right	2.0	1.0	1.0	1	0.0572408948094	blockFiles/set_36/main_unc/rightBlue\GB_RB_3.xlsx
421	main_unc	True	0.0	117	0	6.0	6.0	0.0	1	left	1.0	1.0	1.0	0	-0.0663012822159	blockFiles/set_36/main_unc/rightBlue\GB_RB_3.xlsx
422	main_unc	True	0.0	117	0	6.0	6.0	0.0	1	left	1.0	1.0	1.0	0	-0.06533691369	blockFiles/set_36/main_unc/rightBlue\GB_RB_3.xlsx
423	main_unc	True	0.0	117	0	6.0	6.0	1.0	1	right	2.0	1.0	1.0	1	0.0430756754614	blockFiles/set_36/main_unc/rightBlue\GB_RB_3.xlsx
424	main_unc	True	0.0	117	0	6.0	6.0	0.0	1	left	1.0	1.0	1.0	0	-0.00614713873714	blockFiles/set_36/main_unc/rightBlue\GB_RB_3.xlsx
425	main_unc	True	0.0	117	0	6.0	6.0	1.0	0	right	1.0	1.0	1.0	0	-0.011226277593499999	blockFiles/set_36/main_unc/rightBlue\GB_RB_3.xlsx
426	main_unc	True	0.0	117	0	6.0	6.0	0.0	0	left	2.0	1.0	1.0	1	0.061343864742700004	blockFiles/set_36/main_unc/rightBlue\GB_RB_3.xlsx
427	main_unc	True	0.0	117	0	6.0	6.0	0.0	1	left	1.0	1.0	1.0	0	-0.0522941922769	blockFiles/set_36/main_unc/rightBlue\GB_RB_3.xlsx
428	main_unc	True	0.0	117	0	6.0	6.0	1.0	1	right	2.0	1.0	1.0	1	0.0724979653023	blockFiles/set_36/main_unc/rightBlue\GB_RB_3.xlsx
429	main_unc	True	1.0	117	0	7.0	7.0	0.0	0	left	n/a	0.0	n/a	1	0.00234262673184	blockFiles/set_36/main_unc/rightBlue\GB_RB_6.xlsx
430	main_unc	True	0.0	117	0	7.0	7.0	0.0	1	left	2.0	0.0	0.0	0	-0.0755353214405	blockFiles/set_36/main_unc/rightBlue\GB_RB_6.xlsx
431	main_unc	True	0.0	117	0	7.0	7.0	0.0	1	left	1.0	1.0	1.0	0	-0.007862812168899998	blockFiles/set_36/main_unc/rightBlue\GB_RB_6.xlsx
432	main_unc	True	0.0	117	0	7.0	7.0	1.0	1	right	2.0	1.0	1.0	1	0.035181586071800004	blockFiles/set_36/main_unc/rightBlue\GB_RB_6.xlsx
433	main_unc	True	0.0	117	0	7.0	7.0	0.0	1	left	1.0	1.0	1.0	0	-0.0367358855344	blockFiles/set_36/main_unc/rightBlue\GB_RB_6.xlsx
434	main_unc	True	0.0	117	0	7.0	7.0	0.0	1	left	1.0	1.0	1.0	0	-0.0418883189745	blockFiles/set_36/main_unc/rightBlue\GB_RB_6.xlsx
435	main_unc	True	0.0	117	0	7.0	7.0	1.0	1	right	2.0	0.0	1.0	1	0.064870484639	blockFiles/set_36/main_unc/rightBlue\GB_RB_6.xlsx
436	main_unc	True	0.0	117	0	7.0	7.0	0.0	1	left	1.0	1.0	1.0	0	-0.00593576340005	blockFiles/set_36/main_unc/rightBlue\GB_RB_6.xlsx
437	main_unc	True	0.0	117	0	7.0	7.0	0.0	1	left	1.0	1.0	1.0	0	-0.0555250055343	blockFiles/set_36/main_unc/rightBlue\GB_RB_6.xlsx
438	main_unc	True	0.0	117	0	7.0	7.0	1.0	0	right	2.0	1.0	0.0	0	-0.006485654916609999	blockFiles/set_36/main_unc/rightBlue\GB_RB_6.xlsx
439	main_unc	True	0.0	117	0	7.0	7.0	0.0	1	left	1.0	0.0	1.0	0	-0.0267896003462	blockFiles/set_36/main_unc/rightBlue\GB_RB_6.xlsx
440	main_unc	True	0.0	117	0	7.0	7.0	1.0	1	right	2.0	1.0	1.0	1	0.0564148999192	blockFiles/set_36/main_unc/rightBlue\GB_RB_6.xlsx
441	main_unc	True	0.0	117	0	7.0	7.0	0.0	0	left	2.0	0.0	1.0	1	0.043619486186699995	blockFiles/set_36/main_unc/rightBlue\GB_RB_6.xlsx
442	main_unc	True	0.0	117	0	7.0	7.0	0.0	0	left	2.0	1.0	1.0	1	0.0426271507144	blockFiles/set_36/main_unc/rightBlue\GB_RB_6.xlsx
443	main_unc	True	0.0	117	0	7.0	7.0	1.0	1	right	2.0	1.0	1.0	1	0.03450458286330001	blockFiles/set_36/main_unc/rightBlue\GB_RB_6.xlsx
444	main_unc	True	0.0	117	0	7.0	7.0	0.0	1	left	1.0	0.0	1.0	0	-0.0750881845318	blockFiles/set_36/main_unc/rightBlue\GB_RB_6.xlsx
445	main_unc	True	0.0	117	0	7.0	7.0	0.0	0	left	1.0	0.0	0.0	1	0.005542064569890001	blockFiles/set_36/main_unc/rightBlue\GB_RB_6.xlsx
446	main_unc	True	0.0	117	0	7.0	7.0	1.0	1	right	2.0	1.0	1.0	1	0.0619972056709	blockFiles/set_36/main_unc/rightBlue\GB_RB_6.xlsx
447	main_unc	True	0.0	117	0	7.0	7.0	1.0	0	right	1.0	1.0	1.0	0	-0.012611677851499999	blockFiles/set_36/main_unc/rightBlue\GB_RB_6.xlsx
448	main_unc	True	0.0	117	0	7.0	7.0	0.0	1	left	1.0	1.0	1.0	0	-0.0524297718704	blockFiles/set_36/main_unc/rightBlue\GB_RB_6.xlsx
449	main_unc	True	0.0	117	0	7.0	7.0	0.0	0	left	2.0	1.0	1.0	1	0.009493205100299999	blockFiles/set_36/main_unc/rightBlue\GB_RB_6.xlsx
450	main_unc	True	0.0	117	0	7.0	7.0	1.0	1	right	2.0	1.0	1.0	1	0.050072529763	blockFiles/set_36/main_unc/rightBlue\GB_RB_6.xlsx
451	main_unc	True	0.0	117	0	7.0	7.0	1.0	1	right	2.0	1.0	1.0	1	0.0667990475148	blockFiles/set_36/main_unc/rightBlue\GB_RB_6.xlsx
452	main_unc	True	0.0	117	0	7.0	7.0	1.0	1	right	1.0	0.0	0.0	1	0.0248041948862	blockFiles/set_36/main_unc/rightBlue\GB_RB_6.xlsx
453	main_unc	True	0.0	117	0	7.0	7.0	0.0	1	left	1.0	1.0	1.0	0	-0.0545839024708	blockFiles/set_36/main_unc/rightBlue\GB_RB_6.xlsx
454	main_unc	True	0.0	117	0	7.0	7.0	0.0	0	left	1.0	0.0	0.0	1	0.00234262673184	blockFiles/set_36/main_unc/rightBlue\GB_RB_6.xlsx
455	main_unc	True	0.0	117	0	8.0	8.0	0.0	1	left	2.0	0.0	0.0	0	-0.0275396138802	blockFiles/set_36/main_unc/rightBlue\GB_RB_2.xlsx
456	main_unc	True	0.0	117	0	8.0	8.0	1.0	0	right	1.0	0.0	1.0	0	-0.010571183245600002	blockFiles/set_36/main_unc/rightBlue\GB_RB_2.xlsx
457	main_unc	True	0.0	117	0	8.0	8.0	0.0	0	left	1.0	0.0	0.0	1	0.041199194472300006	blockFiles/set_36/main_unc/rightBlue\GB_RB_2.xlsx
458	main_unc	True	0.0	117	0	8.0	8.0	0.0	1	left	1.0	1.0	1.0	0	-0.0554503851198	blockFiles/set_36/main_unc/rightBlue\GB_RB_2.xlsx
459	main_unc	True	0.0	117	0	8.0	8.0	0.0	1	left	1.0	1.0	1.0	0	-0.0769684151188	blockFiles/set_36/main_unc/rightBlue\GB_RB_2.xlsx
460	main_unc	True	0.0	117	0	8.0	8.0	1.0	1	right	2.0	1.0	1.0	1	0.0736880584434	blockFiles/set_36/main_unc/rightBlue\GB_RB_2.xlsx
461	main_unc	True	0.0	117	0	8.0	8.0	0.0	1	left	1.0	1.0	1.0	0	-0.0190076076984	blockFiles/set_36/main_unc/rightBlue\GB_RB_2.xlsx
462	main_unc	True	0.0	117	0	8.0	8.0	0.0	1	left	1.0	1.0	1.0	0	-0.0303651588038	blockFiles/set_36/main_unc/rightBlue\GB_RB_2.xlsx
463	main_unc	True	0.0	117	0	8.0	8.0	0.0	1	left	1.0	1.0	1.0	0	-0.050949882362	blockFiles/set_36/main_unc/rightBlue\GB_RB_2.xlsx
464	main_unc	True	0.0	117	0	8.0	8.0	0.0	0	left	1.0	0.0	0.0	1	0.0031565288454299995	blockFiles/set_36/main_unc/rightBlue\GB_RB_2.xlsx
465	main_unc	True	0.0	117	0	8.0	8.0	1.0	1	right	2.0	1.0	1.0	1	0.0187049603462	blockFiles/set_36/main_unc/rightBlue\GB_RB_2.xlsx
466	main_unc	True	1.0	117	0	8.0	8.0	0.0	1	left	n/a	0.0	n/a	0	-0.05662711353969999	blockFiles/set_36/main_unc/rightBlue\GB_RB_2.xlsx
467	main_unc	True	0.0	117	0	8.0	8.0	0.0	0	left	2.0	0.0	1.0	1	0.0633922438137	blockFiles/set_36/main_unc/rightBlue\GB_RB_2.xlsx
468	main_unc	True	0.0	117	0	8.0	8.0	0.0	1	left	1.0	1.0	1.0	0	-0.0267038239725	blockFiles/set_36/main_unc/rightBlue\GB_RB_2.xlsx
469	main_unc	True	0.0	117	0	8.0	8.0	1.0	1	right	2.0	1.0	1.0	1	0.0314636445604	blockFiles/set_36/main_unc/rightBlue\GB_RB_2.xlsx
470	main_unc	True	0.0	117	0	8.0	8.0	0.0	1	left	1.0	1.0	1.0	0	-0.055236892327699995	blockFiles/set_36/main_unc/rightBlue\GB_RB_2.xlsx
471	main_unc	True	0.0	117	0	8.0	8.0	0.0	1	left	1.0	1.0	1.0	0	-0.0433270138875	blockFiles/set_36/main_unc/rightBlue\GB_RB_2.xlsx
472	main_unc	True	0.0	117	0	8.0	8.0	0.0	0	left	1.0	1.0	0.0	1	0.0013143972307400002	blockFiles/set_36/main_unc/rightBlue\GB_RB_2.xlsx
473	main_unc	True	0.0	117	0	8.0	8.0	1.0	1	right	2.0	1.0	1.0	1	0.0712486674078	blockFiles/set_36/main_unc/rightBlue\GB_RB_2.xlsx
474	main_unc	True	0.0	117	0	8.0	8.0	0.0	1	left	1.0	0.0	1.0	0	-0.0263270640373	blockFiles/set_36/main_unc/rightBlue\GB_RB_2.xlsx
475	main_unc	True	0.0	117	0	8.0	8.0	1.0	1	right	2.0	1.0	1.0	1	0.028488424141	blockFiles/set_36/main_unc/rightBlue\GB_RB_2.xlsx
476	main_unc	True	0.0	117	0	8.0	8.0	1.0	1	right	2.0	1.0	1.0	1	0.0509671486355	blockFiles/set_36/main_unc/rightBlue\GB_RB_2.xlsx
477	main_unc	True	0.0	117	0	8.0	8.0	0.0	0	left	1.0	0.0	0.0	1	0.0439307222515	blockFiles/set_36/main_unc/rightBlue\GB_RB_2.xlsx
478	main_unc	True	0.0	117	0	8.0	8.0	1.0	1	right	2.0	1.0	1.0	1	0.0632003586553	blockFiles/set_36/main_unc/rightBlue\GB_RB_2.xlsx
479	main_unc	True	0.0	117	0	8.0	8.0	0.0	1	left	1.0	1.0	1.0	0	-0.030852771289599998	blockFiles/set_36/main_unc/rightBlue\GB_RB_2.xlsx
480	main_unc	True	0.0	117	0	8.0	8.0	0.0	1	left	1.0	1.0	1.0	0	-0.05662711353969999	blockFiles/set_36/main_unc/rightBlue\GB_RB_2.xlsx
481	main_unc	True	0.0	117	0	9.0	9.0	1.0	1	right	1.0	0.0	0.0	1	0.07036859855060001	blockFiles/set_36/main_unc/rightBlue\GB_RB_4.xlsx
482	main_unc	True	0.0	117	0	9.0	9.0	0.0	0	left	2.0	1.0	1.0	1	0.00768575908616	blockFiles/set_36/main_unc/rightBlue\GB_RB_4.xlsx
483	main_unc	True	0.0	117	0	9.0	9.0	0.0	1	left	2.0	0.0	0.0	0	-0.0596930972487	blockFiles/set_36/main_unc/rightBlue\GB_RB_4.xlsx
484	main_unc	True	0.0	117	0	9.0	9.0	0.0	0	left	1.0	0.0	0.0	1	0.00735307866707	blockFiles/set_36/main_unc/rightBlue\GB_RB_4.xlsx
485	main_unc	True	0.0	117	0	9.0	9.0	1.0	1	right	1.0	0.0	0.0	1	0.0331603808329	blockFiles/set_36/main_unc/rightBlue\GB_RB_4.xlsx
486	main_unc	True	0.0	117	0	9.0	9.0	0.0	0	left	1.0	0.0	0.0	1	0.0551629506238	blockFiles/set_36/main_unc/rightBlue\GB_RB_4.xlsx
487	main_unc	True	0.0	117	0	9.0	9.0	1.0	1	right	2.0	1.0	1.0	1	0.0741860874742	blockFiles/set_36/main_unc/rightBlue\GB_RB_4.xlsx
488	main_unc	True	0.0	117	0	9.0	9.0	0.0	1	left	1.0	1.0	1.0	0	-0.040797135159400005	blockFiles/set_36/main_unc/rightBlue\GB_RB_4.xlsx
489	main_unc	True	0.0	117	0	9.0	9.0	1.0	1	right	2.0	1.0	1.0	1	0.054615510348199996	blockFiles/set_36/main_unc/rightBlue\GB_RB_4.xlsx
490	main_unc	True	0.0	117	0	9.0	9.0	0.0	1	left	1.0	1.0	1.0	0	-0.0382285612077	blockFiles/set_36/main_unc/rightBlue\GB_RB_4.xlsx
491	main_unc	True	0.0	117	0	9.0	9.0	1.0	1	right	2.0	0.0	1.0	1	0.018326121736299997	blockFiles/set_36/main_unc/rightBlue\GB_RB_4.xlsx
492	main_unc	True	0.0	117	0	9.0	9.0	1.0	1	right	2.0	1.0	1.0	1	0.0474772476777	blockFiles/set_36/main_unc/rightBlue\GB_RB_4.xlsx
493	main_unc	True	0.0	117	0	9.0	9.0	0.0	1	left	1.0	1.0	1.0	0	-0.0431502927281	blockFiles/set_36/main_unc/rightBlue\GB_RB_4.xlsx
494	main_unc	True	0.0	117	0	9.0	9.0	0.0	1	left	1.0	1.0	1.0	0	-0.0728396301903	blockFiles/set_36/main_unc/rightBlue\GB_RB_4.xlsx
495	main_unc	True	0.0	117	0	9.0	9.0	0.0	0	left	1.0	0.0	0.0	1	0.016908182166500002	blockFiles/set_36/main_unc/rightBlue\GB_RB_4.xlsx
496	main_unc	True	0.0	117	0	9.0	9.0	0.0	1	left	1.0	1.0	1.0	0	-0.0520742954127	blockFiles/set_36/main_unc/rightBlue\GB_RB_4.xlsx
497	main_unc	True	0.0	117	0	9.0	9.0	0.0	1	left	1.0	1.0	1.0	0	-0.0586398398504	blockFiles/set_36/main_unc/rightBlue\GB_RB_4.xlsx
498	main_unc	True	0.0	117	0	9.0	9.0	1.0	1	right	2.0	0.0	1.0	1	0.0408371168934	blockFiles/set_36/main_unc/rightBlue\GB_RB_4.xlsx
499	main_unc	True	0.0	117	0	9.0	9.0	0.0	1	left	1.0	1.0	1.0	0	-0.021261785309799996	blockFiles/set_36/main_unc/rightBlue\GB_RB_4.xlsx
500	main_unc	True	0.0	117	0	9.0	9.0	0.0	0	left	2.0	1.0	1.0	1	0.0719937602431	blockFiles/set_36/main_unc/rightBlue\GB_RB_4.xlsx
501	main_unc	True	0.0	117	0	9.0	9.0	0.0	0	left	2.0	0.0	1.0	1	0.016904362402899997	blockFiles/set_36/main_unc/rightBlue\GB_RB_4.xlsx
502	main_unc	True	0.0	117	0	9.0	9.0	1.0	1	right	2.0	1.0	1.0	1	0.0193049274758	blockFiles/set_36/main_unc/rightBlue\GB_RB_4.xlsx
503	main_unc	True	0.0	117	0	9.0	9.0	0.0	1	left	1.0	1.0	1.0	0	-0.017713582702	blockFiles/set_36/main_unc/rightBlue\GB_RB_4.xlsx
504	main_unc	True	0.0	117	0	9.0	9.0	0.0	1	left	1.0	1.0	1.0	0	-0.0770609726571	blockFiles/set_36/main_unc/rightBlue\GB_RB_4.xlsx
505	main_unc	True	1.0	117	0	9.0	9.0	n/a	0	None	n/a	0.0	n/a	0	-0.00408525353298	blockFiles/set_36/main_unc/rightBlue\GB_RB_4.xlsx
506	main_unc	True	0.0	117	0	9.0	9.0	0.0	1	left	1.0	1.0	1.0	0	-0.00408525353298	blockFiles/set_36/main_unc/rightBlue\GB_RB_4.xlsx
507	main_unc	True	0.0	117	0	10.0	10.0	0.0	1	left	1.0	0.0	0.0	0	-0.029460852351000003	blockFiles/set_36/main_unc/leftBlue\GB_LB_5.xlsx
508	main_unc	True	0.0	117	0	10.0	10.0	1.0	1	right	1.0	0.0	1.0	1	0.020880549997099998	blockFiles/set_36/main_unc/leftBlue\GB_LB_5.xlsx
509	main_unc	True	0.0	117	0	10.0	10.0	0.0	1	left	1.0	1.0	0.0	0	-0.0735312798992	blockFiles/set_36/main_unc/leftBlue\GB_LB_5.xlsx
510	main_unc	True	0.0	117	0	10.0	10.0	1.0	1	right	2.0	0.0	0.0	1	0.0331357473321	blockFiles/set_36/main_unc/leftBlue\GB_LB_5.xlsx
511	main_unc	True	0.0	117	0	10.0	10.0	0.0	1	left	1.0	0.0	0.0	0	-0.043877621423500004	blockFiles/set_36/main_unc/leftBlue\GB_LB_5.xlsx
512	main_unc	True	0.0	117	0	10.0	10.0	0.0	1	left	2.0	1.0	1.0	0	-0.0763933623955	blockFiles/set_36/main_unc/leftBlue\GB_LB_5.xlsx
513	main_unc	True	0.0	117	0	10.0	10.0	0.0	0	left	2.0	0.0	0.0	1	0.0112942384928	blockFiles/set_36/main_unc/leftBlue\GB_LB_5.xlsx
514	main_unc	True	0.0	117	0	10.0	10.0	1.0	1	right	1.0	1.0	1.0	1	0.054395437520000006	blockFiles/set_36/main_unc/leftBlue\GB_LB_5.xlsx
515	main_unc	True	0.0	117	0	10.0	10.0	1.0	1	right	1.0	1.0	1.0	1	0.018971042949700003	blockFiles/set_36/main_unc/leftBlue\GB_LB_5.xlsx
516	main_unc	True	0.0	117	0	10.0	10.0	0.0	1	left	2.0	0.0	1.0	0	-0.00924344552681	blockFiles/set_36/main_unc/leftBlue\GB_LB_5.xlsx
517	main_unc	True	0.0	117	0	10.0	10.0	1.0	0	right	2.0	1.0	1.0	0	-0.030161040537099996	blockFiles/set_36/main_unc/leftBlue\GB_LB_5.xlsx
518	main_unc	True	0.0	117	0	10.0	10.0	1.0	1	right	1.0	1.0	1.0	1	0.0580271150544	blockFiles/set_36/main_unc/leftBlue\GB_LB_5.xlsx
519	main_unc	True	0.0	117	0	10.0	10.0	0.0	1	left	2.0	1.0	1.0	0	-0.0756876153499	blockFiles/set_36/main_unc/leftBlue\GB_LB_5.xlsx
520	main_unc	True	0.0	117	0	10.0	10.0	0.0	0	left	2.0	1.0	0.0	1	0.0196205186658	blockFiles/set_36/main_unc/leftBlue\GB_LB_5.xlsx
521	main_unc	True	0.0	117	0	10.0	10.0	0.0	1	left	2.0	1.0	1.0	0	-0.0722233067453	blockFiles/set_36/main_unc/leftBlue\GB_LB_5.xlsx
522	main_unc	True	0.0	117	0	10.0	10.0	0.0	1	left	2.0	1.0	1.0	0	-0.007537669558079999	blockFiles/set_36/main_unc/leftBlue\GB_LB_5.xlsx
523	main_unc	True	0.0	117	0	10.0	10.0	0.0	1	left	2.0	0.0	1.0	0	-0.026414747834200003	blockFiles/set_36/main_unc/leftBlue\GB_LB_5.xlsx
524	main_unc	True	0.0	117	0	10.0	10.0	1.0	1	right	1.0	1.0	1.0	1	0.07086573086680001	blockFiles/set_36/main_unc/leftBlue\GB_LB_5.xlsx
525	main_unc	True	0.0	117	0	10.0	10.0	0.0	0	left	2.0	0.0	0.0	1	0.0523388091847	blockFiles/set_36/main_unc/leftBlue\GB_LB_5.xlsx
526	main_unc	True	0.0	117	0	10.0	10.0	1.0	1	right	1.0	0.0	1.0	1	0.0580995891616	blockFiles/set_36/main_unc/leftBlue\GB_LB_5.xlsx
527	main_unc	True	0.0	117	0	10.0	10.0	0.0	1	left	2.0	1.0	1.0	0	-0.0427484437265	blockFiles/set_36/main_unc/leftBlue\GB_LB_5.xlsx
528	main_unc	True	0.0	117	0	10.0	10.0	0.0	1	left	2.0	1.0	1.0	0	-0.0190762253106	blockFiles/set_36/main_unc/leftBlue\GB_LB_5.xlsx
529	main_unc	True	0.0	117	0	10.0	10.0	1.0	1	right	1.0	1.0	1.0	1	0.0270260675065	blockFiles/set_36/main_unc/leftBlue\GB_LB_5.xlsx
530	main_unc	True	0.0	117	0	10.0	10.0	1.0	1	right	1.0	1.0	1.0	1	0.0416990088671	blockFiles/set_36/main_unc/leftBlue\GB_LB_5.xlsx
531	main_unc	True	0.0	117	0	10.0	10.0	1.0	1	right	1.0	1.0	1.0	1	0.0740281384066	blockFiles/set_36/main_unc/leftBlue\GB_LB_5.xlsx
532	main_unc	True	0.0	117	0	11.0	11.0	1.0	1	right	1.0	1.0	1.0	1	0.00889759713784	blockFiles/set_36/main_unc/leftBlue\GB_LB_4.xlsx
533	main_unc	True	0.0	117	0	11.0	11.0	0.0	1	left	2.0	1.0	1.0	0	-0.0510579121485	blockFiles/set_36/main_unc/leftBlue\GB_LB_4.xlsx
534	main_unc	True	0.0	117	0	11.0	11.0	1.0	1	right	1.0	1.0	1.0	1	0.07763533089310001	blockFiles/set_36/main_unc/leftBlue\GB_LB_4.xlsx
535	main_unc	True	0.0	117	0	11.0	11.0	0.0	1	left	2.0	0.0	1.0	0	-0.046391576305	blockFiles/set_36/main_unc/leftBlue\GB_LB_4.xlsx
536	main_unc	True	0.0	117	0	11.0	11.0	0.0	1	left	2.0	1.0	1.0	0	-0.0643831458688	blockFiles/set_36/main_unc/leftBlue\GB_LB_4.xlsx
537	main_unc	True	0.0	117	0	11.0	11.0	0.0	1	left	2.0	1.0	1.0	0	-0.037716377042199996	blockFiles/set_36/main_unc/leftBlue\GB_LB_4.xlsx
538	main_unc	True	0.0	117	0	11.0	11.0	1.0	1	right	1.0	1.0	1.0	1	0.0413744438812	blockFiles/set_36/main_unc/leftBlue\GB_LB_4.xlsx
539	main_unc	True	0.0	117	0	11.0	11.0	1.0	0	right	1.0	1.0	0.0	0	-0.0153318477236	blockFiles/set_36/main_unc/leftBlue\GB_LB_4.xlsx
540	main_unc	True	0.0	117	0	11.0	11.0	1.0	1	right	1.0	1.0	1.0	1	0.0490803182498	blockFiles/set_36/main_unc/leftBlue\GB_LB_4.xlsx
541	main_unc	True	0.0	117	0	11.0	11.0	0.0	0	left	1.0	0.0	1.0	1	0.0648704355769	blockFiles/set_36/main_unc/leftBlue\GB_LB_4.xlsx
542	main_unc	True	0.0	117	0	11.0	11.0	1.0	1	right	1.0	1.0	1.0	1	0.0210639645904	blockFiles/set_36/main_unc/leftBlue\GB_LB_4.xlsx
543	main_unc	True	0.0	117	0	11.0	11.0	0.0	1	left	2.0	1.0	1.0	0	-0.0046749830991000005	blockFiles/set_36/main_unc/leftBlue\GB_LB_4.xlsx
544	main_unc	True	0.0	117	0	11.0	11.0	0.0	1	left	2.0	1.0	1.0	0	-0.0760253349878	blockFiles/set_36/main_unc/leftBlue\GB_LB_4.xlsx
545	main_unc	True	0.0	117	0	11.0	11.0	1.0	1	right	1.0	1.0	1.0	1	0.00237022463232	blockFiles/set_36/main_unc/leftBlue\GB_LB_4.xlsx
546	main_unc	True	0.0	117	0	11.0	11.0	1.0	1	right	1.0	1.0	1.0	1	0.023542665839200002	blockFiles/set_36/main_unc/leftBlue\GB_LB_4.xlsx
547	main_unc	True	0.0	117	0	11.0	11.0	1.0	1	right	1.0	1.0	1.0	1	0.056236955672500005	blockFiles/set_36/main_unc/leftBlue\GB_LB_4.xlsx
548	main_unc	True	0.0	117	0	11.0	11.0	1.0	1	right	1.0	1.0	1.0	1	0.0776093499549	blockFiles/set_36/main_unc/leftBlue\GB_LB_4.xlsx
549	main_unc	True	0.0	117	0	11.0	11.0	0.0	1	left	2.0	1.0	1.0	0	-0.031100252121700003	blockFiles/set_36/main_unc/leftBlue\GB_LB_4.xlsx
550	main_unc	True	0.0	117	0	11.0	11.0	0.0	1	left	2.0	1.0	1.0	0	-0.018129445985	blockFiles/set_36/main_unc/leftBlue\GB_LB_4.xlsx
551	main_unc	True	0.0	117	0	11.0	11.0	1.0	1	right	1.0	1.0	1.0	1	0.0345002605021	blockFiles/set_36/main_unc/leftBlue\GB_LB_4.xlsx
552	main_unc	True	0.0	117	0	11.0	11.0	0.0	1	left	2.0	1.0	1.0	0	-0.0705077753402	blockFiles/set_36/main_unc/leftBlue\GB_LB_4.xlsx
553	main_unc	True	0.0	117	0	11.0	11.0	0.0	1	left	2.0	1.0	1.0	0	-0.04605787897480001	blockFiles/set_36/main_unc/leftBlue\GB_LB_4.xlsx
554	main_unc	True	0.0	117	0	11.0	11.0	0.0	1	left	2.0	0.0	1.0	0	-0.0348062213138	blockFiles/set_36/main_unc/leftBlue\GB_LB_4.xlsx
555	main_unc	True	0.0	117	0	11.0	11.0	0.0	1	left	2.0	1.0	1.0	0	-0.0541926820017	blockFiles/set_36/main_unc/leftBlue\GB_LB_4.xlsx
556	main_unc	True	0.0	117	0	11.0	11.0	0.0	0	left	1.0	1.0	1.0	1	0.0168238206767	blockFiles/set_36/main_unc/leftBlue\GB_LB_4.xlsx
