	trial_type	complete	missIndex	participant	id	blockNumber	b_t	d_t	decision1.corr	decision1.keys	a_t	r_t	decision2.corr	s_t	u_t	block_file
0	main_safe	True	0.0	790	0	0.0	0.0	0.0	1	left	1.0	1.0	1.0	0	-0.08	blockFiles/set_26/main_safe/rightBlue\GB_RB_1.xlsx
1	main_safe	True	0.0	790	0	0.0	0.0	0.0	1	left	1.0	1.0	1.0	0	-0.08	blockFiles/set_26/main_safe/rightBlue\GB_RB_1.xlsx
2	main_safe	True	0.0	790	0	0.0	0.0	0.0	1	left	1.0	1.0	1.0	0	-0.08	blockFiles/set_26/main_safe/rightBlue\GB_RB_1.xlsx
3	main_safe	True	0.0	790	0	0.0	0.0	1.0	1	right	2.0	1.0	1.0	1	0.08	blockFiles/set_26/main_safe/rightBlue\GB_RB_1.xlsx
4	main_safe	True	0.0	790	0	0.0	0.0	1.0	1	right	2.0	1.0	1.0	1	0.08	blockFiles/set_26/main_safe/rightBlue\GB_RB_1.xlsx
5	main_safe	True	0.0	790	0	0.0	0.0	0.0	1	left	1.0	0.0	1.0	0	-0.08	blockFiles/set_26/main_safe/rightBlue\GB_RB_1.xlsx
6	main_safe	True	0.0	790	0	0.0	0.0	0.0	1	left	1.0	1.0	1.0	0	-0.08	blockFiles/set_26/main_safe/rightBlue\GB_RB_1.xlsx
7	main_safe	True	0.0	790	0	0.0	0.0	1.0	1	right	2.0	1.0	1.0	1	0.08	blockFiles/set_26/main_safe/rightBlue\GB_RB_1.xlsx
8	main_safe	True	0.0	790	0	0.0	0.0	1.0	1	right	2.0	1.0	1.0	1	0.08	blockFiles/set_26/main_safe/rightBlue\GB_RB_1.xlsx
9	main_safe	True	0.0	790	0	0.0	0.0	1.0	1	right	2.0	1.0	1.0	1	0.08	blockFiles/set_26/main_safe/rightBlue\GB_RB_1.xlsx
10	main_safe	True	0.0	790	0	0.0	0.0	0.0	1	left	1.0	1.0	1.0	0	-0.08	blockFiles/set_26/main_safe/rightBlue\GB_RB_1.xlsx
11	main_safe	True	0.0	790	0	0.0	0.0	0.0	1	left	1.0	0.0	1.0	0	-0.08	blockFiles/set_26/main_safe/rightBlue\GB_RB_1.xlsx
12	main_safe	True	0.0	790	0	0.0	0.0	1.0	1	right	2.0	1.0	1.0	1	0.08	blockFiles/set_26/main_safe/rightBlue\GB_RB_1.xlsx
13	main_safe	True	0.0	790	0	0.0	0.0	0.0	1	left	2.0	0.0	0.0	0	-0.08	blockFiles/set_26/main_safe/rightBlue\GB_RB_1.xlsx
14	main_safe	True	0.0	790	0	0.0	0.0	0.0	1	left	1.0	1.0	1.0	0	-0.08	blockFiles/set_26/main_safe/rightBlue\GB_RB_1.xlsx
15	main_safe	True	0.0	790	0	0.0	0.0	1.0	1	right	2.0	1.0	1.0	1	0.08	blockFiles/set_26/main_safe/rightBlue\GB_RB_1.xlsx
16	main_safe	True	0.0	790	0	0.0	0.0	0.0	1	left	1.0	1.0	1.0	0	-0.08	blockFiles/set_26/main_safe/rightBlue\GB_RB_1.xlsx
17	main_safe	True	0.0	790	0	0.0	0.0	1.0	1	right	2.0	1.0	1.0	1	0.08	blockFiles/set_26/main_safe/rightBlue\GB_RB_1.xlsx
18	main_safe	True	0.0	790	0	0.0	0.0	1.0	1	right	2.0	1.0	1.0	1	0.08	blockFiles/set_26/main_safe/rightBlue\GB_RB_1.xlsx
19	main_safe	True	1.0	790	0	0.0	0.0	0.0	1	left	n/a	0.0	n/a	0	-0.08	blockFiles/set_26/main_safe/rightBlue\GB_RB_1.xlsx
20	main_safe	True	0.0	790	0	0.0	0.0	0.0	1	left	1.0	0.0	1.0	0	-0.08	blockFiles/set_26/main_safe/rightBlue\GB_RB_1.xlsx
21	main_safe	True	0.0	790	0	0.0	0.0	1.0	1	right	2.0	1.0	1.0	1	0.08	blockFiles/set_26/main_safe/rightBlue\GB_RB_1.xlsx
22	main_safe	True	0.0	790	0	0.0	0.0	0.0	1	left	1.0	1.0	1.0	0	-0.08	blockFiles/set_26/main_safe/rightBlue\GB_RB_1.xlsx
23	main_safe	True	0.0	790	0	0.0	0.0	1.0	1	right	2.0	0.0	1.0	1	0.08	blockFiles/set_26/main_safe/rightBlue\GB_RB_1.xlsx
24	main_safe	True	0.0	790	0	0.0	0.0	1.0	1	right	2.0	1.0	1.0	1	0.08	blockFiles/set_26/main_safe/rightBlue\GB_RB_1.xlsx
25	main_safe	True	0.0	790	0	0.0	0.0	0.0	1	left	1.0	1.0	1.0	0	-0.08	blockFiles/set_26/main_safe/rightBlue\GB_RB_1.xlsx
26	main_safe	True	0.0	790	0	1.0	1.0	1.0	1	right	1.0	1.0	1.0	1	0.08	blockFiles/set_26/main_safe/leftBlue\GB_LB_2.xlsx
27	main_safe	True	0.0	790	0	1.0	1.0	1.0	1	right	1.0	1.0	1.0	1	0.08	blockFiles/set_26/main_safe/leftBlue\GB_LB_2.xlsx
28	main_safe	True	0.0	790	0	1.0	1.0	0.0	1	left	2.0	1.0	1.0	0	-0.08	blockFiles/set_26/main_safe/leftBlue\GB_LB_2.xlsx
29	main_safe	True	0.0	790	0	1.0	1.0	1.0	1	right	1.0	1.0	1.0	1	0.08	blockFiles/set_26/main_safe/leftBlue\GB_LB_2.xlsx
30	main_safe	True	0.0	790	0	1.0	1.0	1.0	1	right	1.0	1.0	1.0	1	0.08	blockFiles/set_26/main_safe/leftBlue\GB_LB_2.xlsx
31	main_safe	True	0.0	790	0	1.0	1.0	1.0	1	right	1.0	0.0	1.0	1	0.08	blockFiles/set_26/main_safe/leftBlue\GB_LB_2.xlsx
32	main_safe	True	0.0	790	0	1.0	1.0	0.0	1	left	2.0	0.0	1.0	0	-0.08	blockFiles/set_26/main_safe/leftBlue\GB_LB_2.xlsx
33	main_safe	True	0.0	790	0	1.0	1.0	1.0	1	right	1.0	1.0	1.0	1	0.08	blockFiles/set_26/main_safe/leftBlue\GB_LB_2.xlsx
34	main_safe	True	0.0	790	0	1.0	1.0	0.0	1	left	2.0	0.0	1.0	0	-0.08	blockFiles/set_26/main_safe/leftBlue\GB_LB_2.xlsx
35	main_safe	True	0.0	790	0	1.0	1.0	1.0	1	right	1.0	1.0	1.0	1	0.08	blockFiles/set_26/main_safe/leftBlue\GB_LB_2.xlsx
36	main_safe	True	0.0	790	0	1.0	1.0	0.0	1	left	2.0	0.0	1.0	0	-0.08	blockFiles/set_26/main_safe/leftBlue\GB_LB_2.xlsx
37	main_safe	True	0.0	790	0	1.0	1.0	1.0	1	right	1.0	1.0	1.0	1	0.08	blockFiles/set_26/main_safe/leftBlue\GB_LB_2.xlsx
38	main_safe	True	0.0	790	0	1.0	1.0	1.0	1	right	1.0	1.0	1.0	1	0.08	blockFiles/set_26/main_safe/leftBlue\GB_LB_2.xlsx
39	main_safe	True	0.0	790	0	1.0	1.0	0.0	1	left	2.0	1.0	1.0	0	-0.08	blockFiles/set_26/main_safe/leftBlue\GB_LB_2.xlsx
40	main_safe	True	0.0	790	0	1.0	1.0	0.0	1	left	2.0	1.0	1.0	0	-0.08	blockFiles/set_26/main_safe/leftBlue\GB_LB_2.xlsx
41	main_safe	True	0.0	790	0	1.0	1.0	0.0	1	left	2.0	0.0	1.0	0	-0.08	blockFiles/set_26/main_safe/leftBlue\GB_LB_2.xlsx
42	main_safe	True	0.0	790	0	1.0	1.0	0.0	1	left	2.0	1.0	1.0	0	-0.08	blockFiles/set_26/main_safe/leftBlue\GB_LB_2.xlsx
43	main_safe	True	0.0	790	0	1.0	1.0	1.0	1	right	1.0	1.0	1.0	1	0.08	blockFiles/set_26/main_safe/leftBlue\GB_LB_2.xlsx
44	main_safe	True	0.0	790	0	1.0	1.0	0.0	1	left	2.0	1.0	1.0	0	-0.08	blockFiles/set_26/main_safe/leftBlue\GB_LB_2.xlsx
45	main_safe	True	0.0	790	0	1.0	1.0	1.0	1	right	1.0	1.0	1.0	1	0.08	blockFiles/set_26/main_safe/leftBlue\GB_LB_2.xlsx
46	main_safe	True	0.0	790	0	1.0	1.0	1.0	1	right	1.0	1.0	1.0	1	0.08	blockFiles/set_26/main_safe/leftBlue\GB_LB_2.xlsx
47	main_safe	True	0.0	790	0	1.0	1.0	0.0	1	left	2.0	1.0	1.0	0	-0.08	blockFiles/set_26/main_safe/leftBlue\GB_LB_2.xlsx
48	main_safe	True	0.0	790	0	1.0	1.0	1.0	1	right	1.0	1.0	1.0	1	0.08	blockFiles/set_26/main_safe/leftBlue\GB_LB_2.xlsx
49	main_safe	True	0.0	790	0	1.0	1.0	0.0	1	left	2.0	1.0	1.0	0	-0.08	blockFiles/set_26/main_safe/leftBlue\GB_LB_2.xlsx
50	main_safe	True	0.0	790	0	1.0	1.0	0.0	1	left	2.0	1.0	1.0	0	-0.08	blockFiles/set_26/main_safe/leftBlue\GB_LB_2.xlsx
51	main_safe	True	0.0	790	0	2.0	2.0	0.0	1	left	1.0	0.0	0.0	0	-0.08	blockFiles/set_26/main_safe/leftBlue\GB_LB_3.xlsx
52	main_safe	True	0.0	790	0	2.0	2.0	0.0	1	left	1.0	1.0	0.0	0	-0.08	blockFiles/set_26/main_safe/leftBlue\GB_LB_3.xlsx
53	main_safe	True	0.0	790	0	2.0	2.0	0.0	1	left	1.0	0.0	0.0	0	-0.08	blockFiles/set_26/main_safe/leftBlue\GB_LB_3.xlsx
54	main_safe	True	0.0	790	0	2.0	2.0	0.0	1	left	1.0	1.0	0.0	0	-0.08	blockFiles/set_26/main_safe/leftBlue\GB_LB_3.xlsx
55	main_safe	True	0.0	790	0	2.0	2.0	1.0	1	right	2.0	0.0	0.0	1	0.08	blockFiles/set_26/main_safe/leftBlue\GB_LB_3.xlsx
56	main_safe	True	0.0	790	0	2.0	2.0	1.0	1	right	2.0	0.0	0.0	1	0.08	blockFiles/set_26/main_safe/leftBlue\GB_LB_3.xlsx
57	main_safe	True	0.0	790	0	2.0	2.0	1.0	1	right	1.0	1.0	1.0	1	0.08	blockFiles/set_26/main_safe/leftBlue\GB_LB_3.xlsx
58	main_safe	True	0.0	790	0	2.0	2.0	0.0	1	left	2.0	1.0	1.0	0	-0.08	blockFiles/set_26/main_safe/leftBlue\GB_LB_3.xlsx
59	main_safe	True	0.0	790	0	2.0	2.0	1.0	1	right	1.0	1.0	1.0	1	0.08	blockFiles/set_26/main_safe/leftBlue\GB_LB_3.xlsx
60	main_safe	True	0.0	790	0	2.0	2.0	0.0	1	left	2.0	1.0	1.0	0	-0.08	blockFiles/set_26/main_safe/leftBlue\GB_LB_3.xlsx
61	main_safe	True	0.0	790	0	2.0	2.0	1.0	1	right	1.0	0.0	1.0	1	0.08	blockFiles/set_26/main_safe/leftBlue\GB_LB_3.xlsx
62	main_safe	True	0.0	790	0	2.0	2.0	1.0	1	right	1.0	1.0	1.0	1	0.08	blockFiles/set_26/main_safe/leftBlue\GB_LB_3.xlsx
63	main_safe	True	0.0	790	0	2.0	2.0	0.0	1	left	2.0	1.0	1.0	0	-0.08	blockFiles/set_26/main_safe/leftBlue\GB_LB_3.xlsx
64	main_safe	True	1.0	790	0	2.0	2.0	0.0	1	left	n/a	0.0	n/a	0	-0.08	blockFiles/set_26/main_safe/leftBlue\GB_LB_3.xlsx
65	main_safe	True	0.0	790	0	2.0	2.0	0.0	1	left	2.0	0.0	1.0	0	-0.08	blockFiles/set_26/main_safe/leftBlue\GB_LB_3.xlsx
66	main_safe	True	0.0	790	0	2.0	2.0	0.0	1	left	2.0	1.0	1.0	0	-0.08	blockFiles/set_26/main_safe/leftBlue\GB_LB_3.xlsx
67	main_safe	True	0.0	790	0	2.0	2.0	1.0	1	right	1.0	1.0	1.0	1	0.08	blockFiles/set_26/main_safe/leftBlue\GB_LB_3.xlsx
68	main_safe	True	0.0	790	0	2.0	2.0	1.0	1	right	1.0	1.0	1.0	1	0.08	blockFiles/set_26/main_safe/leftBlue\GB_LB_3.xlsx
69	main_safe	True	0.0	790	0	2.0	2.0	1.0	1	right	1.0	1.0	1.0	1	0.08	blockFiles/set_26/main_safe/leftBlue\GB_LB_3.xlsx
70	main_safe	True	0.0	790	0	2.0	2.0	1.0	1	right	1.0	1.0	1.0	1	0.08	blockFiles/set_26/main_safe/leftBlue\GB_LB_3.xlsx
71	main_safe	True	0.0	790	0	2.0	2.0	1.0	1	right	1.0	1.0	1.0	1	0.08	blockFiles/set_26/main_safe/leftBlue\GB_LB_3.xlsx
72	main_safe	True	0.0	790	0	2.0	2.0	1.0	1	right	1.0	1.0	1.0	1	0.08	blockFiles/set_26/main_safe/leftBlue\GB_LB_3.xlsx
73	main_safe	True	0.0	790	0	2.0	2.0	0.0	1	left	2.0	1.0	1.0	0	-0.08	blockFiles/set_26/main_safe/leftBlue\GB_LB_3.xlsx
74	main_safe	True	0.0	790	0	2.0	2.0	0.0	1	left	2.0	1.0	1.0	0	-0.08	blockFiles/set_26/main_safe/leftBlue\GB_LB_3.xlsx
75	main_safe	True	0.0	790	0	2.0	2.0	0.0	1	left	2.0	1.0	1.0	0	-0.08	blockFiles/set_26/main_safe/leftBlue\GB_LB_3.xlsx
76	main_safe	True	0.0	790	0	2.0	2.0	0.0	1	left	2.0	1.0	1.0	0	-0.08	blockFiles/set_26/main_safe/leftBlue\GB_LB_3.xlsx
77	main_safe	True	0.0	790	0	3.0	3.0	1.0	1	right	1.0	1.0	1.0	1	0.08	blockFiles/set_26/main_safe/leftBlue\GB_LB_1.xlsx
78	main_safe	True	0.0	790	0	3.0	3.0	0.0	1	left	2.0	1.0	1.0	0	-0.08	blockFiles/set_26/main_safe/leftBlue\GB_LB_1.xlsx
79	main_safe	True	0.0	790	0	3.0	3.0	0.0	1	left	2.0	1.0	1.0	0	-0.08	blockFiles/set_26/main_safe/leftBlue\GB_LB_1.xlsx
80	main_safe	True	0.0	790	0	3.0	3.0	1.0	1	right	1.0	1.0	1.0	1	0.08	blockFiles/set_26/main_safe/leftBlue\GB_LB_1.xlsx
81	main_safe	True	0.0	790	0	3.0	3.0	1.0	1	right	1.0	1.0	1.0	1	0.08	blockFiles/set_26/main_safe/leftBlue\GB_LB_1.xlsx
82	main_safe	True	0.0	790	0	3.0	3.0	0.0	1	left	2.0	1.0	1.0	0	-0.08	blockFiles/set_26/main_safe/leftBlue\GB_LB_1.xlsx
83	main_safe	True	0.0	790	0	3.0	3.0	1.0	1	right	1.0	1.0	1.0	1	0.08	blockFiles/set_26/main_safe/leftBlue\GB_LB_1.xlsx
84	main_safe	True	0.0	790	0	3.0	3.0	0.0	1	left	2.0	1.0	1.0	0	-0.08	blockFiles/set_26/main_safe/leftBlue\GB_LB_1.xlsx
85	main_safe	True	0.0	790	0	3.0	3.0	1.0	1	right	1.0	1.0	1.0	1	0.08	blockFiles/set_26/main_safe/leftBlue\GB_LB_1.xlsx
86	main_safe	True	0.0	790	0	3.0	3.0	0.0	1	left	2.0	0.0	1.0	0	-0.08	blockFiles/set_26/main_safe/leftBlue\GB_LB_1.xlsx
87	main_safe	True	0.0	790	0	3.0	3.0	0.0	1	left	2.0	1.0	1.0	0	-0.08	blockFiles/set_26/main_safe/leftBlue\GB_LB_1.xlsx
88	main_safe	True	0.0	790	0	3.0	3.0	1.0	1	right	1.0	0.0	1.0	1	0.08	blockFiles/set_26/main_safe/leftBlue\GB_LB_1.xlsx
89	main_safe	True	0.0	790	0	3.0	3.0	1.0	1	right	1.0	1.0	1.0	1	0.08	blockFiles/set_26/main_safe/leftBlue\GB_LB_1.xlsx
90	main_safe	True	0.0	790	0	3.0	3.0	1.0	1	right	1.0	0.0	1.0	1	0.08	blockFiles/set_26/main_safe/leftBlue\GB_LB_1.xlsx
91	main_safe	True	0.0	790	0	3.0	3.0	1.0	1	right	1.0	1.0	1.0	1	0.08	blockFiles/set_26/main_safe/leftBlue\GB_LB_1.xlsx
92	main_safe	True	0.0	790	0	3.0	3.0	1.0	1	right	1.0	1.0	1.0	1	0.08	blockFiles/set_26/main_safe/leftBlue\GB_LB_1.xlsx
93	main_safe	True	0.0	790	0	3.0	3.0	0.0	1	left	2.0	1.0	1.0	0	-0.08	blockFiles/set_26/main_safe/leftBlue\GB_LB_1.xlsx
94	main_safe	True	0.0	790	0	3.0	3.0	0.0	1	left	2.0	1.0	1.0	0	-0.08	blockFiles/set_26/main_safe/leftBlue\GB_LB_1.xlsx
95	main_safe	True	0.0	790	0	3.0	3.0	1.0	1	right	1.0	1.0	1.0	1	0.08	blockFiles/set_26/main_safe/leftBlue\GB_LB_1.xlsx
96	main_safe	True	0.0	790	0	3.0	3.0	0.0	1	left	2.0	1.0	1.0	0	-0.08	blockFiles/set_26/main_safe/leftBlue\GB_LB_1.xlsx
97	main_safe	True	0.0	790	0	3.0	3.0	0.0	1	left	2.0	1.0	1.0	0	-0.08	blockFiles/set_26/main_safe/leftBlue\GB_LB_1.xlsx
98	main_safe	True	0.0	790	0	3.0	3.0	1.0	1	right	1.0	1.0	1.0	1	0.08	blockFiles/set_26/main_safe/leftBlue\GB_LB_1.xlsx
99	main_safe	True	0.0	790	0	3.0	3.0	0.0	1	left	2.0	1.0	1.0	0	-0.08	blockFiles/set_26/main_safe/leftBlue\GB_LB_1.xlsx
100	main_safe	True	0.0	790	0	3.0	3.0	1.0	1	right	1.0	1.0	1.0	1	0.08	blockFiles/set_26/main_safe/leftBlue\GB_LB_1.xlsx
101	main_safe	True	0.0	790	0	3.0	3.0	0.0	1	left	2.0	1.0	1.0	0	-0.08	blockFiles/set_26/main_safe/leftBlue\GB_LB_1.xlsx
102	main_safe	True	0.0	790	0	4.0	4.0	0.0	1	left	1.0	1.0	1.0	0	-0.08	blockFiles/set_26/main_safe/rightBlue\GB_RB_3.xlsx
103	main_safe	True	0.0	790	0	4.0	4.0	1.0	1	right	2.0	1.0	1.0	1	0.08	blockFiles/set_26/main_safe/rightBlue\GB_RB_3.xlsx
104	main_safe	True	0.0	790	0	4.0	4.0	1.0	1	right	2.0	1.0	1.0	1	0.08	blockFiles/set_26/main_safe/rightBlue\GB_RB_3.xlsx
105	main_safe	True	0.0	790	0	4.0	4.0	1.0	1	right	2.0	1.0	1.0	1	0.08	blockFiles/set_26/main_safe/rightBlue\GB_RB_3.xlsx
106	main_safe	True	0.0	790	0	4.0	4.0	1.0	1	right	2.0	1.0	1.0	1	0.08	blockFiles/set_26/main_safe/rightBlue\GB_RB_3.xlsx
107	main_safe	True	0.0	790	0	4.0	4.0	0.0	1	left	1.0	1.0	1.0	0	-0.08	blockFiles/set_26/main_safe/rightBlue\GB_RB_3.xlsx
108	main_safe	True	0.0	790	0	4.0	4.0	1.0	1	right	2.0	1.0	1.0	1	0.08	blockFiles/set_26/main_safe/rightBlue\GB_RB_3.xlsx
109	main_safe	True	0.0	790	0	4.0	4.0	0.0	1	left	1.0	0.0	1.0	0	-0.08	blockFiles/set_26/main_safe/rightBlue\GB_RB_3.xlsx
110	main_safe	True	0.0	790	0	4.0	4.0	0.0	1	left	1.0	1.0	1.0	0	-0.08	blockFiles/set_26/main_safe/rightBlue\GB_RB_3.xlsx
111	main_safe	True	0.0	790	0	4.0	4.0	1.0	1	right	2.0	1.0	1.0	1	0.08	blockFiles/set_26/main_safe/rightBlue\GB_RB_3.xlsx
112	main_safe	True	0.0	790	0	4.0	4.0	1.0	1	right	2.0	1.0	1.0	1	0.08	blockFiles/set_26/main_safe/rightBlue\GB_RB_3.xlsx
113	main_safe	True	0.0	790	0	4.0	4.0	1.0	1	right	2.0	1.0	1.0	1	0.08	blockFiles/set_26/main_safe/rightBlue\GB_RB_3.xlsx
114	main_safe	True	0.0	790	0	4.0	4.0	1.0	1	right	2.0	0.0	1.0	1	0.08	blockFiles/set_26/main_safe/rightBlue\GB_RB_3.xlsx
115	main_safe	True	0.0	790	0	4.0	4.0	0.0	1	left	1.0	1.0	1.0	0	-0.08	blockFiles/set_26/main_safe/rightBlue\GB_RB_3.xlsx
116	main_safe	True	0.0	790	0	4.0	4.0	1.0	1	right	2.0	0.0	1.0	1	0.08	blockFiles/set_26/main_safe/rightBlue\GB_RB_3.xlsx
117	main_safe	True	0.0	790	0	4.0	4.0	0.0	1	left	1.0	1.0	1.0	0	-0.08	blockFiles/set_26/main_safe/rightBlue\GB_RB_3.xlsx
118	main_safe	True	0.0	790	0	4.0	4.0	1.0	1	right	2.0	1.0	1.0	1	0.08	blockFiles/set_26/main_safe/rightBlue\GB_RB_3.xlsx
119	main_safe	True	0.0	790	0	4.0	4.0	0.0	1	left	1.0	1.0	1.0	0	-0.08	blockFiles/set_26/main_safe/rightBlue\GB_RB_3.xlsx
120	main_safe	True	1.0	790	0	4.0	4.0	0.0	1	left	n/a	0.0	n/a	0	-0.08	blockFiles/set_26/main_safe/rightBlue\GB_RB_3.xlsx
121	main_safe	True	0.0	790	0	4.0	4.0	1.0	1	right	2.0	1.0	1.0	1	0.08	blockFiles/set_26/main_safe/rightBlue\GB_RB_3.xlsx
122	main_safe	True	0.0	790	0	4.0	4.0	0.0	1	left	1.0	1.0	1.0	0	-0.08	blockFiles/set_26/main_safe/rightBlue\GB_RB_3.xlsx
123	main_safe	True	0.0	790	0	4.0	4.0	0.0	1	left	1.0	0.0	1.0	0	-0.08	blockFiles/set_26/main_safe/rightBlue\GB_RB_3.xlsx
124	main_safe	True	0.0	790	0	4.0	4.0	0.0	1	left	1.0	1.0	1.0	0	-0.08	blockFiles/set_26/main_safe/rightBlue\GB_RB_3.xlsx
125	main_safe	True	0.0	790	0	4.0	4.0	0.0	1	left	1.0	1.0	1.0	0	-0.08	blockFiles/set_26/main_safe/rightBlue\GB_RB_3.xlsx
126	main_safe	True	0.0	790	0	4.0	4.0	0.0	1	left	1.0	1.0	1.0	0	-0.08	blockFiles/set_26/main_safe/rightBlue\GB_RB_3.xlsx
127	main_safe	True	0.0	790	0	4.0	4.0	0.0	1	left	1.0	1.0	1.0	0	-0.08	blockFiles/set_26/main_safe/rightBlue\GB_RB_3.xlsx
128	main_safe	True	0.0	790	0	5.0	5.0	0.0	1	left	2.0	0.0	0.0	0	-0.08	blockFiles/set_26/main_safe/rightBlue\GB_RB_2.xlsx
129	main_safe	True	0.0	790	0	5.0	5.0	1.0	1	right	1.0	0.0	0.0	1	0.08	blockFiles/set_26/main_safe/rightBlue\GB_RB_2.xlsx
130	main_safe	True	0.0	790	0	5.0	5.0	1.0	1	right	2.0	0.0	1.0	1	0.08	blockFiles/set_26/main_safe/rightBlue\GB_RB_2.xlsx
131	main_safe	True	0.0	790	0	5.0	5.0	0.0	1	left	2.0	0.0	0.0	0	-0.08	blockFiles/set_26/main_safe/rightBlue\GB_RB_2.xlsx
132	main_safe	True	0.0	790	0	5.0	5.0	1.0	1	right	1.0	0.0	0.0	1	0.08	blockFiles/set_26/main_safe/rightBlue\GB_RB_2.xlsx
133	main_safe	True	0.0	790	0	5.0	5.0	1.0	1	right	1.0	1.0	0.0	1	0.08	blockFiles/set_26/main_safe/rightBlue\GB_RB_2.xlsx
134	main_safe	True	0.0	790	0	5.0	5.0	0.0	1	left	2.0	1.0	0.0	0	-0.08	blockFiles/set_26/main_safe/rightBlue\GB_RB_2.xlsx
135	main_safe	True	0.0	790	0	5.0	5.0	1.0	1	right	1.0	0.0	0.0	1	0.08	blockFiles/set_26/main_safe/rightBlue\GB_RB_2.xlsx
136	main_safe	True	0.0	790	0	5.0	5.0	1.0	1	right	1.0	0.0	0.0	1	0.08	blockFiles/set_26/main_safe/rightBlue\GB_RB_2.xlsx
137	main_safe	True	0.0	790	0	5.0	5.0	0.0	1	left	1.0	1.0	1.0	0	-0.08	blockFiles/set_26/main_safe/rightBlue\GB_RB_2.xlsx
138	main_safe	True	0.0	790	0	5.0	5.0	1.0	1	right	2.0	1.0	1.0	1	0.08	blockFiles/set_26/main_safe/rightBlue\GB_RB_2.xlsx
139	main_safe	True	0.0	790	0	5.0	5.0	1.0	1	right	2.0	1.0	1.0	1	0.08	blockFiles/set_26/main_safe/rightBlue\GB_RB_2.xlsx
140	main_safe	True	0.0	790	0	5.0	5.0	0.0	1	left	1.0	1.0	1.0	0	-0.08	blockFiles/set_26/main_safe/rightBlue\GB_RB_2.xlsx
141	main_safe	True	0.0	790	0	5.0	5.0	1.0	1	right	2.0	0.0	1.0	1	0.08	blockFiles/set_26/main_safe/rightBlue\GB_RB_2.xlsx
142	main_safe	True	0.0	790	0	5.0	5.0	0.0	1	left	1.0	1.0	1.0	0	-0.08	blockFiles/set_26/main_safe/rightBlue\GB_RB_2.xlsx
143	main_safe	True	0.0	790	0	5.0	5.0	0.0	1	left	1.0	1.0	1.0	0	-0.08	blockFiles/set_26/main_safe/rightBlue\GB_RB_2.xlsx
144	main_safe	True	0.0	790	0	5.0	5.0	0.0	1	left	1.0	1.0	1.0	0	-0.08	blockFiles/set_26/main_safe/rightBlue\GB_RB_2.xlsx
145	main_safe	True	0.0	790	0	5.0	5.0	1.0	1	right	2.0	1.0	1.0	1	0.08	blockFiles/set_26/main_safe/rightBlue\GB_RB_2.xlsx
146	main_safe	True	0.0	790	0	5.0	5.0	0.0	1	left	1.0	1.0	1.0	0	-0.08	blockFiles/set_26/main_safe/rightBlue\GB_RB_2.xlsx
147	main_safe	True	0.0	790	0	5.0	5.0	1.0	1	right	2.0	1.0	1.0	1	0.08	blockFiles/set_26/main_safe/rightBlue\GB_RB_2.xlsx
148	main_safe	True	0.0	790	0	5.0	5.0	0.0	1	left	1.0	1.0	1.0	0	-0.08	blockFiles/set_26/main_safe/rightBlue\GB_RB_2.xlsx
149	main_safe	True	0.0	790	0	5.0	5.0	1.0	1	right	2.0	1.0	1.0	1	0.08	blockFiles/set_26/main_safe/rightBlue\GB_RB_2.xlsx
150	main_safe	True	0.0	790	0	5.0	5.0	0.0	1	left	1.0	1.0	1.0	0	-0.08	blockFiles/set_26/main_safe/rightBlue\GB_RB_2.xlsx
151	main_safe	True	1.0	790	0	5.0	5.0	0.0	1	left	n/a	0.0	n/a	0	-0.08	blockFiles/set_26/main_safe/rightBlue\GB_RB_2.xlsx
152	main_safe	True	0.0	790	0	5.0	5.0	1.0	1	right	2.0	1.0	1.0	1	0.08	blockFiles/set_26/main_safe/rightBlue\GB_RB_2.xlsx
153	main_safe	True	0.0	790	0	5.0	5.0	0.0	1	left	1.0	1.0	1.0	0	-0.08	blockFiles/set_26/main_safe/rightBlue\GB_RB_2.xlsx
154	patches	True	n/a	790	0	n/a	n/a	1.0	1	right	n/a	n/a	n/a	1	0.038872077800300005	blockFiles/set_26/main_PD/GB_runPatches1.xlsx
155	patches	True	n/a	790	0	n/a	n/a	0.0	1	left	n/a	n/a	n/a	0	-0.0543591769226	blockFiles/set_26/main_PD/GB_runPatches1.xlsx
156	patches	True	n/a	790	0	n/a	n/a	1.0	0	right	n/a	n/a	n/a	0	-0.00893661757931	blockFiles/set_26/main_PD/GB_runPatches1.xlsx
157	patches	True	n/a	790	0	n/a	n/a	1.0	1	right	n/a	n/a	n/a	1	0.040208992064	blockFiles/set_26/main_PD/GB_runPatches1.xlsx
158	patches	True	n/a	790	0	n/a	n/a	1.0	1	right	n/a	n/a	n/a	1	0.025826713591800003	blockFiles/set_26/main_PD/GB_runPatches1.xlsx
159	patches	True	n/a	790	0	n/a	n/a	0.0	1	left	n/a	n/a	n/a	0	-0.0648496922106	blockFiles/set_26/main_PD/GB_runPatches1.xlsx
160	patches	True	n/a	790	0	n/a	n/a	1.0	1	right	n/a	n/a	n/a	1	0.00833323590457	blockFiles/set_26/main_PD/GB_runPatches1.xlsx
161	patches	True	n/a	790	0	n/a	n/a	1.0	1	right	n/a	n/a	n/a	1	0.00011493133381	blockFiles/set_26/main_PD/GB_runPatches1.xlsx
162	patches	True	n/a	790	0	n/a	n/a	1.0	1	right	n/a	n/a	n/a	1	0.0616871376149	blockFiles/set_26/main_PD/GB_runPatches1.xlsx
163	patches	True	n/a	790	0	n/a	n/a	0.0	1	left	n/a	n/a	n/a	0	-0.074919006452	blockFiles/set_26/main_PD/GB_runPatches1.xlsx
164	patches	True	n/a	790	0	n/a	n/a	0.0	0	left	n/a	n/a	n/a	1	0.000385482180864	blockFiles/set_26/main_PD/GB_runPatches1.xlsx
165	patches	True	n/a	790	0	n/a	n/a	n/a	0	None	n/a	n/a	n/a	0	-0.0473740896769	blockFiles/set_26/main_PD/GB_runPatches1.xlsx
166	patches	True	n/a	790	0	n/a	n/a	1.0	1	right	n/a	n/a	n/a	1	0.049751718808	blockFiles/set_26/main_PD/GB_runPatches1.xlsx
167	patches	True	n/a	790	0	n/a	n/a	0.0	1	left	n/a	n/a	n/a	0	-0.03742033794519999	blockFiles/set_26/main_PD/GB_runPatches1.xlsx
168	patches	True	n/a	790	0	n/a	n/a	0.0	1	left	n/a	n/a	n/a	0	-0.0260087859258	blockFiles/set_26/main_PD/GB_runPatches1.xlsx
169	patches	True	n/a	790	0	n/a	n/a	0.0	1	left	n/a	n/a	n/a	0	-0.0547099421918	blockFiles/set_26/main_PD/GB_runPatches1.xlsx
170	patches	True	n/a	790	0	n/a	n/a	1.0	1	right	n/a	n/a	n/a	1	0.0107429439388	blockFiles/set_26/main_PD/GB_runPatches1.xlsx
171	patches	True	n/a	790	0	n/a	n/a	1.0	1	right	n/a	n/a	n/a	1	0.0190671359189	blockFiles/set_26/main_PD/GB_runPatches1.xlsx
172	patches	True	n/a	790	0	n/a	n/a	1.0	0	right	n/a	n/a	n/a	0	-0.0272292005457	blockFiles/set_26/main_PD/GB_runPatches1.xlsx
173	patches	True	n/a	790	0	n/a	n/a	0.0	1	left	n/a	n/a	n/a	0	-0.0383373632468	blockFiles/set_26/main_PD/GB_runPatches1.xlsx
174	patches	True	n/a	790	0	n/a	n/a	1.0	1	right	n/a	n/a	n/a	1	0.0658015490323	blockFiles/set_26/main_PD/GB_runPatches1.xlsx
175	patches	True	n/a	790	0	n/a	n/a	0.0	1	left	n/a	n/a	n/a	0	-0.053626994527900006	blockFiles/set_26/main_PD/GB_runPatches1.xlsx
176	patches	True	n/a	790	0	n/a	n/a	1.0	1	right	n/a	n/a	n/a	1	0.0247437793389	blockFiles/set_26/main_PD/GB_runPatches1.xlsx
177	patches	True	n/a	790	0	n/a	n/a	0.0	1	left	n/a	n/a	n/a	0	-0.0441813548841	blockFiles/set_26/main_PD/GB_runPatches1.xlsx
178	patches	True	n/a	790	0	n/a	n/a	0.0	1	left	n/a	n/a	n/a	0	-0.0452753934264	blockFiles/set_26/main_PD/GB_runPatches1.xlsx
179	patches	True	n/a	790	0	n/a	n/a	1.0	0	right	n/a	n/a	n/a	0	-0.0156115426868	blockFiles/set_26/main_PD/GB_runPatches1.xlsx
180	patches	True	n/a	790	0	n/a	n/a	1.0	1	right	n/a	n/a	n/a	1	0.043485132791099994	blockFiles/set_26/main_PD/GB_runPatches1.xlsx
181	patches	True	n/a	790	0	n/a	n/a	1.0	0	right	n/a	n/a	n/a	0	-0.00670658761635	blockFiles/set_26/main_PD/GB_runPatches1.xlsx
182	patches	True	n/a	790	0	n/a	n/a	1.0	1	right	n/a	n/a	n/a	1	0.074720549304	blockFiles/set_26/main_PD/GB_runPatches1.xlsx
183	patches	True	n/a	790	0	n/a	n/a	1.0	1	right	n/a	n/a	n/a	1	0.0442829313315	blockFiles/set_26/main_PD/GB_runPatches1.xlsx
184	patches	True	n/a	790	0	n/a	n/a	1.0	1	right	n/a	n/a	n/a	1	0.0511513634585	blockFiles/set_26/main_PD/GB_runPatches1.xlsx
185	patches	True	n/a	790	0	n/a	n/a	1.0	0	right	n/a	n/a	n/a	0	-0.0236868035421	blockFiles/set_26/main_PD/GB_runPatches1.xlsx
186	patches	True	n/a	790	0	n/a	n/a	1.0	1	right	n/a	n/a	n/a	1	0.0467393173464	blockFiles/set_26/main_PD/GB_runPatches1.xlsx
187	patches	True	n/a	790	0	n/a	n/a	1.0	1	right	n/a	n/a	n/a	1	0.0638123778254	blockFiles/set_26/main_PD/GB_runPatches1.xlsx
188	patches	True	n/a	790	0	n/a	n/a	0.0	1	left	n/a	n/a	n/a	0	-0.0188959862478	blockFiles/set_26/main_PD/GB_runPatches1.xlsx
189	patches	True	n/a	790	0	n/a	n/a	1.0	1	right	n/a	n/a	n/a	1	0.019007113967099996	blockFiles/set_26/main_PD/GB_runPatches1.xlsx
190	patches	True	n/a	790	0	n/a	n/a	0.0	0	left	n/a	n/a	n/a	1	0.019555564411	blockFiles/set_26/main_PD/GB_runPatches1.xlsx
191	patches	True	n/a	790	0	n/a	n/a	1.0	1	right	n/a	n/a	n/a	1	0.0578860101104	blockFiles/set_26/main_PD/GB_runPatches1.xlsx
192	patches	True	n/a	790	0	n/a	n/a	0.0	1	left	n/a	n/a	n/a	0	-0.0274886525981	blockFiles/set_26/main_PD/GB_runPatches1.xlsx
193	patches	True	n/a	790	0	n/a	n/a	1.0	1	right	n/a	n/a	n/a	1	0.060712754298	blockFiles/set_26/main_PD/GB_runPatches1.xlsx
194	patches	True	n/a	790	0	n/a	n/a	1.0	1	right	n/a	n/a	n/a	1	0.0224255451187	blockFiles/set_26/main_PD/GB_runPatches1.xlsx
195	patches	True	n/a	790	0	n/a	n/a	0.0	1	left	n/a	n/a	n/a	0	-0.0282877915353	blockFiles/set_26/main_PD/GB_runPatches1.xlsx
196	patches	True	n/a	790	0	n/a	n/a	0.0	1	left	n/a	n/a	n/a	0	-0.0430886386335	blockFiles/set_26/main_PD/GB_runPatches1.xlsx
197	patches	True	n/a	790	0	n/a	n/a	1.0	1	right	n/a	n/a	n/a	1	0.0579622728564	blockFiles/set_26/main_PD/GB_runPatches1.xlsx
198	patches	True	n/a	790	0	n/a	n/a	0.0	1	left	n/a	n/a	n/a	0	-0.0554670481384	blockFiles/set_26/main_PD/GB_runPatches1.xlsx
199	patches	True	n/a	790	0	n/a	n/a	0.0	1	left	n/a	n/a	n/a	0	-0.0652827300131	blockFiles/set_26/main_PD/GB_runPatches1.xlsx
200	patches	True	n/a	790	0	n/a	n/a	0.0	1	left	n/a	n/a	n/a	0	-0.0114012115821	blockFiles/set_26/main_PD/GB_runPatches1.xlsx
201	patches	True	n/a	790	0	n/a	n/a	1.0	0	right	n/a	n/a	n/a	0	-0.00707550017163	blockFiles/set_26/main_PD/GB_runPatches1.xlsx
202	patches	True	n/a	790	0	n/a	n/a	0.0	0	left	n/a	n/a	n/a	1	0.00617257103324	blockFiles/set_26/main_PD/GB_runPatches1.xlsx
203	patches	True	n/a	790	0	n/a	n/a	1.0	1	right	n/a	n/a	n/a	1	0.0339675625227	blockFiles/set_26/main_PD/GB_runPatches1.xlsx
204	patches	True	n/a	790	0	n/a	n/a	0.0	1	left	n/a	n/a	n/a	0	-0.07006999621169999	blockFiles/set_26/main_PD/GB_runPatches1.xlsx
205	patches	True	n/a	790	0	n/a	n/a	0.0	1	left	n/a	n/a	n/a	0	-0.029772867895700002	blockFiles/set_26/main_PD/GB_runPatches1.xlsx
206	patches	True	n/a	790	0	n/a	n/a	0.0	1	left	n/a	n/a	n/a	0	-0.0351259288751	blockFiles/set_26/main_PD/GB_runPatches1.xlsx
207	patches	True	n/a	790	0	n/a	n/a	1.0	1	right	n/a	n/a	n/a	1	0.0764912369289	blockFiles/set_26/main_PD/GB_runPatches1.xlsx
208	patches	True	n/a	790	0	n/a	n/a	1.0	0	right	n/a	n/a	n/a	0	-0.000885902810842	blockFiles/set_26/main_PD/GB_runPatches1.xlsx
209	patches	True	n/a	790	0	n/a	n/a	1.0	1	right	n/a	n/a	n/a	1	0.06848317159339999	blockFiles/set_26/main_PD/GB_runPatches1.xlsx
210	patches	True	n/a	790	0	n/a	n/a	0.0	1	left	n/a	n/a	n/a	0	-0.0340034996159	blockFiles/set_26/main_PD/GB_runPatches1.xlsx
211	patches	True	n/a	790	0	n/a	n/a	1.0	1	right	n/a	n/a	n/a	1	0.0346699124016	blockFiles/set_26/main_PD/GB_runPatches1.xlsx
212	patches	True	n/a	790	0	n/a	n/a	0.0	1	left	n/a	n/a	n/a	0	-0.0660697134398	blockFiles/set_26/main_PD/GB_runPatches1.xlsx
213	patches	True	n/a	790	0	n/a	n/a	1.0	1	right	n/a	n/a	n/a	1	0.0421987870149	blockFiles/set_26/main_PD/GB_runPatches1.xlsx
214	patches	True	n/a	790	0	n/a	n/a	0.0	1	left	n/a	n/a	n/a	0	-0.0220620432496	blockFiles/set_26/main_PD/GB_runPatches1.xlsx
215	patches	True	n/a	790	0	n/a	n/a	n/a	0	None	n/a	n/a	n/a	1	0.00921863012016	blockFiles/set_26/main_PD/GB_runPatches1.xlsx
216	patches	True	n/a	790	0	n/a	n/a	0.0	1	left	n/a	n/a	n/a	0	-0.0426191874966	blockFiles/set_26/main_PD/GB_runPatches1.xlsx
217	patches	True	n/a	790	0	n/a	n/a	1.0	1	right	n/a	n/a	n/a	1	0.0352368003689	blockFiles/set_26/main_PD/GB_runPatches1.xlsx
218	patches	True	n/a	790	0	n/a	n/a	0.0	1	left	n/a	n/a	n/a	0	-0.045138519369099996	blockFiles/set_26/main_PD/GB_runPatches1.xlsx
219	patches	True	n/a	790	0	n/a	n/a	0.0	1	left	n/a	n/a	n/a	0	-0.0528278842568	blockFiles/set_26/main_PD/GB_runPatches1.xlsx
220	patches	True	n/a	790	0	n/a	n/a	1.0	1	right	n/a	n/a	n/a	1	0.041504600234300006	blockFiles/set_26/main_PD/GB_runPatches1.xlsx
221	patches	True	n/a	790	0	n/a	n/a	1.0	1	right	n/a	n/a	n/a	1	0.0654305834882	blockFiles/set_26/main_PD/GB_runPatches1.xlsx
222	patches	True	n/a	790	0	n/a	n/a	1.0	1	right	n/a	n/a	n/a	1	0.0261912608892	blockFiles/set_26/main_PD/GB_runPatches1.xlsx
223	patches	True	n/a	790	0	n/a	n/a	n/a	0	None	n/a	n/a	n/a	1	0.0107381707616	blockFiles/set_26/main_PD/GB_runPatches1.xlsx
224	patches	True	n/a	790	0	n/a	n/a	1.0	1	right	n/a	n/a	n/a	1	0.0222407555021	blockFiles/set_26/main_PD/GB_runPatches1.xlsx
225	patches	True	n/a	790	0	n/a	n/a	0.0	0	left	n/a	n/a	n/a	1	0.0009354659728710001	blockFiles/set_26/main_PD/GB_runPatches1.xlsx
226	patches	True	n/a	790	0	n/a	n/a	1.0	1	right	n/a	n/a	n/a	1	0.0479324767739	blockFiles/set_26/main_PD/GB_runPatches1.xlsx
227	patches	True	n/a	790	0	n/a	n/a	0.0	1	left	n/a	n/a	n/a	0	-0.06907794142139999	blockFiles/set_26/main_PD/GB_runPatches1.xlsx
228	patches	True	n/a	790	0	n/a	n/a	0.0	1	left	n/a	n/a	n/a	0	-0.0188574289903	blockFiles/set_26/main_PD/GB_runPatches1.xlsx
229	patches	True	n/a	790	0	n/a	n/a	1.0	1	right	n/a	n/a	n/a	1	0.0734497727267	blockFiles/set_26/main_PD/GB_runPatches1.xlsx
230	patches	True	n/a	790	0	n/a	n/a	0.0	1	left	n/a	n/a	n/a	0	-0.076675731428	blockFiles/set_26/main_PD/GB_runPatches1.xlsx
231	patches	True	n/a	790	0	n/a	n/a	0.0	1	left	n/a	n/a	n/a	0	-0.039399298727500004	blockFiles/set_26/main_PD/GB_runPatches1.xlsx
232	patches	True	n/a	790	0	n/a	n/a	0.0	1	left	n/a	n/a	n/a	0	-0.0196379918419	blockFiles/set_26/main_PD/GB_runPatches1.xlsx
233	patches	True	n/a	790	0	n/a	n/a	0.0	0	left	n/a	n/a	n/a	1	0.00476500006393	blockFiles/set_26/main_PD/GB_runPatches1.xlsx
234	patches	True	n/a	790	0	n/a	n/a	1.0	1	right	n/a	n/a	n/a	1	0.0503890101053	blockFiles/set_26/main_PD/GB_runPatches1.xlsx
235	patches	True	n/a	790	0	n/a	n/a	1.0	1	right	n/a	n/a	n/a	1	0.0473134750873	blockFiles/set_26/main_PD/GB_runPatches1.xlsx
236	patches	True	n/a	790	0	n/a	n/a	n/a	0	None	n/a	n/a	n/a	0	-0.009733957778659999	blockFiles/set_26/main_PD/GB_runPatches1.xlsx
237	patches	True	n/a	790	0	n/a	n/a	0.0	0	left	n/a	n/a	n/a	1	0.0520065633208	blockFiles/set_26/main_PD/GB_runPatches1.xlsx
238	patches	True	n/a	790	0	n/a	n/a	1.0	1	right	n/a	n/a	n/a	1	0.05657672086730001	blockFiles/set_26/main_PD/GB_runPatches1.xlsx
239	patches	True	n/a	790	0	n/a	n/a	1.0	0	right	n/a	n/a	n/a	0	-0.0104801076651	blockFiles/set_26/main_PD/GB_runPatches1.xlsx
240	patches	True	n/a	790	0	n/a	n/a	0.0	1	left	n/a	n/a	n/a	0	-0.020947664007500002	blockFiles/set_26/main_PD/GB_runPatches1.xlsx
241	patches	True	n/a	790	0	n/a	n/a	1.0	1	right	n/a	n/a	n/a	1	0.072304653693	blockFiles/set_26/main_PD/GB_runPatches1.xlsx
242	patches	True	n/a	790	0	n/a	n/a	0.0	1	left	n/a	n/a	n/a	0	-0.029898782633199998	blockFiles/set_26/main_PD/GB_runPatches1.xlsx
243	patches	True	n/a	790	0	n/a	n/a	0.0	0	left	n/a	n/a	n/a	1	0.0235536799952	blockFiles/set_26/main_PD/GB_runPatches1.xlsx
244	patches	True	n/a	790	0	n/a	n/a	0.0	1	left	n/a	n/a	n/a	0	-0.0703861564957	blockFiles/set_26/main_PD/GB_runPatches1.xlsx
245	patches	True	n/a	790	0	n/a	n/a	0.0	1	left	n/a	n/a	n/a	0	-0.0305415274203	blockFiles/set_26/main_PD/GB_runPatches1.xlsx
246	patches	True	n/a	790	0	n/a	n/a	0.0	1	left	n/a	n/a	n/a	0	-0.0290467318334	blockFiles/set_26/main_PD/GB_runPatches1.xlsx
247	patches	True	n/a	790	0	n/a	n/a	0.0	0	left	n/a	n/a	n/a	1	0.015088081024599999	blockFiles/set_26/main_PD/GB_runPatches1.xlsx
248	patches	True	n/a	790	0	n/a	n/a	0.0	1	left	n/a	n/a	n/a	0	-0.0674960804172	blockFiles/set_26/main_PD/GB_runPatches1.xlsx
249	patches	True	n/a	790	0	n/a	n/a	0.0	1	left	n/a	n/a	n/a	0	-0.014256660062799999	blockFiles/set_26/main_PD/GB_runPatches1.xlsx
250	patches	True	n/a	790	0	n/a	n/a	1.0	1	right	n/a	n/a	n/a	1	0.05138927452269999	blockFiles/set_26/main_PD/GB_runPatches1.xlsx
251	patches	True	n/a	790	0	n/a	n/a	0.0	1	left	n/a	n/a	n/a	0	-0.038636802546699996	blockFiles/set_26/main_PD/GB_runPatches1.xlsx
252	patches	True	n/a	790	0	n/a	n/a	0.0	1	left	n/a	n/a	n/a	0	-0.07133981568739999	blockFiles/set_26/main_PD/GB_runPatches1.xlsx
253	patches	True	n/a	790	0	n/a	n/a	0.0	0	left	n/a	n/a	n/a	1	0.0175380867161	blockFiles/set_26/main_PD/GB_runPatches1.xlsx
254	main_unc	True	0.0	790	0	0.0	0.0	1.0	1	right	2.0	0.0	0.0	1	0.022696320246900003	blockFiles/set_26/main_unc/leftBlue\GB_LB_1.xlsx
255	main_unc	True	1.0	790	0	0.0	0.0	n/a	0	None	n/a	0.0	n/a	1	0.014529284760399998	blockFiles/set_26/main_unc/leftBlue\GB_LB_1.xlsx
256	main_unc	True	0.0	790	0	0.0	0.0	0.0	0	left	1.0	0.0	1.0	1	0.013291998487	blockFiles/set_26/main_unc/leftBlue\GB_LB_1.xlsx
257	main_unc	True	0.0	790	0	0.0	0.0	1.0	1	right	1.0	1.0	1.0	1	0.0476071447507	blockFiles/set_26/main_unc/leftBlue\GB_LB_1.xlsx
258	main_unc	True	0.0	790	0	0.0	0.0	1.0	1	right	1.0	1.0	1.0	1	0.0483604976162	blockFiles/set_26/main_unc/leftBlue\GB_LB_1.xlsx
259	main_unc	True	0.0	790	0	0.0	0.0	0.0	1	left	2.0	1.0	1.0	0	-0.0288483565859	blockFiles/set_26/main_unc/leftBlue\GB_LB_1.xlsx
260	main_unc	True	0.0	790	0	0.0	0.0	1.0	1	right	1.0	1.0	1.0	1	0.0323152099364	blockFiles/set_26/main_unc/leftBlue\GB_LB_1.xlsx
261	main_unc	True	1.0	790	0	0.0	0.0	n/a	0	None	n/a	0.0	n/a	0	-0.042577940933400005	blockFiles/set_26/main_unc/leftBlue\GB_LB_1.xlsx
262	main_unc	True	0.0	790	0	0.0	0.0	0.0	1	left	2.0	1.0	1.0	0	-0.0636028210446	blockFiles/set_26/main_unc/leftBlue\GB_LB_1.xlsx
263	main_unc	True	0.0	790	0	0.0	0.0	1.0	0	right	1.0	0.0	0.0	0	-0.00768540620804	blockFiles/set_26/main_unc/leftBlue\GB_LB_1.xlsx
264	main_unc	True	0.0	790	0	0.0	0.0	1.0	1	right	1.0	1.0	1.0	1	0.0140638343617	blockFiles/set_26/main_unc/leftBlue\GB_LB_1.xlsx
265	main_unc	True	0.0	790	0	0.0	0.0	0.0	1	left	2.0	1.0	1.0	0	-0.0286195502058	blockFiles/set_26/main_unc/leftBlue\GB_LB_1.xlsx
266	main_unc	True	0.0	790	0	0.0	0.0	1.0	1	right	1.0	0.0	1.0	1	0.0676231784187	blockFiles/set_26/main_unc/leftBlue\GB_LB_1.xlsx
267	main_unc	True	0.0	790	0	0.0	0.0	0.0	1	left	2.0	1.0	1.0	0	-0.040666017849	blockFiles/set_26/main_unc/leftBlue\GB_LB_1.xlsx
268	main_unc	True	0.0	790	0	0.0	0.0	1.0	1	right	1.0	1.0	1.0	1	0.057047753427200004	blockFiles/set_26/main_unc/leftBlue\GB_LB_1.xlsx
269	main_unc	True	0.0	790	0	0.0	0.0	0.0	0	left	1.0	1.0	1.0	1	0.0164913641289	blockFiles/set_26/main_unc/leftBlue\GB_LB_1.xlsx
270	main_unc	True	0.0	790	0	0.0	0.0	0.0	1	left	1.0	0.0	0.0	0	-0.0632134577818	blockFiles/set_26/main_unc/leftBlue\GB_LB_1.xlsx
271	main_unc	True	0.0	790	0	0.0	0.0	1.0	1	right	2.0	0.0	0.0	1	0.0726216609217	blockFiles/set_26/main_unc/leftBlue\GB_LB_1.xlsx
272	main_unc	True	1.0	790	0	0.0	0.0	n/a	0	None	n/a	0.0	n/a	0	-0.021595281176299996	blockFiles/set_26/main_unc/leftBlue\GB_LB_1.xlsx
273	main_unc	True	0.0	790	0	0.0	0.0	0.0	0	left	2.0	0.0	0.0	1	0.024004338029800003	blockFiles/set_26/main_unc/leftBlue\GB_LB_1.xlsx
274	main_unc	True	1.0	790	0	0.0	0.0	0.0	0	left	n/a	0.0	n/a	1	0.0115065081418	blockFiles/set_26/main_unc/leftBlue\GB_LB_1.xlsx
275	main_unc	True	0.0	790	0	0.0	0.0	0.0	1	left	2.0	1.0	1.0	0	-0.023516328837700003	blockFiles/set_26/main_unc/leftBlue\GB_LB_1.xlsx
276	main_unc	True	0.0	790	0	0.0	0.0	0.0	1	left	2.0	1.0	1.0	0	-0.0221260851249	blockFiles/set_26/main_unc/leftBlue\GB_LB_1.xlsx
277	main_unc	True	0.0	790	0	0.0	0.0	0.0	1	left	2.0	1.0	1.0	0	-0.06731517933310001	blockFiles/set_26/main_unc/leftBlue\GB_LB_1.xlsx
278	main_unc	True	0.0	790	0	0.0	0.0	0.0	1	left	2.0	0.0	1.0	0	-0.0676742424257	blockFiles/set_26/main_unc/leftBlue\GB_LB_1.xlsx
279	main_unc	True	0.0	790	0	0.0	0.0	1.0	1	right	1.0	1.0	1.0	1	0.014529284760399998	blockFiles/set_26/main_unc/leftBlue\GB_LB_1.xlsx
280	main_unc	True	0.0	790	0	0.0	0.0	0.0	1	left	2.0	1.0	1.0	0	-0.042577940933400005	blockFiles/set_26/main_unc/leftBlue\GB_LB_1.xlsx
281	main_unc	True	0.0	790	0	0.0	0.0	0.0	1	left	2.0	0.0	1.0	0	-0.021595281176299996	blockFiles/set_26/main_unc/leftBlue\GB_LB_1.xlsx
282	main_unc	True	0.0	790	0	0.0	0.0	0.0	0	left	1.0	1.0	1.0	1	0.0115065081418	blockFiles/set_26/main_unc/leftBlue\GB_LB_1.xlsx
283	main_unc	True	0.0	790	0	1.0	1.0	0.0	1	left	1.0	1.0	1.0	0	-0.0027224889025100002	blockFiles/set_26/main_unc/rightBlue\GB_RB_2.xlsx
284	main_unc	True	0.0	790	0	1.0	1.0	1.0	1	right	2.0	0.0	1.0	1	0.052518582996	blockFiles/set_26/main_unc/rightBlue\GB_RB_2.xlsx
285	main_unc	True	0.0	790	0	1.0	1.0	1.0	1	right	2.0	1.0	1.0	1	0.0226119126379	blockFiles/set_26/main_unc/rightBlue\GB_RB_2.xlsx
286	main_unc	True	1.0	790	0	1.0	1.0	n/a	0	None	n/a	0.0	n/a	0	-0.027098952177900003	blockFiles/set_26/main_unc/rightBlue\GB_RB_2.xlsx
287	main_unc	True	0.0	790	0	1.0	1.0	1.0	1	right	2.0	0.0	1.0	1	0.0350138779171	blockFiles/set_26/main_unc/rightBlue\GB_RB_2.xlsx
288	main_unc	True	0.0	790	0	1.0	1.0	0.0	1	left	1.0	1.0	1.0	0	-0.043132342472699994	blockFiles/set_26/main_unc/rightBlue\GB_RB_2.xlsx
289	main_unc	True	0.0	790	0	1.0	1.0	0.0	1	left	1.0	1.0	1.0	0	-0.0421907569841	blockFiles/set_26/main_unc/rightBlue\GB_RB_2.xlsx
290	main_unc	True	0.0	790	0	1.0	1.0	0.0	1	left	1.0	0.0	1.0	0	-0.079745866973	blockFiles/set_26/main_unc/rightBlue\GB_RB_2.xlsx
291	main_unc	True	0.0	790	0	1.0	1.0	0.0	1	left	1.0	1.0	1.0	0	-0.029771118816	blockFiles/set_26/main_unc/rightBlue\GB_RB_2.xlsx
292	main_unc	True	0.0	790	0	1.0	1.0	0.0	1	left	1.0	1.0	1.0	0	-0.036118418499800006	blockFiles/set_26/main_unc/rightBlue\GB_RB_2.xlsx
293	main_unc	True	0.0	790	0	1.0	1.0	0.0	0	left	2.0	1.0	1.0	1	0.0067430372163699995	blockFiles/set_26/main_unc/rightBlue\GB_RB_2.xlsx
294	main_unc	True	0.0	790	0	1.0	1.0	1.0	1	right	2.0	1.0	1.0	1	0.0647251844592	blockFiles/set_26/main_unc/rightBlue\GB_RB_2.xlsx
295	main_unc	True	0.0	790	0	1.0	1.0	1.0	1	right	2.0	1.0	1.0	1	0.00929102137685	blockFiles/set_26/main_unc/rightBlue\GB_RB_2.xlsx
296	main_unc	True	0.0	790	0	1.0	1.0	0.0	1	left	1.0	1.0	1.0	0	-0.0393892314099	blockFiles/set_26/main_unc/rightBlue\GB_RB_2.xlsx
297	main_unc	True	0.0	790	0	1.0	1.0	1.0	1	right	2.0	1.0	1.0	1	0.045688417851900004	blockFiles/set_26/main_unc/rightBlue\GB_RB_2.xlsx
298	main_unc	True	0.0	790	0	1.0	1.0	1.0	1	right	2.0	1.0	1.0	1	0.0734703116864	blockFiles/set_26/main_unc/rightBlue\GB_RB_2.xlsx
299	main_unc	True	0.0	790	0	1.0	1.0	1.0	1	right	2.0	1.0	1.0	1	0.06135009743269999	blockFiles/set_26/main_unc/rightBlue\GB_RB_2.xlsx
300	main_unc	True	0.0	790	0	1.0	1.0	0.0	1	left	1.0	1.0	1.0	0	-0.048783707581500003	blockFiles/set_26/main_unc/rightBlue\GB_RB_2.xlsx
301	main_unc	True	0.0	790	0	1.0	1.0	1.0	0	right	2.0	0.0	0.0	0	-0.0053699207492200005	blockFiles/set_26/main_unc/rightBlue\GB_RB_2.xlsx
302	main_unc	True	0.0	790	0	1.0	1.0	0.0	1	left	1.0	0.0	1.0	0	-0.0533209810965	blockFiles/set_26/main_unc/rightBlue\GB_RB_2.xlsx
303	main_unc	True	0.0	790	0	1.0	1.0	0.0	1	left	1.0	1.0	1.0	0	-0.0275392588973	blockFiles/set_26/main_unc/rightBlue\GB_RB_2.xlsx
304	main_unc	True	0.0	790	0	1.0	1.0	0.0	1	left	1.0	1.0	1.0	0	-0.0240866838209	blockFiles/set_26/main_unc/rightBlue\GB_RB_2.xlsx
305	main_unc	True	0.0	790	0	1.0	1.0	1.0	1	right	2.0	1.0	1.0	1	0.0265146909095	blockFiles/set_26/main_unc/rightBlue\GB_RB_2.xlsx
306	main_unc	True	0.0	790	0	1.0	1.0	1.0	1	right	2.0	1.0	1.0	1	0.021423737704799998	blockFiles/set_26/main_unc/rightBlue\GB_RB_2.xlsx
307	main_unc	True	0.0	790	0	1.0	1.0	1.0	1	right	2.0	1.0	1.0	1	0.047023757062900004	blockFiles/set_26/main_unc/rightBlue\GB_RB_2.xlsx
308	main_unc	True	0.0	790	0	1.0	1.0	0.0	1	left	1.0	0.0	1.0	0	-0.027098952177900003	blockFiles/set_26/main_unc/rightBlue\GB_RB_2.xlsx
309	main_unc	True	0.0	790	0	2.0	2.0	1.0	1	right	1.0	0.0	0.0	1	0.0176842888072	blockFiles/set_26/main_unc/rightBlue\GB_RB_4.xlsx
310	main_unc	True	0.0	790	0	2.0	2.0	0.0	1	left	2.0	0.0	0.0	0	-0.0168348893709	blockFiles/set_26/main_unc/rightBlue\GB_RB_4.xlsx
311	main_unc	True	0.0	790	0	2.0	2.0	0.0	1	left	1.0	1.0	1.0	0	-0.022688310872800002	blockFiles/set_26/main_unc/rightBlue\GB_RB_4.xlsx
312	main_unc	True	0.0	790	0	2.0	2.0	0.0	1	left	1.0	1.0	1.0	0	-0.033884104471700004	blockFiles/set_26/main_unc/rightBlue\GB_RB_4.xlsx
313	main_unc	True	0.0	790	0	2.0	2.0	0.0	1	left	1.0	1.0	1.0	0	-0.0344006806426	blockFiles/set_26/main_unc/rightBlue\GB_RB_4.xlsx
314	main_unc	True	0.0	790	0	2.0	2.0	0.0	1	left	1.0	0.0	1.0	0	-0.0109419082664	blockFiles/set_26/main_unc/rightBlue\GB_RB_4.xlsx
315	main_unc	True	0.0	790	0	2.0	2.0	1.0	1	right	2.0	0.0	1.0	1	0.0698324682377	blockFiles/set_26/main_unc/rightBlue\GB_RB_4.xlsx
316	main_unc	True	0.0	790	0	2.0	2.0	1.0	1	right	2.0	1.0	1.0	1	0.054131304621699995	blockFiles/set_26/main_unc/rightBlue\GB_RB_4.xlsx
317	main_unc	True	0.0	790	0	2.0	2.0	0.0	1	left	1.0	0.0	1.0	0	-0.0202092841268	blockFiles/set_26/main_unc/rightBlue\GB_RB_4.xlsx
318	main_unc	True	0.0	790	0	2.0	2.0	0.0	1	left	1.0	1.0	1.0	0	-0.008399356119330001	blockFiles/set_26/main_unc/rightBlue\GB_RB_4.xlsx
319	main_unc	True	0.0	790	0	2.0	2.0	1.0	1	right	2.0	0.0	1.0	1	0.0541814218275	blockFiles/set_26/main_unc/rightBlue\GB_RB_4.xlsx
320	main_unc	True	0.0	790	0	2.0	2.0	0.0	1	left	1.0	1.0	1.0	0	-0.0271200159565	blockFiles/set_26/main_unc/rightBlue\GB_RB_4.xlsx
321	main_unc	True	0.0	790	0	2.0	2.0	0.0	1	left	1.0	1.0	1.0	0	-0.055520702153400006	blockFiles/set_26/main_unc/rightBlue\GB_RB_4.xlsx
322	main_unc	True	0.0	790	0	2.0	2.0	1.0	1	right	2.0	1.0	1.0	1	0.0611175185628	blockFiles/set_26/main_unc/rightBlue\GB_RB_4.xlsx
323	main_unc	True	0.0	790	0	2.0	2.0	1.0	1	right	2.0	1.0	1.0	1	0.0701022339053	blockFiles/set_26/main_unc/rightBlue\GB_RB_4.xlsx
324	main_unc	True	0.0	790	0	2.0	2.0	1.0	1	right	2.0	1.0	1.0	1	0.026593478862200003	blockFiles/set_26/main_unc/rightBlue\GB_RB_4.xlsx
325	main_unc	True	0.0	790	0	2.0	2.0	1.0	0	right	1.0	1.0	1.0	0	-0.017281582858400004	blockFiles/set_26/main_unc/rightBlue\GB_RB_4.xlsx
326	main_unc	True	0.0	790	0	2.0	2.0	0.0	1	left	1.0	1.0	1.0	0	-0.0325490448065	blockFiles/set_26/main_unc/rightBlue\GB_RB_4.xlsx
327	main_unc	True	0.0	790	0	2.0	2.0	1.0	1	right	2.0	1.0	1.0	1	0.0798773605563	blockFiles/set_26/main_unc/rightBlue\GB_RB_4.xlsx
328	main_unc	True	0.0	790	0	2.0	2.0	0.0	1	left	1.0	1.0	1.0	0	-0.0199461337365	blockFiles/set_26/main_unc/rightBlue\GB_RB_4.xlsx
329	main_unc	True	0.0	790	0	2.0	2.0	1.0	1	right	2.0	1.0	1.0	1	0.056133540365800004	blockFiles/set_26/main_unc/rightBlue\GB_RB_4.xlsx
330	main_unc	True	0.0	790	0	2.0	2.0	1.0	1	right	2.0	1.0	1.0	1	0.0528399170376	blockFiles/set_26/main_unc/rightBlue\GB_RB_4.xlsx
331	main_unc	True	0.0	790	0	2.0	2.0	0.0	0	left	2.0	0.0	1.0	1	0.0230222767405	blockFiles/set_26/main_unc/rightBlue\GB_RB_4.xlsx
332	main_unc	True	0.0	790	0	2.0	2.0	1.0	1	right	2.0	1.0	1.0	1	0.008271209318189999	blockFiles/set_26/main_unc/rightBlue\GB_RB_4.xlsx
333	main_unc	True	0.0	790	0	2.0	2.0	0.0	0	left	2.0	1.0	1.0	1	0.000987260248512	blockFiles/set_26/main_unc/rightBlue\GB_RB_4.xlsx
334	main_unc	True	0.0	790	0	3.0	3.0	1.0	1	right	1.0	0.0	0.0	1	0.027037554196999998	blockFiles/set_26/main_unc/rightBlue\GB_RB_6.xlsx
335	main_unc	True	0.0	790	0	3.0	3.0	0.0	1	left	2.0	0.0	0.0	0	-0.042544268201999996	blockFiles/set_26/main_unc/rightBlue\GB_RB_6.xlsx
336	main_unc	True	0.0	790	0	3.0	3.0	1.0	1	right	2.0	1.0	1.0	1	0.0511335042119	blockFiles/set_26/main_unc/rightBlue\GB_RB_6.xlsx
337	main_unc	True	0.0	790	0	3.0	3.0	0.0	1	left	1.0	1.0	1.0	0	-0.022044233530799998	blockFiles/set_26/main_unc/rightBlue\GB_RB_6.xlsx
338	main_unc	True	0.0	790	0	3.0	3.0	0.0	1	left	1.0	1.0	1.0	0	-0.0482725084573	blockFiles/set_26/main_unc/rightBlue\GB_RB_6.xlsx
339	main_unc	True	0.0	790	0	3.0	3.0	0.0	1	left	1.0	1.0	1.0	0	-0.04665590008719999	blockFiles/set_26/main_unc/rightBlue\GB_RB_6.xlsx
340	main_unc	True	0.0	790	0	3.0	3.0	1.0	1	right	2.0	1.0	1.0	1	0.0313094363548	blockFiles/set_26/main_unc/rightBlue\GB_RB_6.xlsx
341	main_unc	True	0.0	790	0	3.0	3.0	1.0	1	right	2.0	0.0	1.0	1	0.0183650482446	blockFiles/set_26/main_unc/rightBlue\GB_RB_6.xlsx
342	main_unc	True	0.0	790	0	3.0	3.0	1.0	1	right	2.0	1.0	1.0	1	0.0527659886703	blockFiles/set_26/main_unc/rightBlue\GB_RB_6.xlsx
343	main_unc	True	0.0	790	0	3.0	3.0	0.0	1	left	1.0	0.0	1.0	0	-0.049073526859300005	blockFiles/set_26/main_unc/rightBlue\GB_RB_6.xlsx
344	main_unc	True	0.0	790	0	3.0	3.0	1.0	1	right	2.0	1.0	1.0	1	0.056206745542599995	blockFiles/set_26/main_unc/rightBlue\GB_RB_6.xlsx
345	main_unc	True	0.0	790	0	3.0	3.0	1.0	1	right	2.0	1.0	1.0	1	0.0352871468849	blockFiles/set_26/main_unc/rightBlue\GB_RB_6.xlsx
346	main_unc	True	0.0	790	0	3.0	3.0	1.0	1	right	2.0	0.0	1.0	1	0.00805910933763	blockFiles/set_26/main_unc/rightBlue\GB_RB_6.xlsx
347	main_unc	True	0.0	790	0	3.0	3.0	0.0	0	left	2.0	1.0	1.0	1	0.031443772539499995	blockFiles/set_26/main_unc/rightBlue\GB_RB_6.xlsx
348	main_unc	True	0.0	790	0	3.0	3.0	0.0	1	left	1.0	1.0	1.0	0	-0.057416002322000004	blockFiles/set_26/main_unc/rightBlue\GB_RB_6.xlsx
349	main_unc	True	0.0	790	0	3.0	3.0	0.0	1	left	1.0	1.0	1.0	0	-0.058573417253800004	blockFiles/set_26/main_unc/rightBlue\GB_RB_6.xlsx
350	main_unc	True	0.0	790	0	3.0	3.0	0.0	1	left	1.0	1.0	1.0	0	-0.0102066234127	blockFiles/set_26/main_unc/rightBlue\GB_RB_6.xlsx
351	main_unc	True	0.0	790	0	3.0	3.0	1.0	1	right	2.0	1.0	1.0	1	0.0698743460141	blockFiles/set_26/main_unc/rightBlue\GB_RB_6.xlsx
352	main_unc	True	0.0	790	0	3.0	3.0	0.0	1	left	1.0	1.0	1.0	0	-0.0179216896556	blockFiles/set_26/main_unc/rightBlue\GB_RB_6.xlsx
353	main_unc	True	0.0	790	0	3.0	3.0	0.0	1	left	1.0	1.0	1.0	0	-0.0152378701046	blockFiles/set_26/main_unc/rightBlue\GB_RB_6.xlsx
354	main_unc	True	0.0	790	0	3.0	3.0	0.0	1	left	1.0	0.0	1.0	0	-0.0441265654005	blockFiles/set_26/main_unc/rightBlue\GB_RB_6.xlsx
355	main_unc	True	0.0	790	0	3.0	3.0	0.0	0	left	1.0	0.0	0.0	1	0.0014227309823000001	blockFiles/set_26/main_unc/rightBlue\GB_RB_6.xlsx
356	main_unc	True	0.0	790	0	3.0	3.0	0.0	0	left	2.0	1.0	1.0	1	0.0786620163359	blockFiles/set_26/main_unc/rightBlue\GB_RB_6.xlsx
357	main_unc	True	0.0	790	0	3.0	3.0	1.0	1	right	2.0	1.0	1.0	1	0.0326751403138	blockFiles/set_26/main_unc/rightBlue\GB_RB_6.xlsx
358	main_unc	True	0.0	790	0	3.0	3.0	0.0	1	left	1.0	1.0	1.0	0	-0.0488186213933	blockFiles/set_26/main_unc/rightBlue\GB_RB_6.xlsx
359	main_unc	True	0.0	790	0	4.0	4.0	0.0	1	left	2.0	1.0	1.0	0	-0.0748405082338	blockFiles/set_26/main_unc/leftBlue\GB_LB_5.xlsx
360	main_unc	True	0.0	790	0	4.0	4.0	1.0	1	right	1.0	1.0	1.0	1	0.07557368977000001	blockFiles/set_26/main_unc/leftBlue\GB_LB_5.xlsx
361	main_unc	True	0.0	790	0	4.0	4.0	1.0	1	right	1.0	0.0	1.0	1	0.0249540631659	blockFiles/set_26/main_unc/leftBlue\GB_LB_5.xlsx
362	main_unc	True	0.0	790	0	4.0	4.0	1.0	1	right	1.0	1.0	1.0	1	0.06856532538309999	blockFiles/set_26/main_unc/leftBlue\GB_LB_5.xlsx
363	main_unc	True	0.0	790	0	4.0	4.0	1.0	0	right	2.0	1.0	1.0	0	-0.021517377588900002	blockFiles/set_26/main_unc/leftBlue\GB_LB_5.xlsx
364	main_unc	True	0.0	790	0	4.0	4.0	0.0	1	left	2.0	1.0	1.0	0	-0.0132842672244	blockFiles/set_26/main_unc/leftBlue\GB_LB_5.xlsx
365	main_unc	True	0.0	790	0	4.0	4.0	0.0	1	left	2.0	0.0	1.0	0	-0.0489672102965	blockFiles/set_26/main_unc/leftBlue\GB_LB_5.xlsx
366	main_unc	True	0.0	790	0	4.0	4.0	0.0	1	left	2.0	1.0	1.0	0	-0.045347385071199994	blockFiles/set_26/main_unc/leftBlue\GB_LB_5.xlsx
367	main_unc	True	0.0	790	0	4.0	4.0	1.0	1	right	1.0	1.0	1.0	1	0.0595406624675	blockFiles/set_26/main_unc/leftBlue\GB_LB_5.xlsx
368	main_unc	True	1.0	790	0	4.0	4.0	n/a	0	None	n/a	0.0	n/a	0	-0.0192072778381	blockFiles/set_26/main_unc/leftBlue\GB_LB_5.xlsx
369	main_unc	True	0.0	790	0	4.0	4.0	1.0	1	right	1.0	1.0	1.0	1	0.0783740973845	blockFiles/set_26/main_unc/leftBlue\GB_LB_5.xlsx
370	main_unc	True	0.0	790	0	4.0	4.0	1.0	1	right	1.0	1.0	1.0	1	0.0743202554807	blockFiles/set_26/main_unc/leftBlue\GB_LB_5.xlsx
371	main_unc	True	0.0	790	0	4.0	4.0	1.0	1	right	1.0	0.0	1.0	1	0.0032472747750599998	blockFiles/set_26/main_unc/leftBlue\GB_LB_5.xlsx
372	main_unc	True	0.0	790	0	4.0	4.0	1.0	1	right	1.0	1.0	1.0	1	0.0428149743006	blockFiles/set_26/main_unc/leftBlue\GB_LB_5.xlsx
373	main_unc	True	0.0	790	0	4.0	4.0	0.0	1	left	2.0	1.0	1.0	0	-0.0307234033756	blockFiles/set_26/main_unc/leftBlue\GB_LB_5.xlsx
374	main_unc	True	0.0	790	0	4.0	4.0	1.0	1	right	1.0	1.0	1.0	1	0.0498588103056	blockFiles/set_26/main_unc/leftBlue\GB_LB_5.xlsx
375	main_unc	True	0.0	790	0	4.0	4.0	0.0	1	left	2.0	1.0	1.0	0	-0.013356120027600001	blockFiles/set_26/main_unc/leftBlue\GB_LB_5.xlsx
376	main_unc	True	0.0	790	0	4.0	4.0	0.0	1	left	2.0	1.0	1.0	0	-0.0609341555834	blockFiles/set_26/main_unc/leftBlue\GB_LB_5.xlsx
377	main_unc	True	0.0	790	0	4.0	4.0	1.0	0	right	1.0	0.0	0.0	0	-0.024260076247200002	blockFiles/set_26/main_unc/leftBlue\GB_LB_5.xlsx
378	main_unc	True	0.0	790	0	4.0	4.0	0.0	1	left	2.0	1.0	1.0	0	-0.0440603969432	blockFiles/set_26/main_unc/leftBlue\GB_LB_5.xlsx
379	main_unc	True	0.0	790	0	4.0	4.0	0.0	1	left	2.0	0.0	1.0	0	-0.032486997675200004	blockFiles/set_26/main_unc/leftBlue\GB_LB_5.xlsx
380	main_unc	True	0.0	790	0	4.0	4.0	1.0	1	right	1.0	1.0	1.0	1	0.062229265049099994	blockFiles/set_26/main_unc/leftBlue\GB_LB_5.xlsx
381	main_unc	True	0.0	790	0	4.0	4.0	1.0	1	right	1.0	1.0	1.0	1	0.0559006375261	blockFiles/set_26/main_unc/leftBlue\GB_LB_5.xlsx
382	main_unc	True	0.0	790	0	4.0	4.0	0.0	1	left	2.0	1.0	1.0	0	-0.034493973814	blockFiles/set_26/main_unc/leftBlue\GB_LB_5.xlsx
383	main_unc	True	0.0	790	0	4.0	4.0	0.0	1	left	2.0	1.0	1.0	0	-0.0205818198435	blockFiles/set_26/main_unc/leftBlue\GB_LB_5.xlsx
384	main_unc	True	0.0	790	0	4.0	4.0	0.0	1	left	2.0	1.0	1.0	0	-0.0192072778381	blockFiles/set_26/main_unc/leftBlue\GB_LB_5.xlsx
385	main_unc	True	0.0	790	0	5.0	5.0	0.0	1	left	2.0	1.0	1.0	0	-0.0464527104609	blockFiles/set_26/main_unc/leftBlue\GB_LB_2.xlsx
386	main_unc	True	0.0	790	0	5.0	5.0	0.0	1	left	2.0	1.0	1.0	0	-0.000474483873695	blockFiles/set_26/main_unc/leftBlue\GB_LB_2.xlsx
387	main_unc	True	0.0	790	0	5.0	5.0	1.0	1	right	1.0	0.0	1.0	1	0.056084901932600004	blockFiles/set_26/main_unc/leftBlue\GB_LB_2.xlsx
388	main_unc	True	0.0	790	0	5.0	5.0	1.0	1	right	1.0	0.0	1.0	1	0.0688200878724	blockFiles/set_26/main_unc/leftBlue\GB_LB_2.xlsx
389	main_unc	True	0.0	790	0	5.0	5.0	0.0	0	left	2.0	0.0	0.0	1	0.00697932440788	blockFiles/set_26/main_unc/leftBlue\GB_LB_2.xlsx
390	main_unc	True	0.0	790	0	5.0	5.0	0.0	0	left	2.0	0.0	0.0	1	0.00756135802716	blockFiles/set_26/main_unc/leftBlue\GB_LB_2.xlsx
391	main_unc	True	0.0	790	0	5.0	5.0	1.0	1	right	2.0	0.0	0.0	1	0.049442377183600006	blockFiles/set_26/main_unc/leftBlue\GB_LB_2.xlsx
392	main_unc	True	0.0	790	0	5.0	5.0	1.0	1	right	1.0	1.0	1.0	1	0.0581774135306	blockFiles/set_26/main_unc/leftBlue\GB_LB_2.xlsx
393	main_unc	True	0.0	790	0	5.0	5.0	0.0	1	left	2.0	0.0	1.0	0	-0.018170443270400002	blockFiles/set_26/main_unc/leftBlue\GB_LB_2.xlsx
394	main_unc	True	0.0	790	0	5.0	5.0	0.0	1	left	2.0	1.0	1.0	0	-0.0628359434567	blockFiles/set_26/main_unc/leftBlue\GB_LB_2.xlsx
395	main_unc	True	0.0	790	0	5.0	5.0	0.0	1	left	2.0	1.0	1.0	0	-0.0131199075468	blockFiles/set_26/main_unc/leftBlue\GB_LB_2.xlsx
396	main_unc	True	0.0	790	0	5.0	5.0	1.0	1	right	1.0	1.0	1.0	1	0.058164272960299995	blockFiles/set_26/main_unc/leftBlue\GB_LB_2.xlsx
397	main_unc	True	0.0	790	0	5.0	5.0	1.0	1	right	1.0	1.0	1.0	1	0.045315695162899995	blockFiles/set_26/main_unc/leftBlue\GB_LB_2.xlsx
398	main_unc	True	0.0	790	0	5.0	5.0	0.0	1	left	2.0	0.0	1.0	0	-0.018194935806099998	blockFiles/set_26/main_unc/leftBlue\GB_LB_2.xlsx
399	main_unc	True	0.0	790	0	5.0	5.0	0.0	1	left	2.0	1.0	1.0	0	-0.0655092409998	blockFiles/set_26/main_unc/leftBlue\GB_LB_2.xlsx
400	main_unc	True	0.0	790	0	5.0	5.0	0.0	1	left	2.0	1.0	1.0	0	-0.0737341203354	blockFiles/set_26/main_unc/leftBlue\GB_LB_2.xlsx
401	main_unc	True	0.0	790	0	5.0	5.0	0.0	1	left	1.0	0.0	0.0	0	-0.022380693629400004	blockFiles/set_26/main_unc/leftBlue\GB_LB_2.xlsx
402	main_unc	True	1.0	790	0	5.0	5.0	n/a	0	None	n/a	0.0	n/a	1	0.00274489501491	blockFiles/set_26/main_unc/leftBlue\GB_LB_2.xlsx
403	main_unc	True	0.0	790	0	5.0	5.0	1.0	1	right	1.0	1.0	1.0	1	0.059848923701800005	blockFiles/set_26/main_unc/leftBlue\GB_LB_2.xlsx
404	main_unc	True	0.0	790	0	5.0	5.0	0.0	1	left	2.0	1.0	1.0	0	-0.053022920079500005	blockFiles/set_26/main_unc/leftBlue\GB_LB_2.xlsx
405	main_unc	True	0.0	790	0	5.0	5.0	1.0	1	right	1.0	1.0	1.0	1	0.03591494238	blockFiles/set_26/main_unc/leftBlue\GB_LB_2.xlsx
406	main_unc	True	0.0	790	0	5.0	5.0	1.0	0	right	2.0	1.0	1.0	0	-0.020289209112499998	blockFiles/set_26/main_unc/leftBlue\GB_LB_2.xlsx
407	main_unc	True	0.0	790	0	5.0	5.0	1.0	1	right	1.0	0.0	1.0	1	0.039271254465	blockFiles/set_26/main_unc/leftBlue\GB_LB_2.xlsx
408	main_unc	True	0.0	790	0	5.0	5.0	0.0	1	left	2.0	1.0	1.0	0	-0.0614636744186	blockFiles/set_26/main_unc/leftBlue\GB_LB_2.xlsx
409	main_unc	True	0.0	790	0	5.0	5.0	0.0	0	left	1.0	1.0	1.0	1	0.03218035236	blockFiles/set_26/main_unc/leftBlue\GB_LB_2.xlsx
410	main_unc	True	0.0	790	0	5.0	5.0	0.0	0	left	2.0	0.0	0.0	1	0.00274489501491	blockFiles/set_26/main_unc/leftBlue\GB_LB_2.xlsx
411	main_unc	True	0.0	790	0	6.0	6.0	0.0	1	left	1.0	1.0	1.0	0	-0.0745889642648	blockFiles/set_26/main_unc/rightBlue\GB_RB_3.xlsx
412	main_unc	True	0.0	790	0	6.0	6.0	0.0	0	left	2.0	1.0	1.0	1	0.03469418028369999	blockFiles/set_26/main_unc/rightBlue\GB_RB_3.xlsx
413	main_unc	True	0.0	790	0	6.0	6.0	1.0	1	right	2.0	1.0	1.0	1	0.0765410177782	blockFiles/set_26/main_unc/rightBlue\GB_RB_3.xlsx
414	main_unc	True	1.0	790	0	6.0	6.0	n/a	0	None	n/a	0.0	n/a	1	0.021249761357900004	blockFiles/set_26/main_unc/rightBlue\GB_RB_3.xlsx
415	main_unc	True	0.0	790	0	6.0	6.0	1.0	1	right	2.0	1.0	1.0	1	0.048548875097199996	blockFiles/set_26/main_unc/rightBlue\GB_RB_3.xlsx
416	main_unc	True	0.0	790	0	6.0	6.0	0.0	0	left	1.0	1.0	0.0	1	0.00228174351156	blockFiles/set_26/main_unc/rightBlue\GB_RB_3.xlsx
417	main_unc	True	0.0	790	0	6.0	6.0	1.0	1	right	2.0	1.0	1.0	1	0.0652672625147	blockFiles/set_26/main_unc/rightBlue\GB_RB_3.xlsx
418	main_unc	True	0.0	790	0	6.0	6.0	0.0	1	left	1.0	1.0	1.0	0	-0.028801269866499998	blockFiles/set_26/main_unc/rightBlue\GB_RB_3.xlsx
419	main_unc	True	0.0	790	0	6.0	6.0	1.0	0	right	2.0	1.0	0.0	0	-0.0016172324679800002	blockFiles/set_26/main_unc/rightBlue\GB_RB_3.xlsx
420	main_unc	True	0.0	790	0	6.0	6.0	0.0	1	left	1.0	1.0	1.0	0	-0.07931184660639999	blockFiles/set_26/main_unc/rightBlue\GB_RB_3.xlsx
421	main_unc	True	0.0	790	0	6.0	6.0	0.0	1	left	1.0	1.0	1.0	0	-0.048264137581000004	blockFiles/set_26/main_unc/rightBlue\GB_RB_3.xlsx
422	main_unc	True	0.0	790	0	6.0	6.0	1.0	1	right	2.0	1.0	1.0	1	0.0668770577945	blockFiles/set_26/main_unc/rightBlue\GB_RB_3.xlsx
423	main_unc	True	0.0	790	0	6.0	6.0	0.0	1	left	1.0	1.0	1.0	0	-0.058384476769699996	blockFiles/set_26/main_unc/rightBlue\GB_RB_3.xlsx
424	main_unc	True	0.0	790	0	6.0	6.0	0.0	0	left	1.0	0.0	0.0	1	0.005359484441579999	blockFiles/set_26/main_unc/rightBlue\GB_RB_3.xlsx
425	main_unc	True	0.0	790	0	6.0	6.0	1.0	1	right	2.0	1.0	1.0	1	0.042496312391	blockFiles/set_26/main_unc/rightBlue\GB_RB_3.xlsx
426	main_unc	True	0.0	790	0	6.0	6.0	0.0	1	left	1.0	1.0	1.0	0	-0.0694044357352	blockFiles/set_26/main_unc/rightBlue\GB_RB_3.xlsx
427	main_unc	True	0.0	790	0	6.0	6.0	0.0	1	left	1.0	0.0	1.0	0	-0.00239237351343	blockFiles/set_26/main_unc/rightBlue\GB_RB_3.xlsx
428	main_unc	True	0.0	790	0	6.0	6.0	0.0	1	left	1.0	1.0	1.0	0	-0.058444589898	blockFiles/set_26/main_unc/rightBlue\GB_RB_3.xlsx
429	main_unc	True	0.0	790	0	6.0	6.0	0.0	1	left	1.0	1.0	1.0	0	-0.043254454042800004	blockFiles/set_26/main_unc/rightBlue\GB_RB_3.xlsx
430	main_unc	True	0.0	790	0	6.0	6.0	0.0	1	left	1.0	0.0	1.0	0	-0.0372138165683	blockFiles/set_26/main_unc/rightBlue\GB_RB_3.xlsx
431	main_unc	True	0.0	790	0	6.0	6.0	0.0	1	left	1.0	1.0	1.0	0	-0.014508538264799998	blockFiles/set_26/main_unc/rightBlue\GB_RB_3.xlsx
432	main_unc	True	0.0	790	0	6.0	6.0	0.0	1	left	1.0	1.0	1.0	0	-0.0343653454445	blockFiles/set_26/main_unc/rightBlue\GB_RB_3.xlsx
433	main_unc	True	0.0	790	0	6.0	6.0	0.0	1	left	1.0	0.0	1.0	0	-0.0370515189134	blockFiles/set_26/main_unc/rightBlue\GB_RB_3.xlsx
434	main_unc	True	0.0	790	0	6.0	6.0	1.0	1	right	2.0	1.0	1.0	1	0.0350273922458	blockFiles/set_26/main_unc/rightBlue\GB_RB_3.xlsx
435	main_unc	True	0.0	790	0	6.0	6.0	0.0	0	left	2.0	1.0	1.0	1	0.0454851996899	blockFiles/set_26/main_unc/rightBlue\GB_RB_3.xlsx
436	main_unc	True	0.0	790	0	6.0	6.0	0.0	0	left	2.0	1.0	1.0	1	0.021249761357900004	blockFiles/set_26/main_unc/rightBlue\GB_RB_3.xlsx
437	main_unc	True	0.0	790	0	7.0	7.0	0.0	1	left	1.0	0.0	0.0	0	-0.024506471827599997	blockFiles/set_26/main_unc/leftBlue\GB_LB_4.xlsx
438	main_unc	True	0.0	790	0	7.0	7.0	0.0	1	left	1.0	0.0	0.0	0	-0.0612826729193	blockFiles/set_26/main_unc/leftBlue\GB_LB_4.xlsx
439	main_unc	True	0.0	790	0	7.0	7.0	1.0	1	right	1.0	1.0	1.0	1	0.056971281450199994	blockFiles/set_26/main_unc/leftBlue\GB_LB_4.xlsx
440	main_unc	True	0.0	790	0	7.0	7.0	0.0	1	left	2.0	1.0	1.0	0	-0.0398822565936	blockFiles/set_26/main_unc/leftBlue\GB_LB_4.xlsx
441	main_unc	True	1.0	790	0	7.0	7.0	n/a	0	None	n/a	0.0	n/a	1	0.028262731228	blockFiles/set_26/main_unc/leftBlue\GB_LB_4.xlsx
442	main_unc	True	0.0	790	0	7.0	7.0	1.0	1	right	1.0	1.0	1.0	1	0.0340095317736	blockFiles/set_26/main_unc/leftBlue\GB_LB_4.xlsx
443	main_unc	True	0.0	790	0	7.0	7.0	1.0	1	right	1.0	1.0	1.0	1	0.0699766516127	blockFiles/set_26/main_unc/leftBlue\GB_LB_4.xlsx
444	main_unc	True	0.0	790	0	7.0	7.0	0.0	1	left	2.0	1.0	1.0	0	-0.0424597604573	blockFiles/set_26/main_unc/leftBlue\GB_LB_4.xlsx
445	main_unc	True	0.0	790	0	7.0	7.0	0.0	1	left	2.0	1.0	1.0	0	-0.043519414123099995	blockFiles/set_26/main_unc/leftBlue\GB_LB_4.xlsx
446	main_unc	True	0.0	790	0	7.0	7.0	1.0	1	right	1.0	1.0	1.0	1	0.0676357594505	blockFiles/set_26/main_unc/leftBlue\GB_LB_4.xlsx
447	main_unc	True	0.0	790	0	7.0	7.0	1.0	1	right	1.0	1.0	1.0	1	0.0485579661094	blockFiles/set_26/main_unc/leftBlue\GB_LB_4.xlsx
448	main_unc	True	0.0	790	0	7.0	7.0	1.0	1	right	1.0	1.0	1.0	1	0.017805447429400004	blockFiles/set_26/main_unc/leftBlue\GB_LB_4.xlsx
449	main_unc	True	0.0	790	0	7.0	7.0	0.0	0	left	1.0	1.0	1.0	1	0.0205875122175	blockFiles/set_26/main_unc/leftBlue\GB_LB_4.xlsx
450	main_unc	True	0.0	790	0	7.0	7.0	0.0	1	left	2.0	0.0	1.0	0	-0.0531074139662	blockFiles/set_26/main_unc/leftBlue\GB_LB_4.xlsx
451	main_unc	True	1.0	790	0	7.0	7.0	n/a	0	None	n/a	0.0	n/a	0	-0.005856267418710001	blockFiles/set_26/main_unc/leftBlue\GB_LB_4.xlsx
452	main_unc	True	0.0	790	0	7.0	7.0	1.0	1	right	1.0	0.0	1.0	1	0.0584320556559	blockFiles/set_26/main_unc/leftBlue\GB_LB_4.xlsx
453	main_unc	True	0.0	790	0	7.0	7.0	0.0	0	left	2.0	0.0	0.0	1	0.011316357925499999	blockFiles/set_26/main_unc/leftBlue\GB_LB_4.xlsx
454	main_unc	True	0.0	790	0	7.0	7.0	0.0	1	left	2.0	1.0	1.0	0	-0.062558190655	blockFiles/set_26/main_unc/leftBlue\GB_LB_4.xlsx
455	main_unc	True	0.0	790	0	7.0	7.0	0.0	1	left	2.0	0.0	1.0	0	-0.0703401984088	blockFiles/set_26/main_unc/leftBlue\GB_LB_4.xlsx
456	main_unc	True	0.0	790	0	7.0	7.0	0.0	0	left	1.0	1.0	1.0	1	0.00504888309166	blockFiles/set_26/main_unc/leftBlue\GB_LB_4.xlsx
457	main_unc	True	0.0	790	0	7.0	7.0	0.0	1	left	2.0	0.0	1.0	0	-0.0406101286598	blockFiles/set_26/main_unc/leftBlue\GB_LB_4.xlsx
458	main_unc	True	0.0	790	0	7.0	7.0	1.0	1	right	1.0	0.0	1.0	1	0.0365243342891	blockFiles/set_26/main_unc/leftBlue\GB_LB_4.xlsx
459	main_unc	True	0.0	790	0	7.0	7.0	0.0	1	left	2.0	1.0	1.0	0	-0.0537311944552	blockFiles/set_26/main_unc/leftBlue\GB_LB_4.xlsx
460	main_unc	True	0.0	790	0	7.0	7.0	0.0	1	left	2.0	1.0	1.0	0	-0.0537912334688	blockFiles/set_26/main_unc/leftBlue\GB_LB_4.xlsx
461	main_unc	True	0.0	790	0	7.0	7.0	0.0	1	left	2.0	1.0	1.0	0	-0.0530480590649	blockFiles/set_26/main_unc/leftBlue\GB_LB_4.xlsx
462	main_unc	True	0.0	790	0	7.0	7.0	1.0	1	right	1.0	1.0	1.0	1	0.028262731228	blockFiles/set_26/main_unc/leftBlue\GB_LB_4.xlsx
463	main_unc	True	0.0	790	0	7.0	7.0	0.0	1	left	2.0	1.0	1.0	0	-0.005856267418710001	blockFiles/set_26/main_unc/leftBlue\GB_LB_4.xlsx
464	main_unc	True	0.0	790	0	8.0	8.0	1.0	1	right	2.0	1.0	1.0	1	0.0253376435488	blockFiles/set_26/main_unc/rightBlue\GB_RB_1.xlsx
465	main_unc	True	0.0	790	0	8.0	8.0	0.0	1	left	1.0	1.0	1.0	0	-0.07735517233610001	blockFiles/set_26/main_unc/rightBlue\GB_RB_1.xlsx
466	main_unc	True	0.0	790	0	8.0	8.0	0.0	1	left	1.0	1.0	1.0	0	-0.0336604465172	blockFiles/set_26/main_unc/rightBlue\GB_RB_1.xlsx
467	main_unc	True	0.0	790	0	8.0	8.0	1.0	1	right	2.0	1.0	1.0	1	0.05010367993269999	blockFiles/set_26/main_unc/rightBlue\GB_RB_1.xlsx
468	main_unc	True	0.0	790	0	8.0	8.0	0.0	1	left	1.0	1.0	1.0	0	-0.042572565116	blockFiles/set_26/main_unc/rightBlue\GB_RB_1.xlsx
469	main_unc	True	0.0	790	0	8.0	8.0	0.0	1	left	1.0	0.0	1.0	0	-0.0286918671429	blockFiles/set_26/main_unc/rightBlue\GB_RB_1.xlsx
470	main_unc	True	0.0	790	0	8.0	8.0	0.0	0	left	2.0	1.0	1.0	1	0.0418750301562	blockFiles/set_26/main_unc/rightBlue\GB_RB_1.xlsx
471	main_unc	True	0.0	790	0	8.0	8.0	1.0	1	right	2.0	0.0	1.0	1	0.0448567277007	blockFiles/set_26/main_unc/rightBlue\GB_RB_1.xlsx
472	main_unc	True	0.0	790	0	8.0	8.0	1.0	0	right	2.0	1.0	0.0	0	-0.0201288012415	blockFiles/set_26/main_unc/rightBlue\GB_RB_1.xlsx
473	main_unc	True	0.0	790	0	8.0	8.0	0.0	1	left	1.0	1.0	1.0	0	-0.0663791358843	blockFiles/set_26/main_unc/rightBlue\GB_RB_1.xlsx
474	main_unc	True	0.0	790	0	8.0	8.0	0.0	1	left	1.0	1.0	1.0	0	-0.040999520886699996	blockFiles/set_26/main_unc/rightBlue\GB_RB_1.xlsx
475	main_unc	True	1.0	790	0	8.0	8.0	n/a	0	None	n/a	0.0	n/a	0	-0.0169121418335	blockFiles/set_26/main_unc/rightBlue\GB_RB_1.xlsx
476	main_unc	True	0.0	790	0	8.0	8.0	1.0	1	right	2.0	1.0	1.0	1	0.0527540261857	blockFiles/set_26/main_unc/rightBlue\GB_RB_1.xlsx
477	main_unc	True	0.0	790	0	8.0	8.0	1.0	1	right	2.0	1.0	1.0	1	0.0798901884258	blockFiles/set_26/main_unc/rightBlue\GB_RB_1.xlsx
478	main_unc	True	0.0	790	0	8.0	8.0	0.0	1	left	1.0	1.0	1.0	0	-0.05389126468449999	blockFiles/set_26/main_unc/rightBlue\GB_RB_1.xlsx
479	main_unc	True	0.0	790	0	8.0	8.0	1.0	1	right	1.0	0.0	0.0	1	0.000258277878165	blockFiles/set_26/main_unc/rightBlue\GB_RB_1.xlsx
480	main_unc	True	0.0	790	0	8.0	8.0	1.0	1	right	2.0	1.0	1.0	1	0.06022717788819999	blockFiles/set_26/main_unc/rightBlue\GB_RB_1.xlsx
481	main_unc	True	0.0	790	0	8.0	8.0	0.0	1	left	1.0	1.0	1.0	0	-0.0644352465123	blockFiles/set_26/main_unc/rightBlue\GB_RB_1.xlsx
482	main_unc	True	0.0	790	0	8.0	8.0	0.0	1	left	1.0	1.0	1.0	0	-0.0221671841107	blockFiles/set_26/main_unc/rightBlue\GB_RB_1.xlsx
483	main_unc	True	0.0	790	0	8.0	8.0	0.0	1	left	1.0	1.0	1.0	0	-0.06556487854569999	blockFiles/set_26/main_unc/rightBlue\GB_RB_1.xlsx
484	main_unc	True	0.0	790	0	8.0	8.0	1.0	1	right	2.0	0.0	1.0	1	0.002469777558	blockFiles/set_26/main_unc/rightBlue\GB_RB_1.xlsx
485	main_unc	True	0.0	790	0	8.0	8.0	0.0	1	left	1.0	1.0	1.0	0	-0.07964049721139999	blockFiles/set_26/main_unc/rightBlue\GB_RB_1.xlsx
486	main_unc	True	0.0	790	0	8.0	8.0	1.0	1	right	2.0	0.0	1.0	1	0.047749601211400004	blockFiles/set_26/main_unc/rightBlue\GB_RB_1.xlsx
487	main_unc	True	0.0	790	0	8.0	8.0	0.0	1	left	1.0	1.0	1.0	0	-0.00141648992896	blockFiles/set_26/main_unc/rightBlue\GB_RB_1.xlsx
488	main_unc	True	0.0	790	0	8.0	8.0	1.0	1	right	2.0	1.0	1.0	1	0.0653489542194	blockFiles/set_26/main_unc/rightBlue\GB_RB_1.xlsx
489	main_unc	True	0.0	790	0	8.0	8.0	0.0	1	left	2.0	0.0	0.0	0	-0.0169121418335	blockFiles/set_26/main_unc/rightBlue\GB_RB_1.xlsx
490	main_unc	True	0.0	790	0	9.0	9.0	0.0	1	left	1.0	0.0	0.0	0	-0.0656689360552	blockFiles/set_26/main_unc/leftBlue\GB_LB_6.xlsx
491	main_unc	True	0.0	790	0	9.0	9.0	0.0	1	left	2.0	1.0	1.0	0	-0.0575581406429	blockFiles/set_26/main_unc/leftBlue\GB_LB_6.xlsx
492	main_unc	True	0.0	790	0	9.0	9.0	0.0	1	left	2.0	0.0	1.0	0	-0.0481910942122	blockFiles/set_26/main_unc/leftBlue\GB_LB_6.xlsx
493	main_unc	True	0.0	790	0	9.0	9.0	1.0	1	right	1.0	1.0	1.0	1	0.0029133504256599997	blockFiles/set_26/main_unc/leftBlue\GB_LB_6.xlsx
494	main_unc	True	0.0	790	0	9.0	9.0	1.0	1	right	1.0	1.0	1.0	1	0.048611151575999996	blockFiles/set_26/main_unc/leftBlue\GB_LB_6.xlsx
495	main_unc	True	0.0	790	0	9.0	9.0	0.0	1	left	2.0	1.0	1.0	0	-0.0120424921438	blockFiles/set_26/main_unc/leftBlue\GB_LB_6.xlsx
496	main_unc	True	0.0	790	0	9.0	9.0	1.0	1	right	1.0	1.0	1.0	1	0.0374920601584	blockFiles/set_26/main_unc/leftBlue\GB_LB_6.xlsx
497	main_unc	True	0.0	790	0	9.0	9.0	0.0	1	left	2.0	0.0	1.0	0	-0.0594015923142	blockFiles/set_26/main_unc/leftBlue\GB_LB_6.xlsx
498	main_unc	True	0.0	790	0	9.0	9.0	0.0	1	left	2.0	1.0	1.0	0	-0.06835504628719999	blockFiles/set_26/main_unc/leftBlue\GB_LB_6.xlsx
499	main_unc	True	0.0	790	0	9.0	9.0	1.0	0	right	2.0	1.0	1.0	0	-0.0329187756218	blockFiles/set_26/main_unc/leftBlue\GB_LB_6.xlsx
500	main_unc	True	0.0	790	0	9.0	9.0	1.0	1	right	1.0	0.0	1.0	1	0.051364402119100004	blockFiles/set_26/main_unc/leftBlue\GB_LB_6.xlsx
501	main_unc	True	0.0	790	0	9.0	9.0	1.0	1	right	1.0	1.0	1.0	1	0.01172464801	blockFiles/set_26/main_unc/leftBlue\GB_LB_6.xlsx
502	main_unc	True	0.0	790	0	9.0	9.0	0.0	1	left	2.0	1.0	1.0	0	-0.0265282389708	blockFiles/set_26/main_unc/leftBlue\GB_LB_6.xlsx
503	main_unc	True	0.0	790	0	9.0	9.0	1.0	1	right	1.0	1.0	1.0	1	0.00434415813535	blockFiles/set_26/main_unc/leftBlue\GB_LB_6.xlsx
504	main_unc	True	0.0	790	0	9.0	9.0	0.0	1	left	2.0	1.0	1.0	0	-0.028416586704599997	blockFiles/set_26/main_unc/leftBlue\GB_LB_6.xlsx
505	main_unc	True	0.0	790	0	9.0	9.0	1.0	1	right	1.0	1.0	1.0	1	0.0660077895038	blockFiles/set_26/main_unc/leftBlue\GB_LB_6.xlsx
506	main_unc	True	0.0	790	0	9.0	9.0	1.0	1	right	1.0	1.0	1.0	1	0.0224685426243	blockFiles/set_26/main_unc/leftBlue\GB_LB_6.xlsx
507	main_unc	True	0.0	790	0	9.0	9.0	1.0	1	right	1.0	1.0	1.0	1	0.0660364091769	blockFiles/set_26/main_unc/leftBlue\GB_LB_6.xlsx
508	main_unc	True	0.0	790	0	9.0	9.0	0.0	1	left	2.0	1.0	1.0	0	-0.0303820937313	blockFiles/set_26/main_unc/leftBlue\GB_LB_6.xlsx
509	main_unc	True	0.0	790	0	9.0	9.0	1.0	1	right	1.0	0.0	1.0	1	0.0296590381116	blockFiles/set_26/main_unc/leftBlue\GB_LB_6.xlsx
510	main_unc	True	0.0	790	0	9.0	9.0	0.0	1	left	2.0	1.0	1.0	0	-0.073960993588	blockFiles/set_26/main_unc/leftBlue\GB_LB_6.xlsx
511	main_unc	True	0.0	790	0	9.0	9.0	1.0	1	right	1.0	1.0	1.0	1	0.060583742167800006	blockFiles/set_26/main_unc/leftBlue\GB_LB_6.xlsx
512	main_unc	True	0.0	790	0	9.0	9.0	1.0	1	right	1.0	1.0	1.0	1	0.0328616674803	blockFiles/set_26/main_unc/leftBlue\GB_LB_6.xlsx
513	main_unc	True	0.0	790	0	9.0	9.0	0.0	1	left	2.0	1.0	1.0	0	-0.0338275310397	blockFiles/set_26/main_unc/leftBlue\GB_LB_6.xlsx
514	main_unc	True	0.0	790	0	9.0	9.0	0.0	1	left	2.0	1.0	1.0	0	-0.025796711184099996	blockFiles/set_26/main_unc/leftBlue\GB_LB_6.xlsx
515	main_unc	True	0.0	790	0	10.0	10.0	0.0	1	left	1.0	0.0	1.0	0	-0.000249803829938	blockFiles/set_26/main_unc/rightBlue\GB_RB_5.xlsx
516	main_unc	True	0.0	790	0	10.0	10.0	1.0	1	right	2.0	1.0	1.0	1	0.017683425750599998	blockFiles/set_26/main_unc/rightBlue\GB_RB_5.xlsx
517	main_unc	True	0.0	790	0	10.0	10.0	0.0	1	left	1.0	1.0	1.0	0	-0.0495679386146	blockFiles/set_26/main_unc/rightBlue\GB_RB_5.xlsx
518	main_unc	True	0.0	790	0	10.0	10.0	1.0	1	right	2.0	1.0	1.0	1	0.067616795972	blockFiles/set_26/main_unc/rightBlue\GB_RB_5.xlsx
519	main_unc	True	0.0	790	0	10.0	10.0	0.0	1	left	1.0	1.0	1.0	0	-0.0441750794649	blockFiles/set_26/main_unc/rightBlue\GB_RB_5.xlsx
520	main_unc	True	0.0	790	0	10.0	10.0	0.0	0	left	2.0	1.0	1.0	1	0.0136998975277	blockFiles/set_26/main_unc/rightBlue\GB_RB_5.xlsx
521	main_unc	True	0.0	790	0	10.0	10.0	1.0	1	right	2.0	1.0	1.0	1	0.0181174171902	blockFiles/set_26/main_unc/rightBlue\GB_RB_5.xlsx
522	main_unc	True	0.0	790	0	10.0	10.0	1.0	1	right	2.0	0.0	1.0	1	0.0444320584834	blockFiles/set_26/main_unc/rightBlue\GB_RB_5.xlsx
523	main_unc	True	0.0	790	0	10.0	10.0	1.0	1	right	2.0	1.0	1.0	1	0.025899321101599995	blockFiles/set_26/main_unc/rightBlue\GB_RB_5.xlsx
524	main_unc	True	0.0	790	0	10.0	10.0	0.0	1	left	1.0	1.0	1.0	0	-0.0336623176932	blockFiles/set_26/main_unc/rightBlue\GB_RB_5.xlsx
525	main_unc	True	0.0	790	0	10.0	10.0	0.0	1	left	1.0	1.0	1.0	0	-0.0763499300927	blockFiles/set_26/main_unc/rightBlue\GB_RB_5.xlsx
526	main_unc	True	0.0	790	0	10.0	10.0	1.0	1	right	2.0	1.0	1.0	1	0.016919376757	blockFiles/set_26/main_unc/rightBlue\GB_RB_5.xlsx
527	main_unc	True	0.0	790	0	10.0	10.0	0.0	1	left	1.0	1.0	1.0	0	-0.04984781997280001	blockFiles/set_26/main_unc/rightBlue\GB_RB_5.xlsx
528	main_unc	True	0.0	790	0	10.0	10.0	0.0	1	left	1.0	1.0	1.0	0	-0.033512044548999996	blockFiles/set_26/main_unc/rightBlue\GB_RB_5.xlsx
529	main_unc	True	0.0	790	0	10.0	10.0	1.0	1	right	2.0	0.0	1.0	1	0.0674576036818	blockFiles/set_26/main_unc/rightBlue\GB_RB_5.xlsx
530	main_unc	True	0.0	790	0	10.0	10.0	1.0	1	right	2.0	0.0	1.0	1	0.00504887994379	blockFiles/set_26/main_unc/rightBlue\GB_RB_5.xlsx
531	main_unc	True	0.0	790	0	10.0	10.0	1.0	0	right	2.0	0.0	0.0	0	-0.016030817870100002	blockFiles/set_26/main_unc/rightBlue\GB_RB_5.xlsx
532	main_unc	True	0.0	790	0	10.0	10.0	0.0	1	left	1.0	1.0	1.0	0	-0.07554203547539999	blockFiles/set_26/main_unc/rightBlue\GB_RB_5.xlsx
533	main_unc	True	0.0	790	0	10.0	10.0	0.0	1	left	1.0	1.0	1.0	0	-0.056650044471000006	blockFiles/set_26/main_unc/rightBlue\GB_RB_5.xlsx
534	main_unc	True	0.0	790	0	10.0	10.0	1.0	1	right	2.0	1.0	1.0	1	0.0546546698175	blockFiles/set_26/main_unc/rightBlue\GB_RB_5.xlsx
535	main_unc	True	0.0	790	0	10.0	10.0	0.0	1	left	1.0	1.0	1.0	0	-0.0465602781996	blockFiles/set_26/main_unc/rightBlue\GB_RB_5.xlsx
536	main_unc	True	0.0	790	0	10.0	10.0	1.0	1	right	2.0	0.0	1.0	1	0.0238995787874	blockFiles/set_26/main_unc/rightBlue\GB_RB_5.xlsx
537	main_unc	True	0.0	790	0	10.0	10.0	1.0	0	right	1.0	1.0	1.0	0	-0.0151534921303	blockFiles/set_26/main_unc/rightBlue\GB_RB_5.xlsx
538	main_unc	True	0.0	790	0	10.0	10.0	0.0	0	left	2.0	1.0	1.0	1	0.061319591887300004	blockFiles/set_26/main_unc/rightBlue\GB_RB_5.xlsx
539	main_unc	True	0.0	790	0	10.0	10.0	0.0	1	left	1.0	0.0	1.0	0	-0.0500074075907	blockFiles/set_26/main_unc/rightBlue\GB_RB_5.xlsx
540	main_unc	True	1.0	790	0	11.0	11.0	n/a	0	None	n/a	0.0	n/a	1	0.0054407797753799995	blockFiles/set_26/main_unc/leftBlue\GB_LB_3.xlsx
541	main_unc	True	0.0	790	0	11.0	11.0	0.0	1	left	2.0	0.0	1.0	0	-0.0526116699539	blockFiles/set_26/main_unc/leftBlue\GB_LB_3.xlsx
542	main_unc	True	0.0	790	0	11.0	11.0	0.0	1	left	1.0	0.0	0.0	0	-0.0536147528514	blockFiles/set_26/main_unc/leftBlue\GB_LB_3.xlsx
543	main_unc	True	0.0	790	0	11.0	11.0	0.0	1	left	2.0	1.0	1.0	0	-0.0336008299142	blockFiles/set_26/main_unc/leftBlue\GB_LB_3.xlsx
544	main_unc	True	0.0	790	0	11.0	11.0	0.0	1	left	2.0	0.0	1.0	0	-0.0587044747174	blockFiles/set_26/main_unc/leftBlue\GB_LB_3.xlsx
545	main_unc	True	0.0	790	0	11.0	11.0	1.0	1	right	1.0	1.0	1.0	1	0.021499766800599996	blockFiles/set_26/main_unc/leftBlue\GB_LB_3.xlsx
546	main_unc	True	0.0	790	0	11.0	11.0	1.0	1	right	1.0	1.0	1.0	1	0.0758001951128	blockFiles/set_26/main_unc/leftBlue\GB_LB_3.xlsx
547	main_unc	True	0.0	790	0	11.0	11.0	1.0	1	right	1.0	0.0	1.0	1	0.0229219340347	blockFiles/set_26/main_unc/leftBlue\GB_LB_3.xlsx
548	main_unc	True	0.0	790	0	11.0	11.0	0.0	1	left	2.0	1.0	1.0	0	-0.04914117040109999	blockFiles/set_26/main_unc/leftBlue\GB_LB_3.xlsx
549	main_unc	True	0.0	790	0	11.0	11.0	1.0	1	right	1.0	1.0	1.0	1	0.058934092409899996	blockFiles/set_26/main_unc/leftBlue\GB_LB_3.xlsx
550	main_unc	True	0.0	790	0	11.0	11.0	1.0	0	right	1.0	1.0	0.0	0	-0.00415902124718	blockFiles/set_26/main_unc/leftBlue\GB_LB_3.xlsx
551	main_unc	True	0.0	790	0	11.0	11.0	1.0	1	right	1.0	1.0	1.0	1	0.0615257049724	blockFiles/set_26/main_unc/leftBlue\GB_LB_3.xlsx
552	main_unc	True	0.0	790	0	11.0	11.0	1.0	1	right	1.0	1.0	1.0	1	0.06089086802680001	blockFiles/set_26/main_unc/leftBlue\GB_LB_3.xlsx
553	main_unc	True	0.0	790	0	11.0	11.0	0.0	1	left	2.0	1.0	1.0	0	-0.0540584684722	blockFiles/set_26/main_unc/leftBlue\GB_LB_3.xlsx
554	main_unc	True	0.0	790	0	11.0	11.0	1.0	0	right	2.0	1.0	1.0	0	-0.00123975094408	blockFiles/set_26/main_unc/leftBlue\GB_LB_3.xlsx
555	main_unc	True	0.0	790	0	11.0	11.0	0.0	1	left	2.0	1.0	1.0	0	-0.06323099220169999	blockFiles/set_26/main_unc/leftBlue\GB_LB_3.xlsx
556	main_unc	True	0.0	790	0	11.0	11.0	0.0	1	left	2.0	1.0	1.0	0	-0.028142589423799998	blockFiles/set_26/main_unc/leftBlue\GB_LB_3.xlsx
557	main_unc	True	0.0	790	0	11.0	11.0	1.0	1	right	1.0	1.0	1.0	1	0.06632707593960001	blockFiles/set_26/main_unc/leftBlue\GB_LB_3.xlsx
558	main_unc	True	0.0	790	0	11.0	11.0	0.0	0	left	2.0	0.0	0.0	1	0.005286680758	blockFiles/set_26/main_unc/leftBlue\GB_LB_3.xlsx
559	main_unc	True	0.0	790	0	11.0	11.0	1.0	1	right	1.0	1.0	1.0	1	0.0448944920674	blockFiles/set_26/main_unc/leftBlue\GB_LB_3.xlsx
560	main_unc	True	0.0	790	0	11.0	11.0	1.0	1	right	1.0	1.0	1.0	1	0.0520276090503	blockFiles/set_26/main_unc/leftBlue\GB_LB_3.xlsx
561	main_unc	True	0.0	790	0	11.0	11.0	0.0	1	left	2.0	1.0	1.0	0	-0.0433894829266	blockFiles/set_26/main_unc/leftBlue\GB_LB_3.xlsx
562	main_unc	True	0.0	790	0	11.0	11.0	0.0	1	left	2.0	1.0	1.0	0	-0.0530413488485	blockFiles/set_26/main_unc/leftBlue\GB_LB_3.xlsx
563	main_unc	True	0.0	790	0	11.0	11.0	1.0	1	right	1.0	1.0	1.0	1	0.039648211356300006	blockFiles/set_26/main_unc/leftBlue\GB_LB_3.xlsx
564	main_unc	True	0.0	790	0	11.0	11.0	0.0	0	left	1.0	1.0	1.0	1	0.0617626106925	blockFiles/set_26/main_unc/leftBlue\GB_LB_3.xlsx
565	main_unc	True	0.0	790	0	11.0	11.0	0.0	0	left	2.0	0.0	0.0	1	0.0054407797753799995	blockFiles/set_26/main_unc/leftBlue\GB_LB_3.xlsx
