	trial_type	complete	missIndex	participant	id	blockNumber	b_t	d_t	decision1.corr	decision1.keys	a_t	r_t	decision2.corr	s_t	u_t	block_file
0	main_safe	True	0.0	331	0	0.0	0.0	0.0	1	left	1.0	1.0	1.0	0	-0.08	blockFiles/set_23/main_safe/rightBlue\GB_RB_1.xlsx
1	main_safe	True	0.0	331	0	0.0	0.0	0.0	1	left	1.0	0.0	1.0	0	-0.08	blockFiles/set_23/main_safe/rightBlue\GB_RB_1.xlsx
2	main_safe	True	0.0	331	0	0.0	0.0	0.0	1	left	1.0	1.0	1.0	0	-0.08	blockFiles/set_23/main_safe/rightBlue\GB_RB_1.xlsx
3	main_safe	True	0.0	331	0	0.0	0.0	0.0	1	left	1.0	1.0	1.0	0	-0.08	blockFiles/set_23/main_safe/rightBlue\GB_RB_1.xlsx
4	main_safe	True	0.0	331	0	0.0	0.0	1.0	1	right	2.0	1.0	1.0	1	0.08	blockFiles/set_23/main_safe/rightBlue\GB_RB_1.xlsx
5	main_safe	True	0.0	331	0	0.0	0.0	0.0	1	left	1.0	1.0	1.0	0	-0.08	blockFiles/set_23/main_safe/rightBlue\GB_RB_1.xlsx
6	main_safe	True	0.0	331	0	0.0	0.0	0.0	1	left	1.0	0.0	1.0	0	-0.08	blockFiles/set_23/main_safe/rightBlue\GB_RB_1.xlsx
7	main_safe	True	0.0	331	0	0.0	0.0	1.0	1	right	2.0	1.0	1.0	1	0.08	blockFiles/set_23/main_safe/rightBlue\GB_RB_1.xlsx
8	main_safe	True	0.0	331	0	0.0	0.0	0.0	1	left	1.0	1.0	1.0	0	-0.08	blockFiles/set_23/main_safe/rightBlue\GB_RB_1.xlsx
9	main_safe	True	0.0	331	0	0.0	0.0	1.0	1	right	2.0	0.0	1.0	1	0.08	blockFiles/set_23/main_safe/rightBlue\GB_RB_1.xlsx
10	main_safe	True	0.0	331	0	0.0	0.0	1.0	1	right	2.0	1.0	1.0	1	0.08	blockFiles/set_23/main_safe/rightBlue\GB_RB_1.xlsx
11	main_safe	True	0.0	331	0	0.0	0.0	1.0	1	right	2.0	1.0	1.0	1	0.08	blockFiles/set_23/main_safe/rightBlue\GB_RB_1.xlsx
12	main_safe	True	0.0	331	0	0.0	0.0	1.0	1	right	2.0	1.0	1.0	1	0.08	blockFiles/set_23/main_safe/rightBlue\GB_RB_1.xlsx
13	main_safe	True	0.0	331	0	0.0	0.0	0.0	1	left	1.0	0.0	1.0	0	-0.08	blockFiles/set_23/main_safe/rightBlue\GB_RB_1.xlsx
14	main_safe	True	0.0	331	0	0.0	0.0	0.0	1	left	1.0	0.0	1.0	0	-0.08	blockFiles/set_23/main_safe/rightBlue\GB_RB_1.xlsx
15	main_safe	True	0.0	331	0	0.0	0.0	1.0	1	right	2.0	1.0	1.0	1	0.08	blockFiles/set_23/main_safe/rightBlue\GB_RB_1.xlsx
16	main_safe	True	0.0	331	0	0.0	0.0	0.0	1	left	1.0	0.0	1.0	0	-0.08	blockFiles/set_23/main_safe/rightBlue\GB_RB_1.xlsx
17	main_safe	True	0.0	331	0	0.0	0.0	1.0	1	right	2.0	1.0	1.0	1	0.08	blockFiles/set_23/main_safe/rightBlue\GB_RB_1.xlsx
18	main_safe	True	0.0	331	0	0.0	0.0	1.0	1	right	2.0	1.0	1.0	1	0.08	blockFiles/set_23/main_safe/rightBlue\GB_RB_1.xlsx
19	main_safe	True	0.0	331	0	0.0	0.0	0.0	1	left	1.0	1.0	1.0	0	-0.08	blockFiles/set_23/main_safe/rightBlue\GB_RB_1.xlsx
20	main_safe	True	0.0	331	0	0.0	0.0	1.0	1	right	2.0	1.0	1.0	1	0.08	blockFiles/set_23/main_safe/rightBlue\GB_RB_1.xlsx
21	main_safe	True	0.0	331	0	0.0	0.0	0.0	1	left	1.0	1.0	1.0	0	-0.08	blockFiles/set_23/main_safe/rightBlue\GB_RB_1.xlsx
22	main_safe	True	0.0	331	0	0.0	0.0	1.0	1	right	2.0	1.0	1.0	1	0.08	blockFiles/set_23/main_safe/rightBlue\GB_RB_1.xlsx
23	main_safe	True	0.0	331	0	0.0	0.0	0.0	1	left	1.0	1.0	1.0	0	-0.08	blockFiles/set_23/main_safe/rightBlue\GB_RB_1.xlsx
24	main_safe	True	0.0	331	0	0.0	0.0	1.0	1	right	1.0	0.0	0.0	1	0.08	blockFiles/set_23/main_safe/rightBlue\GB_RB_1.xlsx
25	main_safe	True	0.0	331	0	1.0	1.0	0.0	1	left	1.0	0.0	0.0	0	-0.08	blockFiles/set_23/main_safe/leftBlue\GB_LB_2.xlsx
26	main_safe	True	0.0	331	0	1.0	1.0	0.0	1	left	1.0	0.0	0.0	0	-0.08	blockFiles/set_23/main_safe/leftBlue\GB_LB_2.xlsx
27	main_safe	True	0.0	331	0	1.0	1.0	0.0	1	left	2.0	1.0	1.0	0	-0.08	blockFiles/set_23/main_safe/leftBlue\GB_LB_2.xlsx
28	main_safe	True	0.0	331	0	1.0	1.0	0.0	1	left	2.0	1.0	1.0	0	-0.08	blockFiles/set_23/main_safe/leftBlue\GB_LB_2.xlsx
29	main_safe	True	1.0	331	0	1.0	1.0	1.0	1	right	n/a	0.0	n/a	1	0.08	blockFiles/set_23/main_safe/leftBlue\GB_LB_2.xlsx
30	main_safe	True	0.0	331	0	1.0	1.0	1.0	1	right	1.0	1.0	1.0	1	0.08	blockFiles/set_23/main_safe/leftBlue\GB_LB_2.xlsx
31	main_safe	True	0.0	331	0	1.0	1.0	1.0	1	right	1.0	1.0	1.0	1	0.08	blockFiles/set_23/main_safe/leftBlue\GB_LB_2.xlsx
32	main_safe	True	0.0	331	0	1.0	1.0	1.0	1	right	1.0	1.0	1.0	1	0.08	blockFiles/set_23/main_safe/leftBlue\GB_LB_2.xlsx
33	main_safe	True	0.0	331	0	1.0	1.0	0.0	1	left	2.0	1.0	1.0	0	-0.08	blockFiles/set_23/main_safe/leftBlue\GB_LB_2.xlsx
34	main_safe	True	0.0	331	0	1.0	1.0	1.0	1	right	1.0	1.0	1.0	1	0.08	blockFiles/set_23/main_safe/leftBlue\GB_LB_2.xlsx
35	main_safe	True	0.0	331	0	1.0	1.0	1.0	1	right	1.0	1.0	1.0	1	0.08	blockFiles/set_23/main_safe/leftBlue\GB_LB_2.xlsx
36	main_safe	True	0.0	331	0	1.0	1.0	1.0	1	right	1.0	1.0	1.0	1	0.08	blockFiles/set_23/main_safe/leftBlue\GB_LB_2.xlsx
37	main_safe	True	0.0	331	0	1.0	1.0	0.0	1	left	2.0	0.0	1.0	0	-0.08	blockFiles/set_23/main_safe/leftBlue\GB_LB_2.xlsx
38	main_safe	True	0.0	331	0	1.0	1.0	1.0	1	right	1.0	1.0	1.0	1	0.08	blockFiles/set_23/main_safe/leftBlue\GB_LB_2.xlsx
39	main_safe	True	0.0	331	0	1.0	1.0	0.0	1	left	2.0	1.0	1.0	0	-0.08	blockFiles/set_23/main_safe/leftBlue\GB_LB_2.xlsx
40	main_safe	True	0.0	331	0	1.0	1.0	0.0	1	left	2.0	0.0	1.0	0	-0.08	blockFiles/set_23/main_safe/leftBlue\GB_LB_2.xlsx
41	main_safe	True	0.0	331	0	1.0	1.0	0.0	1	left	2.0	1.0	1.0	0	-0.08	blockFiles/set_23/main_safe/leftBlue\GB_LB_2.xlsx
42	main_safe	True	0.0	331	0	1.0	1.0	0.0	1	left	2.0	1.0	1.0	0	-0.08	blockFiles/set_23/main_safe/leftBlue\GB_LB_2.xlsx
43	main_safe	True	0.0	331	0	1.0	1.0	1.0	1	right	1.0	1.0	1.0	1	0.08	blockFiles/set_23/main_safe/leftBlue\GB_LB_2.xlsx
44	main_safe	True	0.0	331	0	1.0	1.0	0.0	1	left	1.0	1.0	0.0	0	-0.08	blockFiles/set_23/main_safe/leftBlue\GB_LB_2.xlsx
45	main_safe	True	0.0	331	0	1.0	1.0	1.0	1	right	1.0	1.0	1.0	1	0.08	blockFiles/set_23/main_safe/leftBlue\GB_LB_2.xlsx
46	main_safe	True	0.0	331	0	1.0	1.0	1.0	1	right	2.0	0.0	0.0	1	0.08	blockFiles/set_23/main_safe/leftBlue\GB_LB_2.xlsx
47	main_safe	True	0.0	331	0	1.0	1.0	1.0	1	right	1.0	1.0	1.0	1	0.08	blockFiles/set_23/main_safe/leftBlue\GB_LB_2.xlsx
48	main_safe	True	0.0	331	0	1.0	1.0	0.0	1	left	2.0	0.0	1.0	0	-0.08	blockFiles/set_23/main_safe/leftBlue\GB_LB_2.xlsx
49	main_safe	True	0.0	331	0	1.0	1.0	1.0	1	right	1.0	1.0	1.0	1	0.08	blockFiles/set_23/main_safe/leftBlue\GB_LB_2.xlsx
50	main_safe	True	0.0	331	0	1.0	1.0	1.0	1	right	1.0	1.0	1.0	1	0.08	blockFiles/set_23/main_safe/leftBlue\GB_LB_2.xlsx
51	main_safe	True	0.0	331	0	2.0	2.0	1.0	1	right	2.0	0.0	0.0	1	0.08	blockFiles/set_23/main_safe/leftBlue\GB_LB_3.xlsx
52	main_safe	True	0.0	331	0	2.0	2.0	1.0	1	right	2.0	0.0	0.0	1	0.08	blockFiles/set_23/main_safe/leftBlue\GB_LB_3.xlsx
53	main_safe	True	0.0	331	0	2.0	2.0	0.0	1	left	2.0	1.0	1.0	0	-0.08	blockFiles/set_23/main_safe/leftBlue\GB_LB_3.xlsx
54	main_safe	True	0.0	331	0	2.0	2.0	1.0	1	right	1.0	0.0	1.0	1	0.08	blockFiles/set_23/main_safe/leftBlue\GB_LB_3.xlsx
55	main_safe	True	0.0	331	0	2.0	2.0	1.0	1	right	1.0	1.0	1.0	1	0.08	blockFiles/set_23/main_safe/leftBlue\GB_LB_3.xlsx
56	main_safe	True	0.0	331	0	2.0	2.0	1.0	1	right	1.0	1.0	1.0	1	0.08	blockFiles/set_23/main_safe/leftBlue\GB_LB_3.xlsx
57	main_safe	True	0.0	331	0	2.0	2.0	1.0	1	right	1.0	0.0	1.0	1	0.08	blockFiles/set_23/main_safe/leftBlue\GB_LB_3.xlsx
58	main_safe	True	0.0	331	0	2.0	2.0	1.0	1	right	1.0	1.0	1.0	1	0.08	blockFiles/set_23/main_safe/leftBlue\GB_LB_3.xlsx
59	main_safe	True	0.0	331	0	2.0	2.0	1.0	1	right	1.0	1.0	1.0	1	0.08	blockFiles/set_23/main_safe/leftBlue\GB_LB_3.xlsx
60	main_safe	True	0.0	331	0	2.0	2.0	0.0	1	left	2.0	0.0	1.0	0	-0.08	blockFiles/set_23/main_safe/leftBlue\GB_LB_3.xlsx
61	main_safe	True	0.0	331	0	2.0	2.0	0.0	1	left	2.0	1.0	1.0	0	-0.08	blockFiles/set_23/main_safe/leftBlue\GB_LB_3.xlsx
62	main_safe	True	0.0	331	0	2.0	2.0	0.0	1	left	2.0	1.0	1.0	0	-0.08	blockFiles/set_23/main_safe/leftBlue\GB_LB_3.xlsx
63	main_safe	True	0.0	331	0	2.0	2.0	1.0	1	right	1.0	1.0	1.0	1	0.08	blockFiles/set_23/main_safe/leftBlue\GB_LB_3.xlsx
64	main_safe	True	0.0	331	0	2.0	2.0	0.0	1	left	2.0	1.0	1.0	0	-0.08	blockFiles/set_23/main_safe/leftBlue\GB_LB_3.xlsx
65	main_safe	True	0.0	331	0	2.0	2.0	0.0	1	left	2.0	0.0	1.0	0	-0.08	blockFiles/set_23/main_safe/leftBlue\GB_LB_3.xlsx
66	main_safe	True	0.0	331	0	2.0	2.0	1.0	1	right	1.0	1.0	1.0	1	0.08	blockFiles/set_23/main_safe/leftBlue\GB_LB_3.xlsx
67	main_safe	True	0.0	331	0	2.0	2.0	1.0	1	right	1.0	1.0	1.0	1	0.08	blockFiles/set_23/main_safe/leftBlue\GB_LB_3.xlsx
68	main_safe	True	0.0	331	0	2.0	2.0	0.0	1	left	2.0	1.0	1.0	0	-0.08	blockFiles/set_23/main_safe/leftBlue\GB_LB_3.xlsx
69	main_safe	True	0.0	331	0	2.0	2.0	0.0	1	left	2.0	1.0	1.0	0	-0.08	blockFiles/set_23/main_safe/leftBlue\GB_LB_3.xlsx
70	main_safe	True	1.0	331	0	2.0	2.0	0.0	1	left	n/a	0.0	n/a	0	-0.08	blockFiles/set_23/main_safe/leftBlue\GB_LB_3.xlsx
71	main_safe	True	0.0	331	0	2.0	2.0	1.0	1	right	1.0	0.0	1.0	1	0.08	blockFiles/set_23/main_safe/leftBlue\GB_LB_3.xlsx
72	main_safe	True	0.0	331	0	2.0	2.0	0.0	1	left	2.0	0.0	1.0	0	-0.08	blockFiles/set_23/main_safe/leftBlue\GB_LB_3.xlsx
73	main_safe	True	0.0	331	0	2.0	2.0	0.0	1	left	2.0	1.0	1.0	0	-0.08	blockFiles/set_23/main_safe/leftBlue\GB_LB_3.xlsx
74	main_safe	True	0.0	331	0	2.0	2.0	0.0	1	left	2.0	1.0	1.0	0	-0.08	blockFiles/set_23/main_safe/leftBlue\GB_LB_3.xlsx
75	main_safe	True	0.0	331	0	2.0	2.0	1.0	1	right	1.0	1.0	1.0	1	0.08	blockFiles/set_23/main_safe/leftBlue\GB_LB_3.xlsx
76	main_safe	True	0.0	331	0	2.0	2.0	0.0	1	left	2.0	1.0	1.0	0	-0.08	blockFiles/set_23/main_safe/leftBlue\GB_LB_3.xlsx
77	main_safe	True	0.0	331	0	3.0	3.0	0.0	1	left	1.0	0.0	0.0	0	-0.08	blockFiles/set_23/main_safe/leftBlue\GB_LB_1.xlsx
78	main_safe	True	0.0	331	0	3.0	3.0	0.0	1	left	1.0	1.0	0.0	0	-0.08	blockFiles/set_23/main_safe/leftBlue\GB_LB_1.xlsx
79	main_safe	True	0.0	331	0	3.0	3.0	0.0	1	left	1.0	0.0	0.0	0	-0.08	blockFiles/set_23/main_safe/leftBlue\GB_LB_1.xlsx
80	main_safe	True	0.0	331	0	3.0	3.0	0.0	1	left	1.0	1.0	0.0	0	-0.08	blockFiles/set_23/main_safe/leftBlue\GB_LB_1.xlsx
81	main_safe	True	0.0	331	0	3.0	3.0	1.0	1	right	2.0	0.0	0.0	1	0.08	blockFiles/set_23/main_safe/leftBlue\GB_LB_1.xlsx
82	main_safe	True	0.0	331	0	3.0	3.0	0.0	1	left	1.0	0.0	0.0	0	-0.08	blockFiles/set_23/main_safe/leftBlue\GB_LB_1.xlsx
83	main_safe	True	0.0	331	0	3.0	3.0	1.0	1	right	1.0	1.0	1.0	1	0.08	blockFiles/set_23/main_safe/leftBlue\GB_LB_1.xlsx
84	main_safe	True	0.0	331	0	3.0	3.0	1.0	1	right	1.0	1.0	1.0	1	0.08	blockFiles/set_23/main_safe/leftBlue\GB_LB_1.xlsx
85	main_safe	True	0.0	331	0	3.0	3.0	1.0	1	right	1.0	1.0	1.0	1	0.08	blockFiles/set_23/main_safe/leftBlue\GB_LB_1.xlsx
86	main_safe	True	0.0	331	0	3.0	3.0	0.0	1	left	2.0	1.0	1.0	0	-0.08	blockFiles/set_23/main_safe/leftBlue\GB_LB_1.xlsx
87	main_safe	True	0.0	331	0	3.0	3.0	0.0	1	left	2.0	1.0	1.0	0	-0.08	blockFiles/set_23/main_safe/leftBlue\GB_LB_1.xlsx
88	main_safe	True	0.0	331	0	3.0	3.0	1.0	1	right	1.0	1.0	1.0	1	0.08	blockFiles/set_23/main_safe/leftBlue\GB_LB_1.xlsx
89	main_safe	True	0.0	331	0	3.0	3.0	1.0	1	right	1.0	1.0	1.0	1	0.08	blockFiles/set_23/main_safe/leftBlue\GB_LB_1.xlsx
90	main_safe	True	0.0	331	0	3.0	3.0	1.0	1	right	1.0	1.0	1.0	1	0.08	blockFiles/set_23/main_safe/leftBlue\GB_LB_1.xlsx
91	main_safe	True	0.0	331	0	3.0	3.0	1.0	1	right	1.0	1.0	1.0	1	0.08	blockFiles/set_23/main_safe/leftBlue\GB_LB_1.xlsx
92	main_safe	True	0.0	331	0	3.0	3.0	1.0	1	right	1.0	1.0	1.0	1	0.08	blockFiles/set_23/main_safe/leftBlue\GB_LB_1.xlsx
93	main_safe	True	0.0	331	0	3.0	3.0	0.0	1	left	2.0	0.0	1.0	0	-0.08	blockFiles/set_23/main_safe/leftBlue\GB_LB_1.xlsx
94	main_safe	True	0.0	331	0	3.0	3.0	1.0	1	right	1.0	1.0	1.0	1	0.08	blockFiles/set_23/main_safe/leftBlue\GB_LB_1.xlsx
95	main_safe	True	0.0	331	0	3.0	3.0	1.0	1	right	1.0	0.0	1.0	1	0.08	blockFiles/set_23/main_safe/leftBlue\GB_LB_1.xlsx
96	main_safe	True	0.0	331	0	3.0	3.0	0.0	1	left	2.0	0.0	1.0	0	-0.08	blockFiles/set_23/main_safe/leftBlue\GB_LB_1.xlsx
97	main_safe	True	0.0	331	0	3.0	3.0	0.0	1	left	2.0	1.0	1.0	0	-0.08	blockFiles/set_23/main_safe/leftBlue\GB_LB_1.xlsx
98	main_safe	True	0.0	331	0	3.0	3.0	0.0	1	left	2.0	1.0	1.0	0	-0.08	blockFiles/set_23/main_safe/leftBlue\GB_LB_1.xlsx
99	main_safe	True	0.0	331	0	3.0	3.0	0.0	1	left	2.0	0.0	1.0	0	-0.08	blockFiles/set_23/main_safe/leftBlue\GB_LB_1.xlsx
100	main_safe	True	0.0	331	0	3.0	3.0	1.0	1	right	1.0	1.0	1.0	1	0.08	blockFiles/set_23/main_safe/leftBlue\GB_LB_1.xlsx
101	main_safe	True	0.0	331	0	3.0	3.0	1.0	1	right	1.0	1.0	1.0	1	0.08	blockFiles/set_23/main_safe/leftBlue\GB_LB_1.xlsx
102	main_safe	True	0.0	331	0	4.0	4.0	1.0	1	right	2.0	1.0	1.0	1	0.08	blockFiles/set_23/main_safe/rightBlue\GB_RB_3.xlsx
103	main_safe	True	0.0	331	0	4.0	4.0	1.0	1	right	2.0	1.0	1.0	1	0.08	blockFiles/set_23/main_safe/rightBlue\GB_RB_3.xlsx
104	main_safe	True	0.0	331	0	4.0	4.0	1.0	1	right	2.0	0.0	1.0	1	0.08	blockFiles/set_23/main_safe/rightBlue\GB_RB_3.xlsx
105	main_safe	True	0.0	331	0	4.0	4.0	0.0	1	left	1.0	0.0	1.0	0	-0.08	blockFiles/set_23/main_safe/rightBlue\GB_RB_3.xlsx
106	main_safe	True	0.0	331	0	4.0	4.0	1.0	1	right	2.0	1.0	1.0	1	0.08	blockFiles/set_23/main_safe/rightBlue\GB_RB_3.xlsx
107	main_safe	True	0.0	331	0	4.0	4.0	1.0	1	right	2.0	1.0	1.0	1	0.08	blockFiles/set_23/main_safe/rightBlue\GB_RB_3.xlsx
108	main_safe	True	0.0	331	0	4.0	4.0	1.0	1	right	2.0	1.0	1.0	1	0.08	blockFiles/set_23/main_safe/rightBlue\GB_RB_3.xlsx
109	main_safe	True	0.0	331	0	4.0	4.0	0.0	1	left	1.0	1.0	1.0	0	-0.08	blockFiles/set_23/main_safe/rightBlue\GB_RB_3.xlsx
110	main_safe	True	0.0	331	0	4.0	4.0	0.0	1	left	1.0	1.0	1.0	0	-0.08	blockFiles/set_23/main_safe/rightBlue\GB_RB_3.xlsx
111	main_safe	True	0.0	331	0	4.0	4.0	1.0	1	right	2.0	1.0	1.0	1	0.08	blockFiles/set_23/main_safe/rightBlue\GB_RB_3.xlsx
112	main_safe	True	0.0	331	0	4.0	4.0	0.0	1	left	1.0	1.0	1.0	0	-0.08	blockFiles/set_23/main_safe/rightBlue\GB_RB_3.xlsx
113	main_safe	True	0.0	331	0	4.0	4.0	1.0	1	right	2.0	1.0	1.0	1	0.08	blockFiles/set_23/main_safe/rightBlue\GB_RB_3.xlsx
114	main_safe	True	0.0	331	0	4.0	4.0	1.0	1	right	1.0	0.0	0.0	1	0.08	blockFiles/set_23/main_safe/rightBlue\GB_RB_3.xlsx
115	main_safe	True	0.0	331	0	4.0	4.0	0.0	1	left	1.0	0.0	1.0	0	-0.08	blockFiles/set_23/main_safe/rightBlue\GB_RB_3.xlsx
116	main_safe	True	0.0	331	0	4.0	4.0	1.0	1	right	2.0	1.0	1.0	1	0.08	blockFiles/set_23/main_safe/rightBlue\GB_RB_3.xlsx
117	main_safe	True	0.0	331	0	4.0	4.0	1.0	1	right	2.0	1.0	1.0	1	0.08	blockFiles/set_23/main_safe/rightBlue\GB_RB_3.xlsx
118	main_safe	True	0.0	331	0	4.0	4.0	0.0	1	left	1.0	1.0	1.0	0	-0.08	blockFiles/set_23/main_safe/rightBlue\GB_RB_3.xlsx
119	main_safe	True	0.0	331	0	4.0	4.0	1.0	1	right	2.0	1.0	1.0	1	0.08	blockFiles/set_23/main_safe/rightBlue\GB_RB_3.xlsx
120	main_safe	True	0.0	331	0	4.0	4.0	0.0	1	left	1.0	0.0	1.0	0	-0.08	blockFiles/set_23/main_safe/rightBlue\GB_RB_3.xlsx
121	main_safe	True	0.0	331	0	4.0	4.0	0.0	1	left	1.0	1.0	1.0	0	-0.08	blockFiles/set_23/main_safe/rightBlue\GB_RB_3.xlsx
122	main_safe	True	0.0	331	0	4.0	4.0	0.0	1	left	1.0	1.0	1.0	0	-0.08	blockFiles/set_23/main_safe/rightBlue\GB_RB_3.xlsx
123	main_safe	True	0.0	331	0	4.0	4.0	0.0	1	left	1.0	1.0	1.0	0	-0.08	blockFiles/set_23/main_safe/rightBlue\GB_RB_3.xlsx
124	main_safe	True	0.0	331	0	4.0	4.0	1.0	1	right	2.0	1.0	1.0	1	0.08	blockFiles/set_23/main_safe/rightBlue\GB_RB_3.xlsx
125	main_safe	True	0.0	331	0	4.0	4.0	0.0	1	left	1.0	1.0	1.0	0	-0.08	blockFiles/set_23/main_safe/rightBlue\GB_RB_3.xlsx
126	main_safe	True	0.0	331	0	4.0	4.0	0.0	1	left	1.0	1.0	1.0	0	-0.08	blockFiles/set_23/main_safe/rightBlue\GB_RB_3.xlsx
127	main_safe	True	0.0	331	0	5.0	5.0	0.0	1	left	1.0	0.0	1.0	0	-0.08	blockFiles/set_23/main_safe/rightBlue\GB_RB_2.xlsx
128	main_safe	True	0.0	331	0	5.0	5.0	0.0	1	left	1.0	1.0	1.0	0	-0.08	blockFiles/set_23/main_safe/rightBlue\GB_RB_2.xlsx
129	main_safe	True	0.0	331	0	5.0	5.0	0.0	1	left	1.0	1.0	1.0	0	-0.08	blockFiles/set_23/main_safe/rightBlue\GB_RB_2.xlsx
130	main_safe	True	0.0	331	0	5.0	5.0	0.0	1	left	1.0	0.0	1.0	0	-0.08	blockFiles/set_23/main_safe/rightBlue\GB_RB_2.xlsx
131	main_safe	True	0.0	331	0	5.0	5.0	1.0	1	right	2.0	1.0	1.0	1	0.08	blockFiles/set_23/main_safe/rightBlue\GB_RB_2.xlsx
132	main_safe	True	0.0	331	0	5.0	5.0	1.0	1	right	2.0	1.0	1.0	1	0.08	blockFiles/set_23/main_safe/rightBlue\GB_RB_2.xlsx
133	main_safe	True	0.0	331	0	5.0	5.0	0.0	1	left	1.0	1.0	1.0	0	-0.08	blockFiles/set_23/main_safe/rightBlue\GB_RB_2.xlsx
134	main_safe	True	0.0	331	0	5.0	5.0	1.0	1	right	2.0	1.0	1.0	1	0.08	blockFiles/set_23/main_safe/rightBlue\GB_RB_2.xlsx
135	main_safe	True	0.0	331	0	5.0	5.0	1.0	1	right	2.0	1.0	1.0	1	0.08	blockFiles/set_23/main_safe/rightBlue\GB_RB_2.xlsx
136	main_safe	True	0.0	331	0	5.0	5.0	0.0	1	left	1.0	1.0	1.0	0	-0.08	blockFiles/set_23/main_safe/rightBlue\GB_RB_2.xlsx
137	main_safe	True	0.0	331	0	5.0	5.0	1.0	1	right	2.0	1.0	1.0	1	0.08	blockFiles/set_23/main_safe/rightBlue\GB_RB_2.xlsx
138	main_safe	True	0.0	331	0	5.0	5.0	1.0	1	right	2.0	1.0	1.0	1	0.08	blockFiles/set_23/main_safe/rightBlue\GB_RB_2.xlsx
139	main_safe	True	0.0	331	0	5.0	5.0	1.0	1	right	2.0	0.0	1.0	1	0.08	blockFiles/set_23/main_safe/rightBlue\GB_RB_2.xlsx
140	main_safe	True	0.0	331	0	5.0	5.0	0.0	1	left	1.0	1.0	1.0	0	-0.08	blockFiles/set_23/main_safe/rightBlue\GB_RB_2.xlsx
141	main_safe	True	0.0	331	0	5.0	5.0	0.0	1	left	1.0	1.0	1.0	0	-0.08	blockFiles/set_23/main_safe/rightBlue\GB_RB_2.xlsx
142	main_safe	True	0.0	331	0	5.0	5.0	0.0	1	left	1.0	1.0	1.0	0	-0.08	blockFiles/set_23/main_safe/rightBlue\GB_RB_2.xlsx
143	main_safe	True	0.0	331	0	5.0	5.0	0.0	1	left	1.0	0.0	1.0	0	-0.08	blockFiles/set_23/main_safe/rightBlue\GB_RB_2.xlsx
144	main_safe	True	0.0	331	0	5.0	5.0	0.0	1	left	1.0	1.0	1.0	0	-0.08	blockFiles/set_23/main_safe/rightBlue\GB_RB_2.xlsx
145	main_safe	True	0.0	331	0	5.0	5.0	1.0	1	right	2.0	1.0	1.0	1	0.08	blockFiles/set_23/main_safe/rightBlue\GB_RB_2.xlsx
146	main_safe	True	0.0	331	0	5.0	5.0	1.0	1	right	2.0	0.0	1.0	1	0.08	blockFiles/set_23/main_safe/rightBlue\GB_RB_2.xlsx
147	main_safe	True	0.0	331	0	5.0	5.0	0.0	1	left	1.0	0.0	1.0	0	-0.08	blockFiles/set_23/main_safe/rightBlue\GB_RB_2.xlsx
148	main_safe	True	0.0	331	0	5.0	5.0	1.0	1	right	2.0	1.0	1.0	1	0.08	blockFiles/set_23/main_safe/rightBlue\GB_RB_2.xlsx
149	main_safe	True	0.0	331	0	5.0	5.0	1.0	1	right	2.0	1.0	1.0	1	0.08	blockFiles/set_23/main_safe/rightBlue\GB_RB_2.xlsx
150	main_safe	True	0.0	331	0	5.0	5.0	1.0	1	right	2.0	1.0	1.0	1	0.08	blockFiles/set_23/main_safe/rightBlue\GB_RB_2.xlsx
151	main_safe	True	0.0	331	0	5.0	5.0	1.0	1	right	2.0	1.0	1.0	1	0.08	blockFiles/set_23/main_safe/rightBlue\GB_RB_2.xlsx
152	patches	True	n/a	331	0	n/a	n/a	0.0	1	left	n/a	n/a	n/a	0	-0.0618251192011	blockFiles/set_23/main_PD/GB_runPatches1.xlsx
153	patches	True	n/a	331	0	n/a	n/a	0.0	1	left	n/a	n/a	n/a	0	-0.0123005998135	blockFiles/set_23/main_PD/GB_runPatches1.xlsx
154	patches	True	n/a	331	0	n/a	n/a	0.0	1	left	n/a	n/a	n/a	0	-0.0474196228571	blockFiles/set_23/main_PD/GB_runPatches1.xlsx
155	patches	True	n/a	331	0	n/a	n/a	1.0	1	right	n/a	n/a	n/a	1	0.07897985305639998	blockFiles/set_23/main_PD/GB_runPatches1.xlsx
156	patches	True	n/a	331	0	n/a	n/a	1.0	1	right	n/a	n/a	n/a	1	0.0386499904655	blockFiles/set_23/main_PD/GB_runPatches1.xlsx
157	patches	True	n/a	331	0	n/a	n/a	0.0	1	left	n/a	n/a	n/a	0	-0.00268004931509	blockFiles/set_23/main_PD/GB_runPatches1.xlsx
158	patches	True	n/a	331	0	n/a	n/a	0.0	1	left	n/a	n/a	n/a	0	-0.0756670361385	blockFiles/set_23/main_PD/GB_runPatches1.xlsx
159	patches	True	n/a	331	0	n/a	n/a	0.0	1	left	n/a	n/a	n/a	0	-0.0058104692399499995	blockFiles/set_23/main_PD/GB_runPatches1.xlsx
160	patches	True	n/a	331	0	n/a	n/a	n/a	0	None	n/a	n/a	n/a	1	0.0374020364881	blockFiles/set_23/main_PD/GB_runPatches1.xlsx
161	patches	True	n/a	331	0	n/a	n/a	1.0	1	right	n/a	n/a	n/a	1	0.0659503651783	blockFiles/set_23/main_PD/GB_runPatches1.xlsx
162	patches	True	n/a	331	0	n/a	n/a	1.0	1	right	n/a	n/a	n/a	1	0.0724119138531	blockFiles/set_23/main_PD/GB_runPatches1.xlsx
163	patches	True	n/a	331	0	n/a	n/a	0.0	1	left	n/a	n/a	n/a	0	-0.0246666073427	blockFiles/set_23/main_PD/GB_runPatches1.xlsx
164	patches	True	n/a	331	0	n/a	n/a	0.0	1	left	n/a	n/a	n/a	0	-0.047977876793599994	blockFiles/set_23/main_PD/GB_runPatches1.xlsx
165	patches	True	n/a	331	0	n/a	n/a	1.0	1	right	n/a	n/a	n/a	1	0.051475222464699995	blockFiles/set_23/main_PD/GB_runPatches1.xlsx
166	patches	True	n/a	331	0	n/a	n/a	1.0	1	right	n/a	n/a	n/a	1	0.0330028923042	blockFiles/set_23/main_PD/GB_runPatches1.xlsx
167	patches	True	n/a	331	0	n/a	n/a	0.0	1	left	n/a	n/a	n/a	0	-0.0651924742386	blockFiles/set_23/main_PD/GB_runPatches1.xlsx
168	patches	True	n/a	331	0	n/a	n/a	0.0	1	left	n/a	n/a	n/a	0	-0.00838006284088	blockFiles/set_23/main_PD/GB_runPatches1.xlsx
169	patches	True	n/a	331	0	n/a	n/a	1.0	1	right	n/a	n/a	n/a	1	0.0703504457511	blockFiles/set_23/main_PD/GB_runPatches1.xlsx
170	patches	True	n/a	331	0	n/a	n/a	0.0	0	left	n/a	n/a	n/a	1	0.007378758210689999	blockFiles/set_23/main_PD/GB_runPatches1.xlsx
171	patches	True	n/a	331	0	n/a	n/a	0.0	1	left	n/a	n/a	n/a	0	-0.049378183297800006	blockFiles/set_23/main_PD/GB_runPatches1.xlsx
172	patches	True	n/a	331	0	n/a	n/a	0.0	1	left	n/a	n/a	n/a	0	-0.034827400483199995	blockFiles/set_23/main_PD/GB_runPatches1.xlsx
173	patches	True	n/a	331	0	n/a	n/a	1.0	1	right	n/a	n/a	n/a	1	0.0470741976425	blockFiles/set_23/main_PD/GB_runPatches1.xlsx
174	patches	True	n/a	331	0	n/a	n/a	1.0	1	right	n/a	n/a	n/a	1	0.0620507080108	blockFiles/set_23/main_PD/GB_runPatches1.xlsx
175	patches	True	n/a	331	0	n/a	n/a	0.0	1	left	n/a	n/a	n/a	0	-0.023589407075200002	blockFiles/set_23/main_PD/GB_runPatches1.xlsx
176	patches	True	n/a	331	0	n/a	n/a	0.0	1	left	n/a	n/a	n/a	0	-0.0675857933424	blockFiles/set_23/main_PD/GB_runPatches1.xlsx
177	patches	True	n/a	331	0	n/a	n/a	1.0	1	right	n/a	n/a	n/a	1	0.035988954957599996	blockFiles/set_23/main_PD/GB_runPatches1.xlsx
178	patches	True	n/a	331	0	n/a	n/a	1.0	1	right	n/a	n/a	n/a	1	0.026137282066000002	blockFiles/set_23/main_PD/GB_runPatches1.xlsx
179	patches	True	n/a	331	0	n/a	n/a	0.0	1	left	n/a	n/a	n/a	0	-0.0245237340033	blockFiles/set_23/main_PD/GB_runPatches1.xlsx
180	patches	True	n/a	331	0	n/a	n/a	0.0	1	left	n/a	n/a	n/a	0	-0.027497157696599998	blockFiles/set_23/main_PD/GB_runPatches1.xlsx
181	patches	True	n/a	331	0	n/a	n/a	0.0	1	left	n/a	n/a	n/a	0	-0.0163147261739	blockFiles/set_23/main_PD/GB_runPatches1.xlsx
182	patches	True	n/a	331	0	n/a	n/a	0.0	0	left	n/a	n/a	n/a	1	0.0332414615527	blockFiles/set_23/main_PD/GB_runPatches1.xlsx
183	patches	True	n/a	331	0	n/a	n/a	0.0	1	left	n/a	n/a	n/a	0	-0.0411967694201	blockFiles/set_23/main_PD/GB_runPatches1.xlsx
184	patches	True	n/a	331	0	n/a	n/a	0.0	0	left	n/a	n/a	n/a	1	0.052985432744000006	blockFiles/set_23/main_PD/GB_runPatches1.xlsx
185	patches	True	n/a	331	0	n/a	n/a	1.0	1	right	n/a	n/a	n/a	1	0.0714482058957	blockFiles/set_23/main_PD/GB_runPatches1.xlsx
186	patches	True	n/a	331	0	n/a	n/a	0.0	0	left	n/a	n/a	n/a	1	0.012649015151	blockFiles/set_23/main_PD/GB_runPatches1.xlsx
187	patches	True	n/a	331	0	n/a	n/a	0.0	1	left	n/a	n/a	n/a	0	-0.048770607803	blockFiles/set_23/main_PD/GB_runPatches1.xlsx
188	patches	True	n/a	331	0	n/a	n/a	1.0	1	right	n/a	n/a	n/a	1	0.0442167019472	blockFiles/set_23/main_PD/GB_runPatches1.xlsx
189	patches	True	n/a	331	0	n/a	n/a	0.0	0	left	n/a	n/a	n/a	1	0.037788721248499996	blockFiles/set_23/main_PD/GB_runPatches1.xlsx
190	patches	True	n/a	331	0	n/a	n/a	0.0	0	left	n/a	n/a	n/a	1	0.019334955159599997	blockFiles/set_23/main_PD/GB_runPatches1.xlsx
191	patches	True	n/a	331	0	n/a	n/a	1.0	1	right	n/a	n/a	n/a	1	0.0482630651444	blockFiles/set_23/main_PD/GB_runPatches1.xlsx
192	patches	True	n/a	331	0	n/a	n/a	0.0	1	left	n/a	n/a	n/a	0	-0.0293049669825	blockFiles/set_23/main_PD/GB_runPatches1.xlsx
193	patches	True	n/a	331	0	n/a	n/a	1.0	1	right	n/a	n/a	n/a	1	0.057528915274900005	blockFiles/set_23/main_PD/GB_runPatches1.xlsx
194	patches	True	n/a	331	0	n/a	n/a	1.0	1	right	n/a	n/a	n/a	1	0.0586723903008	blockFiles/set_23/main_PD/GB_runPatches1.xlsx
195	patches	True	n/a	331	0	n/a	n/a	1.0	1	right	n/a	n/a	n/a	1	0.0780956811272	blockFiles/set_23/main_PD/GB_runPatches1.xlsx
196	patches	True	n/a	331	0	n/a	n/a	0.0	0	left	n/a	n/a	n/a	1	0.013384014070000002	blockFiles/set_23/main_PD/GB_runPatches1.xlsx
197	patches	True	n/a	331	0	n/a	n/a	0.0	1	left	n/a	n/a	n/a	0	-0.011776353344299998	blockFiles/set_23/main_PD/GB_runPatches1.xlsx
198	patches	True	n/a	331	0	n/a	n/a	1.0	1	right	n/a	n/a	n/a	1	0.0497794903442	blockFiles/set_23/main_PD/GB_runPatches1.xlsx
199	patches	True	n/a	331	0	n/a	n/a	0.0	1	left	n/a	n/a	n/a	0	-0.0680028615147	blockFiles/set_23/main_PD/GB_runPatches1.xlsx
200	patches	True	n/a	331	0	n/a	n/a	0.0	0	left	n/a	n/a	n/a	1	0.000992222391069	blockFiles/set_23/main_PD/GB_runPatches1.xlsx
201	patches	True	n/a	331	0	n/a	n/a	0.0	1	left	n/a	n/a	n/a	0	-0.0261593990587	blockFiles/set_23/main_PD/GB_runPatches1.xlsx
202	patches	True	n/a	331	0	n/a	n/a	0.0	1	left	n/a	n/a	n/a	0	-0.05116437863559999	blockFiles/set_23/main_PD/GB_runPatches1.xlsx
203	patches	True	n/a	331	0	n/a	n/a	0.0	1	left	n/a	n/a	n/a	0	-0.0420695902593	blockFiles/set_23/main_PD/GB_runPatches1.xlsx
204	patches	True	n/a	331	0	n/a	n/a	0.0	1	left	n/a	n/a	n/a	0	-0.07654410641639998	blockFiles/set_23/main_PD/GB_runPatches1.xlsx
205	patches	True	n/a	331	0	n/a	n/a	0.0	0	left	n/a	n/a	n/a	1	0.0188447894156	blockFiles/set_23/main_PD/GB_runPatches1.xlsx
206	patches	True	n/a	331	0	n/a	n/a	1.0	1	right	n/a	n/a	n/a	1	0.0347523283958	blockFiles/set_23/main_PD/GB_runPatches1.xlsx
207	patches	True	n/a	331	0	n/a	n/a	0.0	1	left	n/a	n/a	n/a	0	-0.05284309366719999	blockFiles/set_23/main_PD/GB_runPatches1.xlsx
208	patches	True	n/a	331	0	n/a	n/a	1.0	1	right	n/a	n/a	n/a	1	0.05584475426	blockFiles/set_23/main_PD/GB_runPatches1.xlsx
209	patches	True	n/a	331	0	n/a	n/a	0.0	0	left	n/a	n/a	n/a	1	0.0351578347199	blockFiles/set_23/main_PD/GB_runPatches1.xlsx
210	patches	True	n/a	331	0	n/a	n/a	0.0	1	left	n/a	n/a	n/a	0	-0.0702283728123	blockFiles/set_23/main_PD/GB_runPatches1.xlsx
211	patches	True	n/a	331	0	n/a	n/a	0.0	1	left	n/a	n/a	n/a	0	-0.0029716712608899997	blockFiles/set_23/main_PD/GB_runPatches1.xlsx
212	patches	True	n/a	331	0	n/a	n/a	0.0	0	left	n/a	n/a	n/a	1	0.024796734564	blockFiles/set_23/main_PD/GB_runPatches1.xlsx
213	patches	True	n/a	331	0	n/a	n/a	0.0	0	left	n/a	n/a	n/a	1	0.0442328910157	blockFiles/set_23/main_PD/GB_runPatches1.xlsx
214	patches	True	n/a	331	0	n/a	n/a	1.0	1	right	n/a	n/a	n/a	1	0.0146577566117	blockFiles/set_23/main_PD/GB_runPatches1.xlsx
215	patches	True	n/a	331	0	n/a	n/a	1.0	1	right	n/a	n/a	n/a	1	0.0674045727588	blockFiles/set_23/main_PD/GB_runPatches1.xlsx
216	patches	True	n/a	331	0	n/a	n/a	1.0	1	right	n/a	n/a	n/a	1	0.0508810087107	blockFiles/set_23/main_PD/GB_runPatches1.xlsx
217	patches	True	n/a	331	0	n/a	n/a	0.0	0	left	n/a	n/a	n/a	1	0.021931733656700002	blockFiles/set_23/main_PD/GB_runPatches1.xlsx
218	patches	True	n/a	331	0	n/a	n/a	0.0	1	left	n/a	n/a	n/a	0	-0.0592644914612	blockFiles/set_23/main_PD/GB_runPatches1.xlsx
219	patches	True	n/a	331	0	n/a	n/a	0.0	0	left	n/a	n/a	n/a	1	0.00517242239788	blockFiles/set_23/main_PD/GB_runPatches1.xlsx
220	patches	True	n/a	331	0	n/a	n/a	0.0	0	left	n/a	n/a	n/a	1	0.0308099795692	blockFiles/set_23/main_PD/GB_runPatches1.xlsx
221	patches	True	n/a	331	0	n/a	n/a	0.0	0	left	n/a	n/a	n/a	1	0.0167546431161	blockFiles/set_23/main_PD/GB_runPatches1.xlsx
222	patches	True	n/a	331	0	n/a	n/a	0.0	0	left	n/a	n/a	n/a	1	0.0648795583844	blockFiles/set_23/main_PD/GB_runPatches1.xlsx
223	patches	True	n/a	331	0	n/a	n/a	0.0	1	left	n/a	n/a	n/a	0	-0.0483796414919	blockFiles/set_23/main_PD/GB_runPatches1.xlsx
224	patches	True	n/a	331	0	n/a	n/a	0.0	1	left	n/a	n/a	n/a	0	-0.027040077410599998	blockFiles/set_23/main_PD/GB_runPatches1.xlsx
225	patches	True	n/a	331	0	n/a	n/a	1.0	1	right	n/a	n/a	n/a	1	0.0465991173126	blockFiles/set_23/main_PD/GB_runPatches1.xlsx
226	patches	True	n/a	331	0	n/a	n/a	0.0	1	left	n/a	n/a	n/a	0	-0.049844873007399995	blockFiles/set_23/main_PD/GB_runPatches1.xlsx
227	patches	True	n/a	331	0	n/a	n/a	1.0	1	right	n/a	n/a	n/a	1	0.032978217434099996	blockFiles/set_23/main_PD/GB_runPatches1.xlsx
228	patches	True	n/a	331	0	n/a	n/a	0.0	0	left	n/a	n/a	n/a	1	0.00762882785872	blockFiles/set_23/main_PD/GB_runPatches1.xlsx
229	patches	True	n/a	331	0	n/a	n/a	0.0	1	left	n/a	n/a	n/a	0	-0.0703237700649	blockFiles/set_23/main_PD/GB_runPatches1.xlsx
230	patches	True	n/a	331	0	n/a	n/a	0.0	0	left	n/a	n/a	n/a	1	0.00778994297609	blockFiles/set_23/main_PD/GB_runPatches1.xlsx
231	patches	True	n/a	331	0	n/a	n/a	0.0	0	left	n/a	n/a	n/a	1	0.0479706239514	blockFiles/set_23/main_PD/GB_runPatches1.xlsx
232	patches	True	n/a	331	0	n/a	n/a	0.0	1	left	n/a	n/a	n/a	0	-0.060572763346100005	blockFiles/set_23/main_PD/GB_runPatches1.xlsx
233	patches	True	n/a	331	0	n/a	n/a	0.0	1	left	n/a	n/a	n/a	0	-0.07431035948919999	blockFiles/set_23/main_PD/GB_runPatches1.xlsx
234	patches	True	n/a	331	0	n/a	n/a	0.0	1	left	n/a	n/a	n/a	0	-0.00676147252321	blockFiles/set_23/main_PD/GB_runPatches1.xlsx
235	patches	True	n/a	331	0	n/a	n/a	0.0	1	left	n/a	n/a	n/a	0	-0.017854669913599998	blockFiles/set_23/main_PD/GB_runPatches1.xlsx
236	patches	True	n/a	331	0	n/a	n/a	0.0	1	left	n/a	n/a	n/a	0	-0.047132050842000006	blockFiles/set_23/main_PD/GB_runPatches1.xlsx
237	patches	True	n/a	331	0	n/a	n/a	0.0	1	left	n/a	n/a	n/a	0	-0.00315593002364	blockFiles/set_23/main_PD/GB_runPatches1.xlsx
238	patches	True	n/a	331	0	n/a	n/a	0.0	1	left	n/a	n/a	n/a	0	-0.017942136377099998	blockFiles/set_23/main_PD/GB_runPatches1.xlsx
239	patches	True	n/a	331	0	n/a	n/a	0.0	1	left	n/a	n/a	n/a	0	-0.055182293858400004	blockFiles/set_23/main_PD/GB_runPatches1.xlsx
240	patches	True	n/a	331	0	n/a	n/a	1.0	1	right	n/a	n/a	n/a	1	0.0702681247331	blockFiles/set_23/main_PD/GB_runPatches1.xlsx
241	patches	True	n/a	331	0	n/a	n/a	1.0	1	right	n/a	n/a	n/a	1	0.0433952205628	blockFiles/set_23/main_PD/GB_runPatches1.xlsx
242	patches	True	n/a	331	0	n/a	n/a	0.0	1	left	n/a	n/a	n/a	0	-0.014790893700000002	blockFiles/set_23/main_PD/GB_runPatches1.xlsx
243	patches	True	n/a	331	0	n/a	n/a	0.0	1	left	n/a	n/a	n/a	0	-0.07147811679169999	blockFiles/set_23/main_PD/GB_runPatches1.xlsx
244	patches	True	n/a	331	0	n/a	n/a	0.0	1	left	n/a	n/a	n/a	0	-0.007161304056640001	blockFiles/set_23/main_PD/GB_runPatches1.xlsx
245	patches	True	n/a	331	0	n/a	n/a	0.0	1	left	n/a	n/a	n/a	0	-0.0659741734341	blockFiles/set_23/main_PD/GB_runPatches1.xlsx
246	patches	True	n/a	331	0	n/a	n/a	0.0	1	left	n/a	n/a	n/a	0	-0.061207916475800005	blockFiles/set_23/main_PD/GB_runPatches1.xlsx
247	patches	True	n/a	331	0	n/a	n/a	0.0	0	left	n/a	n/a	n/a	1	0.038531785700500004	blockFiles/set_23/main_PD/GB_runPatches1.xlsx
248	patches	True	n/a	331	0	n/a	n/a	0.0	1	left	n/a	n/a	n/a	0	-0.005016714967789999	blockFiles/set_23/main_PD/GB_runPatches1.xlsx
249	patches	True	n/a	331	0	n/a	n/a	0.0	1	left	n/a	n/a	n/a	0	-0.0166735113785	blockFiles/set_23/main_PD/GB_runPatches1.xlsx
250	patches	True	n/a	331	0	n/a	n/a	1.0	1	right	n/a	n/a	n/a	1	0.0725568273477	blockFiles/set_23/main_PD/GB_runPatches1.xlsx
251	patches	True	n/a	331	0	n/a	n/a	0.0	1	left	n/a	n/a	n/a	0	-0.0504526272789	blockFiles/set_23/main_PD/GB_runPatches1.xlsx
252	main_unc	True	1.0	331	0	0.0	0.0	n/a	0	None	n/a	0.0	n/a	1	0.0070641258358999995	blockFiles/set_23/main_unc/leftBlue\GB_LB_6.xlsx
253	main_unc	True	0.0	331	0	0.0	0.0	0.0	1	left	1.0	0.0	0.0	0	-0.04848488271240001	blockFiles/set_23/main_unc/leftBlue\GB_LB_6.xlsx
254	main_unc	True	0.0	331	0	0.0	0.0	0.0	1	left	1.0	1.0	0.0	0	-0.048407839015100006	blockFiles/set_23/main_unc/leftBlue\GB_LB_6.xlsx
255	main_unc	True	0.0	331	0	0.0	0.0	0.0	1	left	1.0	0.0	0.0	0	-0.015340248365	blockFiles/set_23/main_unc/leftBlue\GB_LB_6.xlsx
256	main_unc	True	0.0	331	0	0.0	0.0	1.0	1	right	1.0	1.0	1.0	1	0.045422239061400006	blockFiles/set_23/main_unc/leftBlue\GB_LB_6.xlsx
257	main_unc	True	0.0	331	0	0.0	0.0	0.0	1	left	2.0	0.0	1.0	0	-0.00742534955963	blockFiles/set_23/main_unc/leftBlue\GB_LB_6.xlsx
258	main_unc	True	0.0	331	0	0.0	0.0	1.0	1	right	1.0	1.0	1.0	1	0.07690514681860001	blockFiles/set_23/main_unc/leftBlue\GB_LB_6.xlsx
259	main_unc	True	0.0	331	0	0.0	0.0	1.0	1	right	1.0	1.0	1.0	1	0.03491553651169999	blockFiles/set_23/main_unc/leftBlue\GB_LB_6.xlsx
260	main_unc	True	1.0	331	0	0.0	0.0	n/a	0	None	n/a	0.0	n/a	0	-0.010775384958799998	blockFiles/set_23/main_unc/leftBlue\GB_LB_6.xlsx
261	main_unc	True	0.0	331	0	0.0	0.0	0.0	1	left	2.0	0.0	1.0	0	-0.052059871275	blockFiles/set_23/main_unc/leftBlue\GB_LB_6.xlsx
262	main_unc	True	0.0	331	0	0.0	0.0	1.0	1	right	1.0	1.0	1.0	1	0.00812120944262	blockFiles/set_23/main_unc/leftBlue\GB_LB_6.xlsx
263	main_unc	True	0.0	331	0	0.0	0.0	1.0	0	right	2.0	1.0	1.0	0	-0.037217452917199995	blockFiles/set_23/main_unc/leftBlue\GB_LB_6.xlsx
264	main_unc	True	0.0	331	0	0.0	0.0	1.0	1	right	1.0	1.0	1.0	1	0.0494611188583	blockFiles/set_23/main_unc/leftBlue\GB_LB_6.xlsx
265	main_unc	True	0.0	331	0	0.0	0.0	0.0	1	left	2.0	1.0	1.0	0	-0.00920946413651	blockFiles/set_23/main_unc/leftBlue\GB_LB_6.xlsx
266	main_unc	True	0.0	331	0	0.0	0.0	0.0	1	left	2.0	1.0	1.0	0	-0.0710620746203	blockFiles/set_23/main_unc/leftBlue\GB_LB_6.xlsx
267	main_unc	True	0.0	331	0	0.0	0.0	0.0	0	left	1.0	0.0	1.0	1	0.021388613004200002	blockFiles/set_23/main_unc/leftBlue\GB_LB_6.xlsx
268	main_unc	True	0.0	331	0	0.0	0.0	1.0	1	right	1.0	1.0	1.0	1	0.061425105314699996	blockFiles/set_23/main_unc/leftBlue\GB_LB_6.xlsx
269	main_unc	True	0.0	331	0	0.0	0.0	1.0	1	right	1.0	1.0	1.0	1	0.0491745482944	blockFiles/set_23/main_unc/leftBlue\GB_LB_6.xlsx
270	main_unc	True	0.0	331	0	0.0	0.0	0.0	1	left	2.0	1.0	1.0	0	-0.0601220439561	blockFiles/set_23/main_unc/leftBlue\GB_LB_6.xlsx
271	main_unc	True	0.0	331	0	0.0	0.0	1.0	1	right	1.0	1.0	1.0	1	0.046448240131099994	blockFiles/set_23/main_unc/leftBlue\GB_LB_6.xlsx
272	main_unc	True	0.0	331	0	0.0	0.0	1.0	1	right	1.0	1.0	1.0	1	0.0190716462955	blockFiles/set_23/main_unc/leftBlue\GB_LB_6.xlsx
273	main_unc	True	0.0	331	0	0.0	0.0	0.0	1	left	2.0	1.0	1.0	0	-0.0350504002906	blockFiles/set_23/main_unc/leftBlue\GB_LB_6.xlsx
274	main_unc	True	0.0	331	0	0.0	0.0	0.0	1	left	2.0	1.0	1.0	0	-0.057793115768599995	blockFiles/set_23/main_unc/leftBlue\GB_LB_6.xlsx
275	main_unc	True	0.0	331	0	0.0	0.0	0.0	0	left	1.0	1.0	1.0	1	0.015045085623899999	blockFiles/set_23/main_unc/leftBlue\GB_LB_6.xlsx
276	main_unc	True	0.0	331	0	0.0	0.0	0.0	1	left	2.0	1.0	1.0	0	-0.071284864638	blockFiles/set_23/main_unc/leftBlue\GB_LB_6.xlsx
277	main_unc	True	0.0	331	0	0.0	0.0	1.0	1	right	1.0	1.0	1.0	1	0.0070641258358999995	blockFiles/set_23/main_unc/leftBlue\GB_LB_6.xlsx
278	main_unc	True	0.0	331	0	0.0	0.0	0.0	1	left	2.0	1.0	1.0	0	-0.010775384958799998	blockFiles/set_23/main_unc/leftBlue\GB_LB_6.xlsx
279	main_unc	True	1.0	331	0	1.0	1.0	n/a	0	None	n/a	0.0	n/a	1	0.034213410876700004	blockFiles/set_23/main_unc/rightBlue\GB_RB_1.xlsx
280	main_unc	True	0.0	331	0	1.0	1.0	0.0	1	left	1.0	1.0	1.0	0	-0.028625321481400002	blockFiles/set_23/main_unc/rightBlue\GB_RB_1.xlsx
281	main_unc	True	0.0	331	0	1.0	1.0	0.0	1	left	1.0	1.0	1.0	0	-0.0685355735384	blockFiles/set_23/main_unc/rightBlue\GB_RB_1.xlsx
282	main_unc	True	0.0	331	0	1.0	1.0	1.0	0	right	2.0	0.0	0.0	0	-0.00355479905382	blockFiles/set_23/main_unc/rightBlue\GB_RB_1.xlsx
283	main_unc	True	0.0	331	0	1.0	1.0	1.0	1	right	2.0	1.0	1.0	1	0.061463516373199995	blockFiles/set_23/main_unc/rightBlue\GB_RB_1.xlsx
284	main_unc	True	0.0	331	0	1.0	1.0	0.0	1	left	1.0	0.0	1.0	0	-0.0421724813245	blockFiles/set_23/main_unc/rightBlue\GB_RB_1.xlsx
285	main_unc	True	0.0	331	0	1.0	1.0	1.0	1	right	2.0	1.0	1.0	1	0.0343219837733	blockFiles/set_23/main_unc/rightBlue\GB_RB_1.xlsx
286	main_unc	True	0.0	331	0	1.0	1.0	0.0	1	left	1.0	1.0	1.0	0	-0.0698317899369	blockFiles/set_23/main_unc/rightBlue\GB_RB_1.xlsx
287	main_unc	True	0.0	331	0	1.0	1.0	0.0	1	left	1.0	1.0	1.0	0	-0.0394806370139	blockFiles/set_23/main_unc/rightBlue\GB_RB_1.xlsx
288	main_unc	True	0.0	331	0	1.0	1.0	1.0	1	right	2.0	1.0	1.0	1	0.0299464209378	blockFiles/set_23/main_unc/rightBlue\GB_RB_1.xlsx
289	main_unc	True	0.0	331	0	1.0	1.0	0.0	1	left	1.0	1.0	1.0	0	-0.021103689968599997	blockFiles/set_23/main_unc/rightBlue\GB_RB_1.xlsx
290	main_unc	True	0.0	331	0	1.0	1.0	0.0	1	left	1.0	1.0	1.0	0	-0.0372945546545	blockFiles/set_23/main_unc/rightBlue\GB_RB_1.xlsx
291	main_unc	True	0.0	331	0	1.0	1.0	0.0	1	left	1.0	1.0	1.0	0	-0.0430386622064	blockFiles/set_23/main_unc/rightBlue\GB_RB_1.xlsx
292	main_unc	True	0.0	331	0	1.0	1.0	1.0	1	right	2.0	1.0	1.0	1	0.07581749161710001	blockFiles/set_23/main_unc/rightBlue\GB_RB_1.xlsx
293	main_unc	True	0.0	331	0	1.0	1.0	0.0	1	left	1.0	0.0	1.0	0	-0.06686590641739999	blockFiles/set_23/main_unc/rightBlue\GB_RB_1.xlsx
294	main_unc	True	0.0	331	0	1.0	1.0	0.0	1	left	1.0	1.0	1.0	0	-0.053264534175399995	blockFiles/set_23/main_unc/rightBlue\GB_RB_1.xlsx
295	main_unc	True	0.0	331	0	1.0	1.0	1.0	1	right	2.0	1.0	1.0	1	0.0705141934007	blockFiles/set_23/main_unc/rightBlue\GB_RB_1.xlsx
296	main_unc	True	0.0	331	0	1.0	1.0	0.0	1	left	1.0	1.0	1.0	0	-0.019306503515700003	blockFiles/set_23/main_unc/rightBlue\GB_RB_1.xlsx
297	main_unc	True	0.0	331	0	1.0	1.0	0.0	0	left	2.0	1.0	1.0	1	0.00905542496592	blockFiles/set_23/main_unc/rightBlue\GB_RB_1.xlsx
298	main_unc	True	0.0	331	0	1.0	1.0	1.0	1	right	2.0	1.0	1.0	1	0.0154507781938	blockFiles/set_23/main_unc/rightBlue\GB_RB_1.xlsx
299	main_unc	True	0.0	331	0	1.0	1.0	1.0	1	right	2.0	0.0	1.0	1	0.0574759565666	blockFiles/set_23/main_unc/rightBlue\GB_RB_1.xlsx
300	main_unc	True	0.0	331	0	1.0	1.0	0.0	1	left	1.0	1.0	1.0	0	-0.0336184576899	blockFiles/set_23/main_unc/rightBlue\GB_RB_1.xlsx
301	main_unc	True	0.0	331	0	1.0	1.0	1.0	1	right	2.0	1.0	1.0	1	0.0589264474809	blockFiles/set_23/main_unc/rightBlue\GB_RB_1.xlsx
302	main_unc	True	0.0	331	0	1.0	1.0	0.0	1	left	1.0	0.0	1.0	0	-0.06110798643899999	blockFiles/set_23/main_unc/rightBlue\GB_RB_1.xlsx
303	main_unc	True	0.0	331	0	1.0	1.0	1.0	1	right	2.0	1.0	1.0	1	0.0170017834939	blockFiles/set_23/main_unc/rightBlue\GB_RB_1.xlsx
304	main_unc	True	0.0	331	0	1.0	1.0	0.0	0	left	2.0	0.0	1.0	1	0.034213410876700004	blockFiles/set_23/main_unc/rightBlue\GB_RB_1.xlsx
305	main_unc	True	0.0	331	0	2.0	2.0	1.0	1	right	2.0	1.0	0.0	1	0.0518322615139	blockFiles/set_23/main_unc/leftBlue\GB_LB_1.xlsx
306	main_unc	True	0.0	331	0	2.0	2.0	0.0	1	left	1.0	0.0	0.0	0	-0.0326901605912	blockFiles/set_23/main_unc/leftBlue\GB_LB_1.xlsx
307	main_unc	True	0.0	331	0	2.0	2.0	1.0	1	right	2.0	0.0	0.0	1	0.06801026908680001	blockFiles/set_23/main_unc/leftBlue\GB_LB_1.xlsx
308	main_unc	True	0.0	331	0	2.0	2.0	0.0	1	left	2.0	1.0	1.0	0	-0.0569886146858	blockFiles/set_23/main_unc/leftBlue\GB_LB_1.xlsx
309	main_unc	True	0.0	331	0	2.0	2.0	0.0	1	left	2.0	1.0	1.0	0	-0.00823214830831	blockFiles/set_23/main_unc/leftBlue\GB_LB_1.xlsx
310	main_unc	True	0.0	331	0	2.0	2.0	1.0	1	right	1.0	0.0	1.0	1	0.041676363684199996	blockFiles/set_23/main_unc/leftBlue\GB_LB_1.xlsx
311	main_unc	True	0.0	331	0	2.0	2.0	1.0	1	right	2.0	0.0	0.0	1	0.0266301211528	blockFiles/set_23/main_unc/leftBlue\GB_LB_1.xlsx
312	main_unc	True	0.0	331	0	2.0	2.0	1.0	1	right	1.0	1.0	1.0	1	0.07544201996180001	blockFiles/set_23/main_unc/leftBlue\GB_LB_1.xlsx
313	main_unc	True	0.0	331	0	2.0	2.0	0.0	1	left	2.0	1.0	1.0	0	-0.0202730603144	blockFiles/set_23/main_unc/leftBlue\GB_LB_1.xlsx
314	main_unc	True	0.0	331	0	2.0	2.0	0.0	1	left	2.0	1.0	1.0	0	-0.0640503402799	blockFiles/set_23/main_unc/leftBlue\GB_LB_1.xlsx
315	main_unc	True	0.0	331	0	2.0	2.0	0.0	1	left	2.0	0.0	1.0	0	-0.0206841432676	blockFiles/set_23/main_unc/leftBlue\GB_LB_1.xlsx
316	main_unc	True	0.0	331	0	2.0	2.0	0.0	0	left	1.0	1.0	1.0	1	0.010628533531	blockFiles/set_23/main_unc/leftBlue\GB_LB_1.xlsx
317	main_unc	True	0.0	331	0	2.0	2.0	0.0	1	left	2.0	1.0	1.0	0	-0.059588966984299996	blockFiles/set_23/main_unc/leftBlue\GB_LB_1.xlsx
318	main_unc	True	0.0	331	0	2.0	2.0	0.0	1	left	2.0	1.0	1.0	0	-0.0027851462923000002	blockFiles/set_23/main_unc/leftBlue\GB_LB_1.xlsx
319	main_unc	True	0.0	331	0	2.0	2.0	0.0	1	left	2.0	1.0	1.0	0	-0.00981672763824	blockFiles/set_23/main_unc/leftBlue\GB_LB_1.xlsx
320	main_unc	True	0.0	331	0	2.0	2.0	1.0	1	right	1.0	1.0	1.0	1	0.062175680175400004	blockFiles/set_23/main_unc/leftBlue\GB_LB_1.xlsx
321	main_unc	True	0.0	331	0	2.0	2.0	1.0	1	right	1.0	1.0	1.0	1	0.0479388239793	blockFiles/set_23/main_unc/leftBlue\GB_LB_1.xlsx
322	main_unc	True	0.0	331	0	2.0	2.0	0.0	1	left	2.0	0.0	1.0	0	-0.028993604444	blockFiles/set_23/main_unc/leftBlue\GB_LB_1.xlsx
323	main_unc	True	0.0	331	0	2.0	2.0	1.0	1	right	1.0	0.0	1.0	1	0.055697080120400005	blockFiles/set_23/main_unc/leftBlue\GB_LB_1.xlsx
324	main_unc	True	0.0	331	0	2.0	2.0	1.0	1	right	1.0	1.0	1.0	1	0.054958817362800005	blockFiles/set_23/main_unc/leftBlue\GB_LB_1.xlsx
325	main_unc	True	0.0	331	0	2.0	2.0	1.0	1	right	1.0	1.0	1.0	1	0.0530742741376	blockFiles/set_23/main_unc/leftBlue\GB_LB_1.xlsx
326	main_unc	True	0.0	331	0	2.0	2.0	1.0	1	right	1.0	1.0	1.0	1	0.0447346031666	blockFiles/set_23/main_unc/leftBlue\GB_LB_1.xlsx
327	main_unc	True	0.0	331	0	2.0	2.0	0.0	1	left	2.0	1.0	1.0	0	-0.00357923191041	blockFiles/set_23/main_unc/leftBlue\GB_LB_1.xlsx
328	main_unc	True	0.0	331	0	2.0	2.0	0.0	1	left	2.0	1.0	1.0	0	-0.012838501799899999	blockFiles/set_23/main_unc/leftBlue\GB_LB_1.xlsx
329	main_unc	True	0.0	331	0	2.0	2.0	1.0	1	right	1.0	1.0	1.0	1	0.0673251750693	blockFiles/set_23/main_unc/leftBlue\GB_LB_1.xlsx
330	main_unc	True	0.0	331	0	3.0	3.0	0.0	1	left	1.0	1.0	1.0	0	-0.033523917198200005	blockFiles/set_23/main_unc/rightBlue\GB_RB_2.xlsx
331	main_unc	True	0.0	331	0	3.0	3.0	1.0	1	right	2.0	1.0	1.0	1	0.0664336420968	blockFiles/set_23/main_unc/rightBlue\GB_RB_2.xlsx
332	main_unc	True	0.0	331	0	3.0	3.0	0.0	1	left	1.0	0.0	1.0	0	-0.00633983753622	blockFiles/set_23/main_unc/rightBlue\GB_RB_2.xlsx
333	main_unc	True	0.0	331	0	3.0	3.0	0.0	1	left	1.0	1.0	1.0	0	-0.07026703936980001	blockFiles/set_23/main_unc/rightBlue\GB_RB_2.xlsx
334	main_unc	True	0.0	331	0	3.0	3.0	1.0	1	right	2.0	0.0	1.0	1	0.0307418403216	blockFiles/set_23/main_unc/rightBlue\GB_RB_2.xlsx
335	main_unc	True	0.0	331	0	3.0	3.0	0.0	1	left	1.0	1.0	1.0	0	-0.025873252861200003	blockFiles/set_23/main_unc/rightBlue\GB_RB_2.xlsx
336	main_unc	True	0.0	331	0	3.0	3.0	0.0	1	left	1.0	1.0	1.0	0	-0.0457006403431	blockFiles/set_23/main_unc/rightBlue\GB_RB_2.xlsx
337	main_unc	True	0.0	331	0	3.0	3.0	0.0	0	left	2.0	1.0	1.0	1	0.0210574411228	blockFiles/set_23/main_unc/rightBlue\GB_RB_2.xlsx
338	main_unc	True	0.0	331	0	3.0	3.0	0.0	1	left	1.0	0.0	1.0	0	-0.00210941286758	blockFiles/set_23/main_unc/rightBlue\GB_RB_2.xlsx
339	main_unc	True	0.0	331	0	3.0	3.0	0.0	1	left	1.0	1.0	1.0	0	-0.042585159447	blockFiles/set_23/main_unc/rightBlue\GB_RB_2.xlsx
340	main_unc	True	0.0	331	0	3.0	3.0	0.0	1	left	1.0	1.0	1.0	0	-0.0712642910518	blockFiles/set_23/main_unc/rightBlue\GB_RB_2.xlsx
341	main_unc	True	0.0	331	0	3.0	3.0	0.0	1	left	1.0	1.0	1.0	0	-0.018474020604	blockFiles/set_23/main_unc/rightBlue\GB_RB_2.xlsx
342	main_unc	True	0.0	331	0	3.0	3.0	1.0	1	right	2.0	1.0	1.0	1	0.07054994910960001	blockFiles/set_23/main_unc/rightBlue\GB_RB_2.xlsx
343	main_unc	True	0.0	331	0	3.0	3.0	0.0	1	left	1.0	0.0	1.0	0	-0.074007659778	blockFiles/set_23/main_unc/rightBlue\GB_RB_2.xlsx
344	main_unc	True	0.0	331	0	3.0	3.0	1.0	1	right	2.0	1.0	1.0	1	0.0195927836932	blockFiles/set_23/main_unc/rightBlue\GB_RB_2.xlsx
345	main_unc	True	0.0	331	0	3.0	3.0	0.0	1	left	1.0	1.0	1.0	0	-0.0152748790756	blockFiles/set_23/main_unc/rightBlue\GB_RB_2.xlsx
346	main_unc	True	0.0	331	0	3.0	3.0	1.0	1	right	2.0	1.0	1.0	1	0.0616262347996	blockFiles/set_23/main_unc/rightBlue\GB_RB_2.xlsx
347	main_unc	True	0.0	331	0	3.0	3.0	1.0	1	right	2.0	1.0	1.0	1	0.032667210753999996	blockFiles/set_23/main_unc/rightBlue\GB_RB_2.xlsx
348	main_unc	True	0.0	331	0	3.0	3.0	1.0	1	right	2.0	1.0	1.0	1	0.0675286970474	blockFiles/set_23/main_unc/rightBlue\GB_RB_2.xlsx
349	main_unc	True	0.0	331	0	3.0	3.0	0.0	1	left	1.0	1.0	1.0	0	-0.0386444210447	blockFiles/set_23/main_unc/rightBlue\GB_RB_2.xlsx
350	main_unc	True	0.0	331	0	3.0	3.0	0.0	1	left	1.0	1.0	1.0	0	-0.0423198867217	blockFiles/set_23/main_unc/rightBlue\GB_RB_2.xlsx
351	main_unc	True	0.0	331	0	3.0	3.0	0.0	1	left	1.0	1.0	1.0	0	-0.0294071561657	blockFiles/set_23/main_unc/rightBlue\GB_RB_2.xlsx
352	main_unc	True	1.0	331	0	3.0	3.0	n/a	0	None	n/a	0.0	n/a	1	0.012827145159200002	blockFiles/set_23/main_unc/rightBlue\GB_RB_2.xlsx
353	main_unc	True	0.0	331	0	3.0	3.0	0.0	0	left	1.0	1.0	0.0	1	0.00641005404294	blockFiles/set_23/main_unc/rightBlue\GB_RB_2.xlsx
354	main_unc	True	0.0	331	0	3.0	3.0	1.0	1	right	2.0	0.0	1.0	1	0.053361515160600004	blockFiles/set_23/main_unc/rightBlue\GB_RB_2.xlsx
355	main_unc	True	0.0	331	0	3.0	3.0	0.0	0	left	2.0	1.0	1.0	1	0.012827145159200002	blockFiles/set_23/main_unc/rightBlue\GB_RB_2.xlsx
356	main_unc	True	0.0	331	0	4.0	4.0	1.0	1	right	1.0	1.0	1.0	1	0.06719301033769999	blockFiles/set_23/main_unc/leftBlue\GB_LB_2.xlsx
357	main_unc	True	0.0	331	0	4.0	4.0	0.0	1	left	2.0	0.0	1.0	0	-0.0491379415244	blockFiles/set_23/main_unc/leftBlue\GB_LB_2.xlsx
358	main_unc	True	0.0	331	0	4.0	4.0	0.0	1	left	2.0	1.0	1.0	0	-0.0479681681283	blockFiles/set_23/main_unc/leftBlue\GB_LB_2.xlsx
359	main_unc	True	0.0	331	0	4.0	4.0	0.0	1	left	2.0	1.0	1.0	0	-0.0670920860767	blockFiles/set_23/main_unc/leftBlue\GB_LB_2.xlsx
360	main_unc	True	0.0	331	0	4.0	4.0	0.0	1	left	2.0	1.0	1.0	0	-0.0106348522753	blockFiles/set_23/main_unc/leftBlue\GB_LB_2.xlsx
361	main_unc	True	0.0	331	0	4.0	4.0	1.0	1	right	1.0	1.0	1.0	1	0.0255169027299	blockFiles/set_23/main_unc/leftBlue\GB_LB_2.xlsx
362	main_unc	True	0.0	331	0	4.0	4.0	1.0	0	right	1.0	1.0	0.0	0	-0.0007133973389860001	blockFiles/set_23/main_unc/leftBlue\GB_LB_2.xlsx
363	main_unc	True	0.0	331	0	4.0	4.0	0.0	1	left	2.0	1.0	1.0	0	-0.06658773083240001	blockFiles/set_23/main_unc/leftBlue\GB_LB_2.xlsx
364	main_unc	True	0.0	331	0	4.0	4.0	1.0	1	right	1.0	1.0	1.0	1	0.0667221459374	blockFiles/set_23/main_unc/leftBlue\GB_LB_2.xlsx
365	main_unc	True	0.0	331	0	4.0	4.0	0.0	1	left	2.0	1.0	1.0	0	-0.07893521325660001	blockFiles/set_23/main_unc/leftBlue\GB_LB_2.xlsx
366	main_unc	True	0.0	331	0	4.0	4.0	0.0	0	left	2.0	1.0	0.0	1	0.0234165948257	blockFiles/set_23/main_unc/leftBlue\GB_LB_2.xlsx
367	main_unc	True	0.0	331	0	4.0	4.0	0.0	1	left	2.0	1.0	1.0	0	-0.0203434681892	blockFiles/set_23/main_unc/leftBlue\GB_LB_2.xlsx
368	main_unc	True	0.0	331	0	4.0	4.0	1.0	1	right	1.0	1.0	1.0	1	0.0617532745004	blockFiles/set_23/main_unc/leftBlue\GB_LB_2.xlsx
369	main_unc	True	0.0	331	0	4.0	4.0	1.0	1	right	1.0	1.0	1.0	1	0.0246224275231	blockFiles/set_23/main_unc/leftBlue\GB_LB_2.xlsx
370	main_unc	True	0.0	331	0	4.0	4.0	0.0	1	left	2.0	1.0	1.0	0	-0.011599999629	blockFiles/set_23/main_unc/leftBlue\GB_LB_2.xlsx
371	main_unc	True	0.0	331	0	4.0	4.0	1.0	1	right	1.0	1.0	1.0	1	0.07240337589760001	blockFiles/set_23/main_unc/leftBlue\GB_LB_2.xlsx
372	main_unc	True	0.0	331	0	4.0	4.0	0.0	0	left	2.0	0.0	0.0	1	0.0268730460852	blockFiles/set_23/main_unc/leftBlue\GB_LB_2.xlsx
373	main_unc	True	0.0	331	0	4.0	4.0	1.0	1	right	1.0	1.0	1.0	1	0.0366507925279	blockFiles/set_23/main_unc/leftBlue\GB_LB_2.xlsx
374	main_unc	True	0.0	331	0	4.0	4.0	1.0	1	right	1.0	1.0	1.0	1	0.0704026641324	blockFiles/set_23/main_unc/leftBlue\GB_LB_2.xlsx
375	main_unc	True	0.0	331	0	4.0	4.0	0.0	1	left	2.0	1.0	1.0	0	-0.0284666363709	blockFiles/set_23/main_unc/leftBlue\GB_LB_2.xlsx
376	main_unc	True	0.0	331	0	4.0	4.0	1.0	1	right	2.0	1.0	0.0	1	0.050773790478699996	blockFiles/set_23/main_unc/leftBlue\GB_LB_2.xlsx
377	main_unc	True	0.0	331	0	4.0	4.0	1.0	1	right	1.0	1.0	1.0	1	0.048094318900300005	blockFiles/set_23/main_unc/leftBlue\GB_LB_2.xlsx
378	main_unc	True	0.0	331	0	4.0	4.0	0.0	1	left	2.0	0.0	1.0	0	-0.024954239539799996	blockFiles/set_23/main_unc/leftBlue\GB_LB_2.xlsx
379	main_unc	True	0.0	331	0	4.0	4.0	0.0	1	left	2.0	1.0	1.0	0	-0.0357566640712	blockFiles/set_23/main_unc/leftBlue\GB_LB_2.xlsx
380	main_unc	True	0.0	331	0	4.0	4.0	0.0	1	left	2.0	1.0	1.0	0	-0.0499996490963	blockFiles/set_23/main_unc/leftBlue\GB_LB_2.xlsx
381	main_unc	True	0.0	331	0	5.0	5.0	0.0	1	left	1.0	0.0	1.0	0	-0.07015853237360001	blockFiles/set_23/main_unc/rightBlue\GB_RB_3.xlsx
382	main_unc	True	0.0	331	0	5.0	5.0	0.0	1	left	1.0	1.0	1.0	0	-0.0410958478414	blockFiles/set_23/main_unc/rightBlue\GB_RB_3.xlsx
383	main_unc	True	0.0	331	0	5.0	5.0	0.0	1	left	1.0	1.0	1.0	0	-0.0010853229649400002	blockFiles/set_23/main_unc/rightBlue\GB_RB_3.xlsx
384	main_unc	True	0.0	331	0	5.0	5.0	0.0	1	left	1.0	1.0	1.0	0	-0.0575190262869	blockFiles/set_23/main_unc/rightBlue\GB_RB_3.xlsx
385	main_unc	True	0.0	331	0	5.0	5.0	1.0	1	right	2.0	1.0	1.0	1	0.0186606641673	blockFiles/set_23/main_unc/rightBlue\GB_RB_3.xlsx
386	main_unc	True	0.0	331	0	5.0	5.0	0.0	1	left	1.0	1.0	1.0	0	-0.0434550076351	blockFiles/set_23/main_unc/rightBlue\GB_RB_3.xlsx
387	main_unc	True	0.0	331	0	5.0	5.0	1.0	1	right	2.0	1.0	1.0	1	0.032249735947699996	blockFiles/set_23/main_unc/rightBlue\GB_RB_3.xlsx
388	main_unc	True	0.0	331	0	5.0	5.0	0.0	1	left	1.0	1.0	1.0	0	-0.0257354995236	blockFiles/set_23/main_unc/rightBlue\GB_RB_3.xlsx
389	main_unc	True	0.0	331	0	5.0	5.0	0.0	1	left	1.0	1.0	1.0	0	-0.0629194894806	blockFiles/set_23/main_unc/rightBlue\GB_RB_3.xlsx
390	main_unc	True	0.0	331	0	5.0	5.0	1.0	1	right	2.0	0.0	1.0	1	0.027357865981799998	blockFiles/set_23/main_unc/rightBlue\GB_RB_3.xlsx
391	main_unc	True	0.0	331	0	5.0	5.0	1.0	1	right	2.0	1.0	1.0	1	0.07540110608560001	blockFiles/set_23/main_unc/rightBlue\GB_RB_3.xlsx
392	main_unc	True	0.0	331	0	5.0	5.0	0.0	1	left	1.0	1.0	1.0	0	-0.0672150878794	blockFiles/set_23/main_unc/rightBlue\GB_RB_3.xlsx
393	main_unc	True	0.0	331	0	5.0	5.0	0.0	1	left	1.0	1.0	1.0	0	-0.023100260905900002	blockFiles/set_23/main_unc/rightBlue\GB_RB_3.xlsx
394	main_unc	True	0.0	331	0	5.0	5.0	0.0	1	left	1.0	1.0	1.0	0	-0.0077320374548400005	blockFiles/set_23/main_unc/rightBlue\GB_RB_3.xlsx
395	main_unc	True	0.0	331	0	5.0	5.0	1.0	1	right	2.0	1.0	1.0	1	0.0706543221883	blockFiles/set_23/main_unc/rightBlue\GB_RB_3.xlsx
396	main_unc	True	0.0	331	0	5.0	5.0	1.0	1	right	2.0	1.0	1.0	1	0.0235490991175	blockFiles/set_23/main_unc/rightBlue\GB_RB_3.xlsx
397	main_unc	True	0.0	331	0	5.0	5.0	1.0	1	right	2.0	1.0	1.0	1	0.0556745619886	blockFiles/set_23/main_unc/rightBlue\GB_RB_3.xlsx
398	main_unc	True	0.0	331	0	5.0	5.0	0.0	0	left	1.0	0.0	0.0	1	0.004807590674609999	blockFiles/set_23/main_unc/rightBlue\GB_RB_3.xlsx
399	main_unc	True	0.0	331	0	5.0	5.0	1.0	1	right	2.0	1.0	1.0	1	0.0292904338799	blockFiles/set_23/main_unc/rightBlue\GB_RB_3.xlsx
400	main_unc	True	0.0	331	0	5.0	5.0	0.0	1	left	1.0	0.0	1.0	0	-0.0616411181539	blockFiles/set_23/main_unc/rightBlue\GB_RB_3.xlsx
401	main_unc	True	0.0	331	0	5.0	5.0	0.0	1	left	1.0	1.0	1.0	0	-0.06261314973240001	blockFiles/set_23/main_unc/rightBlue\GB_RB_3.xlsx
402	main_unc	True	0.0	331	0	5.0	5.0	1.0	1	right	2.0	0.0	1.0	1	0.0559997148067	blockFiles/set_23/main_unc/rightBlue\GB_RB_3.xlsx
403	main_unc	True	0.0	331	0	5.0	5.0	0.0	0	left	2.0	1.0	1.0	1	0.013078684955799998	blockFiles/set_23/main_unc/rightBlue\GB_RB_3.xlsx
404	main_unc	True	0.0	331	0	5.0	5.0	0.0	1	left	1.0	1.0	1.0	0	-0.0005309971608219999	blockFiles/set_23/main_unc/rightBlue\GB_RB_3.xlsx
405	main_unc	True	0.0	331	0	5.0	5.0	1.0	1	right	2.0	1.0	1.0	1	0.027241012286400003	blockFiles/set_23/main_unc/rightBlue\GB_RB_3.xlsx
406	main_unc	True	1.0	331	0	6.0	6.0	1.0	1	right	n/a	0.0	n/a	1	0.0499944876693	blockFiles/set_23/main_unc/rightBlue\GB_RB_4.xlsx
407	main_unc	True	0.0	331	0	6.0	6.0	1.0	1	right	2.0	1.0	1.0	1	0.0436405825242	blockFiles/set_23/main_unc/rightBlue\GB_RB_4.xlsx
408	main_unc	True	0.0	331	0	6.0	6.0	0.0	1	left	1.0	0.0	1.0	0	-0.0301620574482	blockFiles/set_23/main_unc/rightBlue\GB_RB_4.xlsx
409	main_unc	True	0.0	331	0	6.0	6.0	0.0	1	left	1.0	1.0	1.0	0	-0.0724504102767	blockFiles/set_23/main_unc/rightBlue\GB_RB_4.xlsx
410	main_unc	True	0.0	331	0	6.0	6.0	0.0	1	left	1.0	1.0	1.0	0	-0.0199154505879	blockFiles/set_23/main_unc/rightBlue\GB_RB_4.xlsx
411	main_unc	True	0.0	331	0	6.0	6.0	0.0	1	left	1.0	1.0	1.0	0	-0.0258823403157	blockFiles/set_23/main_unc/rightBlue\GB_RB_4.xlsx
412	main_unc	True	0.0	331	0	6.0	6.0	1.0	1	right	2.0	1.0	1.0	1	0.0162190221623	blockFiles/set_23/main_unc/rightBlue\GB_RB_4.xlsx
413	main_unc	True	0.0	331	0	6.0	6.0	0.0	1	left	1.0	0.0	1.0	0	-0.06472789417949999	blockFiles/set_23/main_unc/rightBlue\GB_RB_4.xlsx
414	main_unc	True	0.0	331	0	6.0	6.0	1.0	1	right	2.0	1.0	1.0	1	0.0392012548819	blockFiles/set_23/main_unc/rightBlue\GB_RB_4.xlsx
415	main_unc	True	0.0	331	0	6.0	6.0	0.0	1	left	1.0	1.0	1.0	0	-0.0329319223575	blockFiles/set_23/main_unc/rightBlue\GB_RB_4.xlsx
416	main_unc	True	0.0	331	0	6.0	6.0	1.0	1	right	2.0	1.0	1.0	1	0.0676263711229	blockFiles/set_23/main_unc/rightBlue\GB_RB_4.xlsx
417	main_unc	True	0.0	331	0	6.0	6.0	1.0	1	right	2.0	0.0	1.0	1	0.0688047599792	blockFiles/set_23/main_unc/rightBlue\GB_RB_4.xlsx
418	main_unc	True	0.0	331	0	6.0	6.0	1.0	1	right	2.0	0.0	1.0	1	0.0208691641502	blockFiles/set_23/main_unc/rightBlue\GB_RB_4.xlsx
419	main_unc	True	0.0	331	0	6.0	6.0	0.0	1	left	1.0	1.0	1.0	0	-0.023485306352400002	blockFiles/set_23/main_unc/rightBlue\GB_RB_4.xlsx
420	main_unc	True	0.0	331	0	6.0	6.0	1.0	1	right	2.0	1.0	1.0	1	0.032912023421400004	blockFiles/set_23/main_unc/rightBlue\GB_RB_4.xlsx
421	main_unc	True	0.0	331	0	6.0	6.0	0.0	1	left	1.0	1.0	1.0	0	-0.0421550674736	blockFiles/set_23/main_unc/rightBlue\GB_RB_4.xlsx
422	main_unc	True	0.0	331	0	6.0	6.0	1.0	1	right	2.0	1.0	1.0	1	0.0599668223038	blockFiles/set_23/main_unc/rightBlue\GB_RB_4.xlsx
423	main_unc	True	0.0	331	0	6.0	6.0	0.0	1	left	2.0	0.0	0.0	0	-0.00966537157074	blockFiles/set_23/main_unc/rightBlue\GB_RB_4.xlsx
424	main_unc	True	0.0	331	0	6.0	6.0	1.0	1	right	2.0	1.0	1.0	1	0.0350568876229	blockFiles/set_23/main_unc/rightBlue\GB_RB_4.xlsx
425	main_unc	True	0.0	331	0	6.0	6.0	0.0	1	left	1.0	1.0	1.0	0	-0.0653908953443	blockFiles/set_23/main_unc/rightBlue\GB_RB_4.xlsx
426	main_unc	True	0.0	331	0	6.0	6.0	0.0	1	left	1.0	0.0	1.0	0	-0.045214638095300005	blockFiles/set_23/main_unc/rightBlue\GB_RB_4.xlsx
427	main_unc	True	0.0	331	0	6.0	6.0	1.0	1	right	2.0	1.0	1.0	1	0.0721613142453	blockFiles/set_23/main_unc/rightBlue\GB_RB_4.xlsx
428	main_unc	True	0.0	331	0	6.0	6.0	0.0	1	left	1.0	1.0	1.0	0	-0.0344927363284	blockFiles/set_23/main_unc/rightBlue\GB_RB_4.xlsx
429	main_unc	True	0.0	331	0	6.0	6.0	1.0	1	right	2.0	1.0	1.0	1	0.0709385424852	blockFiles/set_23/main_unc/rightBlue\GB_RB_4.xlsx
430	main_unc	True	0.0	331	0	6.0	6.0	0.0	1	left	2.0	0.0	0.0	0	-0.0026554106548400003	blockFiles/set_23/main_unc/rightBlue\GB_RB_4.xlsx
431	main_unc	True	0.0	331	0	6.0	6.0	1.0	1	right	2.0	0.0	1.0	1	0.0499944876693	blockFiles/set_23/main_unc/rightBlue\GB_RB_4.xlsx
432	main_unc	True	1.0	331	0	7.0	7.0	n/a	0	None	n/a	0.0	n/a	0	-0.009948075916620001	blockFiles/set_23/main_unc/rightBlue\GB_RB_5.xlsx
433	main_unc	True	0.0	331	0	7.0	7.0	0.0	1	left	1.0	0.0	1.0	0	-0.078159276545	blockFiles/set_23/main_unc/rightBlue\GB_RB_5.xlsx
434	main_unc	True	0.0	331	0	7.0	7.0	0.0	0	left	1.0	0.0	0.0	1	0.0176233811118	blockFiles/set_23/main_unc/rightBlue\GB_RB_5.xlsx
435	main_unc	True	0.0	331	0	7.0	7.0	1.0	1	right	1.0	1.0	0.0	1	0.0421670933813	blockFiles/set_23/main_unc/rightBlue\GB_RB_5.xlsx
436	main_unc	True	0.0	331	0	7.0	7.0	0.0	1	left	2.0	0.0	0.0	0	-0.0668216500804	blockFiles/set_23/main_unc/rightBlue\GB_RB_5.xlsx
437	main_unc	True	0.0	331	0	7.0	7.0	1.0	1	right	1.0	0.0	0.0	1	0.0193119748309	blockFiles/set_23/main_unc/rightBlue\GB_RB_5.xlsx
438	main_unc	True	0.0	331	0	7.0	7.0	0.0	1	left	1.0	0.0	1.0	0	-0.025225517544900003	blockFiles/set_23/main_unc/rightBlue\GB_RB_5.xlsx
439	main_unc	True	0.0	331	0	7.0	7.0	1.0	1	right	1.0	0.0	0.0	1	0.06557565787809999	blockFiles/set_23/main_unc/rightBlue\GB_RB_5.xlsx
440	main_unc	True	0.0	331	0	7.0	7.0	0.0	0	left	2.0	1.0	1.0	1	0.00409228974953	blockFiles/set_23/main_unc/rightBlue\GB_RB_5.xlsx
441	main_unc	True	0.0	331	0	7.0	7.0	0.0	1	left	2.0	0.0	0.0	0	-0.05064875504	blockFiles/set_23/main_unc/rightBlue\GB_RB_5.xlsx
442	main_unc	True	0.0	331	0	7.0	7.0	1.0	1	right	1.0	0.0	0.0	1	0.0290764583647	blockFiles/set_23/main_unc/rightBlue\GB_RB_5.xlsx
443	main_unc	True	0.0	331	0	7.0	7.0	0.0	1	left	1.0	1.0	1.0	0	-0.0620882362314	blockFiles/set_23/main_unc/rightBlue\GB_RB_5.xlsx
444	main_unc	True	0.0	331	0	7.0	7.0	1.0	1	right	2.0	1.0	1.0	1	0.05307903803880001	blockFiles/set_23/main_unc/rightBlue\GB_RB_5.xlsx
445	main_unc	True	0.0	331	0	7.0	7.0	0.0	1	left	1.0	1.0	1.0	0	-0.0500313097425	blockFiles/set_23/main_unc/rightBlue\GB_RB_5.xlsx
446	main_unc	True	0.0	331	0	7.0	7.0	0.0	1	left	1.0	1.0	1.0	0	-0.00547741895542	blockFiles/set_23/main_unc/rightBlue\GB_RB_5.xlsx
447	main_unc	True	0.0	331	0	7.0	7.0	0.0	0	left	1.0	1.0	0.0	1	0.0101851558499	blockFiles/set_23/main_unc/rightBlue\GB_RB_5.xlsx
448	main_unc	True	0.0	331	0	7.0	7.0	0.0	1	left	1.0	1.0	1.0	0	-0.0704360398464	blockFiles/set_23/main_unc/rightBlue\GB_RB_5.xlsx
449	main_unc	True	0.0	331	0	7.0	7.0	1.0	1	right	2.0	1.0	1.0	1	0.0545992736146	blockFiles/set_23/main_unc/rightBlue\GB_RB_5.xlsx
450	main_unc	True	0.0	331	0	7.0	7.0	0.0	1	left	1.0	1.0	1.0	0	-0.0503816728853	blockFiles/set_23/main_unc/rightBlue\GB_RB_5.xlsx
451	main_unc	True	0.0	331	0	7.0	7.0	0.0	0	left	1.0	0.0	0.0	1	0.005477496627720001	blockFiles/set_23/main_unc/rightBlue\GB_RB_5.xlsx
452	main_unc	True	0.0	331	0	7.0	7.0	0.0	1	left	1.0	1.0	1.0	0	-0.0273278841935	blockFiles/set_23/main_unc/rightBlue\GB_RB_5.xlsx
453	main_unc	True	0.0	331	0	7.0	7.0	0.0	1	left	1.0	1.0	1.0	0	-0.0479127025232	blockFiles/set_23/main_unc/rightBlue\GB_RB_5.xlsx
454	main_unc	True	0.0	331	0	7.0	7.0	1.0	1	right	2.0	0.0	1.0	1	0.059246403817099995	blockFiles/set_23/main_unc/rightBlue\GB_RB_5.xlsx
455	main_unc	True	0.0	331	0	7.0	7.0	0.0	0	left	1.0	0.0	0.0	1	0.00283820413053	blockFiles/set_23/main_unc/rightBlue\GB_RB_5.xlsx
456	main_unc	True	0.0	331	0	7.0	7.0	0.0	1	left	1.0	1.0	1.0	0	-0.047013544999099995	blockFiles/set_23/main_unc/rightBlue\GB_RB_5.xlsx
457	main_unc	True	0.0	331	0	7.0	7.0	0.0	1	left	1.0	1.0	1.0	0	-0.009948075916620001	blockFiles/set_23/main_unc/rightBlue\GB_RB_5.xlsx
458	main_unc	True	0.0	331	0	8.0	8.0	0.0	1	left	1.0	0.0	0.0	0	-0.0260438786633	blockFiles/set_23/main_unc/leftBlue\GB_LB_3.xlsx
459	main_unc	True	0.0	331	0	8.0	8.0	0.0	1	left	1.0	0.0	0.0	0	-0.0327552420832	blockFiles/set_23/main_unc/leftBlue\GB_LB_3.xlsx
460	main_unc	True	0.0	331	0	8.0	8.0	1.0	1	right	2.0	1.0	0.0	1	0.055274830106600004	blockFiles/set_23/main_unc/leftBlue\GB_LB_3.xlsx
461	main_unc	True	0.0	331	0	8.0	8.0	0.0	1	left	1.0	0.0	0.0	0	-0.0445647284575	blockFiles/set_23/main_unc/leftBlue\GB_LB_3.xlsx
462	main_unc	True	0.0	331	0	8.0	8.0	0.0	1	left	2.0	1.0	1.0	0	-0.0629407239333	blockFiles/set_23/main_unc/leftBlue\GB_LB_3.xlsx
463	main_unc	True	0.0	331	0	8.0	8.0	1.0	1	right	1.0	1.0	1.0	1	0.021822500359299998	blockFiles/set_23/main_unc/leftBlue\GB_LB_3.xlsx
464	main_unc	True	0.0	331	0	8.0	8.0	0.0	1	left	2.0	1.0	1.0	0	-0.0528707257099	blockFiles/set_23/main_unc/leftBlue\GB_LB_3.xlsx
465	main_unc	True	0.0	331	0	8.0	8.0	0.0	1	left	2.0	1.0	1.0	0	-0.0112186468765	blockFiles/set_23/main_unc/leftBlue\GB_LB_3.xlsx
466	main_unc	True	0.0	331	0	8.0	8.0	0.0	1	left	2.0	1.0	1.0	0	-0.0180218156986	blockFiles/set_23/main_unc/leftBlue\GB_LB_3.xlsx
467	main_unc	True	0.0	331	0	8.0	8.0	0.0	1	left	2.0	1.0	1.0	0	-0.0461961358413	blockFiles/set_23/main_unc/leftBlue\GB_LB_3.xlsx
468	main_unc	True	0.0	331	0	8.0	8.0	1.0	1	right	1.0	1.0	1.0	1	0.050484732408099996	blockFiles/set_23/main_unc/leftBlue\GB_LB_3.xlsx
469	main_unc	True	0.0	331	0	8.0	8.0	0.0	0	left	2.0	0.0	0.0	1	0.0007266631536189999	blockFiles/set_23/main_unc/leftBlue\GB_LB_3.xlsx
470	main_unc	True	0.0	331	0	8.0	8.0	0.0	1	left	2.0	1.0	1.0	0	-0.054934704471399996	blockFiles/set_23/main_unc/leftBlue\GB_LB_3.xlsx
471	main_unc	True	0.0	331	0	8.0	8.0	1.0	1	right	2.0	0.0	0.0	1	0.012838968057200001	blockFiles/set_23/main_unc/leftBlue\GB_LB_3.xlsx
472	main_unc	True	0.0	331	0	8.0	8.0	1.0	1	right	1.0	1.0	1.0	1	0.0610635695048	blockFiles/set_23/main_unc/leftBlue\GB_LB_3.xlsx
473	main_unc	True	0.0	331	0	8.0	8.0	1.0	1	right	1.0	1.0	1.0	1	0.0721044347808	blockFiles/set_23/main_unc/leftBlue\GB_LB_3.xlsx
474	main_unc	True	0.0	331	0	8.0	8.0	1.0	1	right	1.0	1.0	1.0	1	0.0178892451338	blockFiles/set_23/main_unc/leftBlue\GB_LB_3.xlsx
475	main_unc	True	0.0	331	0	8.0	8.0	0.0	1	left	2.0	0.0	1.0	0	-0.0049235765636	blockFiles/set_23/main_unc/leftBlue\GB_LB_3.xlsx
476	main_unc	True	0.0	331	0	8.0	8.0	1.0	1	right	1.0	0.0	1.0	1	0.0669941597246	blockFiles/set_23/main_unc/leftBlue\GB_LB_3.xlsx
477	main_unc	True	0.0	331	0	8.0	8.0	1.0	1	right	1.0	1.0	1.0	1	0.0362161125615	blockFiles/set_23/main_unc/leftBlue\GB_LB_3.xlsx
478	main_unc	True	0.0	331	0	8.0	8.0	1.0	1	right	1.0	0.0	1.0	1	0.0103518616222	blockFiles/set_23/main_unc/leftBlue\GB_LB_3.xlsx
479	main_unc	True	0.0	331	0	8.0	8.0	0.0	1	left	2.0	1.0	1.0	0	-0.0729123079777	blockFiles/set_23/main_unc/leftBlue\GB_LB_3.xlsx
480	main_unc	True	0.0	331	0	8.0	8.0	0.0	1	left	2.0	1.0	1.0	0	-0.024003349822	blockFiles/set_23/main_unc/leftBlue\GB_LB_3.xlsx
481	main_unc	True	0.0	331	0	8.0	8.0	1.0	1	right	1.0	0.0	1.0	1	0.0478604812548	blockFiles/set_23/main_unc/leftBlue\GB_LB_3.xlsx
482	main_unc	True	0.0	331	0	8.0	8.0	0.0	1	left	2.0	1.0	1.0	0	-0.0283082513697	blockFiles/set_23/main_unc/leftBlue\GB_LB_3.xlsx
483	main_unc	True	1.0	331	0	9.0	9.0	n/a	0	None	n/a	0.0	n/a	1	0.060320992991300004	blockFiles/set_23/main_unc/rightBlue\GB_RB_6.xlsx
484	main_unc	True	0.0	331	0	9.0	9.0	0.0	1	left	1.0	0.0	1.0	0	-0.0507544287853	blockFiles/set_23/main_unc/rightBlue\GB_RB_6.xlsx
485	main_unc	True	0.0	331	0	9.0	9.0	1.0	1	right	2.0	1.0	1.0	1	0.0696680779383	blockFiles/set_23/main_unc/rightBlue\GB_RB_6.xlsx
486	main_unc	True	0.0	331	0	9.0	9.0	1.0	1	right	2.0	1.0	1.0	1	0.0599880995974	blockFiles/set_23/main_unc/rightBlue\GB_RB_6.xlsx
487	main_unc	True	0.0	331	0	9.0	9.0	0.0	1	left	1.0	1.0	1.0	0	-0.0322160732187	blockFiles/set_23/main_unc/rightBlue\GB_RB_6.xlsx
488	main_unc	True	0.0	331	0	9.0	9.0	0.0	0	left	1.0	0.0	0.0	1	0.000978705454618	blockFiles/set_23/main_unc/rightBlue\GB_RB_6.xlsx
489	main_unc	True	1.0	331	0	9.0	9.0	n/a	0	None	n/a	0.0	n/a	1	0.025996086392599996	blockFiles/set_23/main_unc/rightBlue\GB_RB_6.xlsx
490	main_unc	True	0.0	331	0	9.0	9.0	1.0	1	right	2.0	1.0	1.0	1	0.07019076112660001	blockFiles/set_23/main_unc/rightBlue\GB_RB_6.xlsx
491	main_unc	True	0.0	331	0	9.0	9.0	0.0	1	left	1.0	1.0	1.0	0	-0.0541577768512	blockFiles/set_23/main_unc/rightBlue\GB_RB_6.xlsx
492	main_unc	True	0.0	331	0	9.0	9.0	0.0	1	left	1.0	1.0	1.0	0	-0.061025426872100004	blockFiles/set_23/main_unc/rightBlue\GB_RB_6.xlsx
493	main_unc	True	0.0	331	0	9.0	9.0	0.0	1	left	1.0	1.0	1.0	0	-0.00882825246081	blockFiles/set_23/main_unc/rightBlue\GB_RB_6.xlsx
494	main_unc	True	0.0	331	0	9.0	9.0	0.0	1	left	1.0	0.0	1.0	0	-0.0301326457225	blockFiles/set_23/main_unc/rightBlue\GB_RB_6.xlsx
495	main_unc	True	0.0	331	0	9.0	9.0	0.0	1	left	1.0	1.0	1.0	0	-0.0703344107792	blockFiles/set_23/main_unc/rightBlue\GB_RB_6.xlsx
496	main_unc	True	0.0	331	0	9.0	9.0	0.0	1	left	1.0	1.0	1.0	0	-0.0290165305324	blockFiles/set_23/main_unc/rightBlue\GB_RB_6.xlsx
497	main_unc	True	0.0	331	0	9.0	9.0	0.0	0	left	2.0	1.0	1.0	1	0.0201879884675	blockFiles/set_23/main_unc/rightBlue\GB_RB_6.xlsx
498	main_unc	True	0.0	331	0	9.0	9.0	0.0	1	left	1.0	1.0	1.0	0	-0.033284818623200006	blockFiles/set_23/main_unc/rightBlue\GB_RB_6.xlsx
499	main_unc	True	0.0	331	0	9.0	9.0	1.0	1	right	2.0	1.0	1.0	1	0.04212311910469999	blockFiles/set_23/main_unc/rightBlue\GB_RB_6.xlsx
500	main_unc	True	0.0	331	0	9.0	9.0	0.0	1	left	1.0	0.0	1.0	0	-0.062165048793	blockFiles/set_23/main_unc/rightBlue\GB_RB_6.xlsx
501	main_unc	True	0.0	331	0	9.0	9.0	0.0	0	left	1.0	0.0	0.0	1	0.0148292201385	blockFiles/set_23/main_unc/rightBlue\GB_RB_6.xlsx
502	main_unc	True	0.0	331	0	9.0	9.0	0.0	0	left	1.0	0.0	0.0	1	0.00502870138735	blockFiles/set_23/main_unc/rightBlue\GB_RB_6.xlsx
503	main_unc	True	0.0	331	0	9.0	9.0	0.0	1	left	1.0	1.0	1.0	0	-0.0478291849792	blockFiles/set_23/main_unc/rightBlue\GB_RB_6.xlsx
504	main_unc	True	0.0	331	0	9.0	9.0	0.0	1	left	1.0	1.0	1.0	0	-0.07028707608580001	blockFiles/set_23/main_unc/rightBlue\GB_RB_6.xlsx
505	main_unc	True	0.0	331	0	9.0	9.0	1.0	1	right	2.0	1.0	1.0	1	0.054518344719	blockFiles/set_23/main_unc/rightBlue\GB_RB_6.xlsx
506	main_unc	True	0.0	331	0	9.0	9.0	0.0	0	left	2.0	1.0	1.0	1	0.018262777607900002	blockFiles/set_23/main_unc/rightBlue\GB_RB_6.xlsx
507	main_unc	True	0.0	331	0	9.0	9.0	1.0	1	right	2.0	1.0	1.0	1	0.0139717498422	blockFiles/set_23/main_unc/rightBlue\GB_RB_6.xlsx
508	main_unc	True	0.0	331	0	9.0	9.0	1.0	1	right	2.0	1.0	1.0	1	0.060320992991300004	blockFiles/set_23/main_unc/rightBlue\GB_RB_6.xlsx
509	main_unc	True	0.0	331	0	9.0	9.0	1.0	1	right	2.0	1.0	1.0	1	0.025996086392599996	blockFiles/set_23/main_unc/rightBlue\GB_RB_6.xlsx
510	main_unc	True	0.0	331	0	10.0	10.0	0.0	1	left	1.0	0.0	0.0	0	-0.00987033914775	blockFiles/set_23/main_unc/leftBlue\GB_LB_5.xlsx
511	main_unc	True	0.0	331	0	10.0	10.0	0.0	1	left	1.0	1.0	0.0	0	-0.068534873873	blockFiles/set_23/main_unc/leftBlue\GB_LB_5.xlsx
512	main_unc	True	0.0	331	0	10.0	10.0	0.0	1	left	1.0	0.0	0.0	0	-0.038609607853	blockFiles/set_23/main_unc/leftBlue\GB_LB_5.xlsx
513	main_unc	True	0.0	331	0	10.0	10.0	0.0	1	left	1.0	0.0	0.0	0	-0.039892625901800004	blockFiles/set_23/main_unc/leftBlue\GB_LB_5.xlsx
514	main_unc	True	0.0	331	0	10.0	10.0	1.0	1	right	1.0	1.0	1.0	1	0.035323612988	blockFiles/set_23/main_unc/leftBlue\GB_LB_5.xlsx
515	main_unc	True	1.0	331	0	10.0	10.0	n/a	0	None	n/a	0.0	n/a	1	0.0203874665312	blockFiles/set_23/main_unc/leftBlue\GB_LB_5.xlsx
516	main_unc	True	0.0	331	0	10.0	10.0	0.0	1	left	2.0	1.0	1.0	0	-0.0760011721589	blockFiles/set_23/main_unc/leftBlue\GB_LB_5.xlsx
517	main_unc	True	0.0	331	0	10.0	10.0	0.0	0	left	2.0	1.0	0.0	1	0.0106064218655	blockFiles/set_23/main_unc/leftBlue\GB_LB_5.xlsx
518	main_unc	True	0.0	331	0	10.0	10.0	0.0	1	left	2.0	1.0	1.0	0	-0.0698478410579	blockFiles/set_23/main_unc/leftBlue\GB_LB_5.xlsx
519	main_unc	True	0.0	331	0	10.0	10.0	0.0	1	left	2.0	1.0	1.0	0	-0.0496391628124	blockFiles/set_23/main_unc/leftBlue\GB_LB_5.xlsx
520	main_unc	True	0.0	331	0	10.0	10.0	0.0	0	left	1.0	1.0	1.0	1	0.011029253248100002	blockFiles/set_23/main_unc/leftBlue\GB_LB_5.xlsx
521	main_unc	True	0.0	331	0	10.0	10.0	0.0	1	left	2.0	1.0	1.0	0	-0.0638155746646	blockFiles/set_23/main_unc/leftBlue\GB_LB_5.xlsx
522	main_unc	True	0.0	331	0	10.0	10.0	1.0	1	right	1.0	1.0	1.0	1	0.0409580614604	blockFiles/set_23/main_unc/leftBlue\GB_LB_5.xlsx
523	main_unc	True	0.0	331	0	10.0	10.0	0.0	1	left	2.0	1.0	1.0	0	-0.039722911380199996	blockFiles/set_23/main_unc/leftBlue\GB_LB_5.xlsx
524	main_unc	True	0.0	331	0	10.0	10.0	1.0	1	right	1.0	1.0	1.0	1	0.046852222047699996	blockFiles/set_23/main_unc/leftBlue\GB_LB_5.xlsx
525	main_unc	True	0.0	331	0	10.0	10.0	1.0	1	right	1.0	0.0	1.0	1	0.039361564219	blockFiles/set_23/main_unc/leftBlue\GB_LB_5.xlsx
526	main_unc	True	0.0	331	0	10.0	10.0	1.0	1	right	1.0	1.0	1.0	1	0.015399308223299999	blockFiles/set_23/main_unc/leftBlue\GB_LB_5.xlsx
527	main_unc	True	0.0	331	0	10.0	10.0	1.0	1	right	1.0	0.0	1.0	1	0.0799260172993	blockFiles/set_23/main_unc/leftBlue\GB_LB_5.xlsx
528	main_unc	True	0.0	331	0	10.0	10.0	1.0	1	right	1.0	1.0	1.0	1	0.0539742261544	blockFiles/set_23/main_unc/leftBlue\GB_LB_5.xlsx
529	main_unc	True	0.0	331	0	10.0	10.0	1.0	1	right	1.0	1.0	1.0	1	0.035628523565800006	blockFiles/set_23/main_unc/leftBlue\GB_LB_5.xlsx
530	main_unc	True	0.0	331	0	10.0	10.0	1.0	1	right	1.0	1.0	1.0	1	0.0357120727003	blockFiles/set_23/main_unc/leftBlue\GB_LB_5.xlsx
531	main_unc	True	0.0	331	0	10.0	10.0	0.0	1	left	2.0	1.0	1.0	0	-0.0628849815205	blockFiles/set_23/main_unc/leftBlue\GB_LB_5.xlsx
532	main_unc	True	0.0	331	0	10.0	10.0	0.0	1	left	2.0	1.0	1.0	0	-0.00261245964095	blockFiles/set_23/main_unc/leftBlue\GB_LB_5.xlsx
533	main_unc	True	0.0	331	0	10.0	10.0	1.0	1	right	1.0	1.0	1.0	1	0.0278865661658	blockFiles/set_23/main_unc/leftBlue\GB_LB_5.xlsx
534	main_unc	True	0.0	331	0	10.0	10.0	1.0	1	right	1.0	0.0	1.0	1	0.0791890383884	blockFiles/set_23/main_unc/leftBlue\GB_LB_5.xlsx
535	main_unc	True	0.0	331	0	10.0	10.0	1.0	1	right	1.0	1.0	1.0	1	0.0203874665312	blockFiles/set_23/main_unc/leftBlue\GB_LB_5.xlsx
536	main_unc	True	0.0	331	0	11.0	11.0	0.0	1	left	1.0	0.0	0.0	0	-0.05186731275169999	blockFiles/set_23/main_unc/leftBlue\GB_LB_4.xlsx
537	main_unc	True	0.0	331	0	11.0	11.0	0.0	1	left	1.0	0.0	0.0	0	-0.0348768986389	blockFiles/set_23/main_unc/leftBlue\GB_LB_4.xlsx
538	main_unc	True	0.0	331	0	11.0	11.0	1.0	1	right	1.0	1.0	1.0	1	0.060869829188999997	blockFiles/set_23/main_unc/leftBlue\GB_LB_4.xlsx
539	main_unc	True	0.0	331	0	11.0	11.0	0.0	1	left	2.0	1.0	1.0	0	-0.0698044601455	blockFiles/set_23/main_unc/leftBlue\GB_LB_4.xlsx
540	main_unc	True	0.0	331	0	11.0	11.0	1.0	1	right	1.0	1.0	1.0	1	0.031078029572999998	blockFiles/set_23/main_unc/leftBlue\GB_LB_4.xlsx
541	main_unc	True	0.0	331	0	11.0	11.0	1.0	1	right	1.0	1.0	1.0	1	0.0404219348915	blockFiles/set_23/main_unc/leftBlue\GB_LB_4.xlsx
542	main_unc	True	0.0	331	0	11.0	11.0	0.0	1	left	2.0	1.0	1.0	0	-0.0209435532801	blockFiles/set_23/main_unc/leftBlue\GB_LB_4.xlsx
543	main_unc	True	0.0	331	0	11.0	11.0	1.0	1	right	1.0	0.0	1.0	1	0.0642052188143	blockFiles/set_23/main_unc/leftBlue\GB_LB_4.xlsx
544	main_unc	True	0.0	331	0	11.0	11.0	1.0	1	right	1.0	1.0	1.0	1	0.024769742675099998	blockFiles/set_23/main_unc/leftBlue\GB_LB_4.xlsx
545	main_unc	True	0.0	331	0	11.0	11.0	1.0	1	right	1.0	0.0	1.0	1	0.0649132294022	blockFiles/set_23/main_unc/leftBlue\GB_LB_4.xlsx
546	main_unc	True	0.0	331	0	11.0	11.0	1.0	1	right	2.0	0.0	0.0	1	0.00571378877386	blockFiles/set_23/main_unc/leftBlue\GB_LB_4.xlsx
547	main_unc	True	0.0	331	0	11.0	11.0	0.0	1	left	2.0	1.0	1.0	0	-0.0668581747077	blockFiles/set_23/main_unc/leftBlue\GB_LB_4.xlsx
548	main_unc	True	0.0	331	0	11.0	11.0	1.0	1	right	1.0	0.0	1.0	1	0.0327539408021	blockFiles/set_23/main_unc/leftBlue\GB_LB_4.xlsx
549	main_unc	True	0.0	331	0	11.0	11.0	1.0	1	right	1.0	0.0	1.0	1	0.0524579447322	blockFiles/set_23/main_unc/leftBlue\GB_LB_4.xlsx
550	main_unc	True	0.0	331	0	11.0	11.0	0.0	1	left	2.0	1.0	1.0	0	-0.0415933588147	blockFiles/set_23/main_unc/leftBlue\GB_LB_4.xlsx
551	main_unc	True	0.0	331	0	11.0	11.0	0.0	1	left	2.0	1.0	1.0	0	-0.030008446797700004	blockFiles/set_23/main_unc/leftBlue\GB_LB_4.xlsx
552	main_unc	True	0.0	331	0	11.0	11.0	0.0	1	left	2.0	1.0	1.0	0	-0.0371316042542	blockFiles/set_23/main_unc/leftBlue\GB_LB_4.xlsx
553	main_unc	True	0.0	331	0	11.0	11.0	1.0	1	right	1.0	1.0	1.0	1	0.0393750924803	blockFiles/set_23/main_unc/leftBlue\GB_LB_4.xlsx
554	main_unc	True	0.0	331	0	11.0	11.0	0.0	1	left	2.0	0.0	1.0	0	-0.064617780894	blockFiles/set_23/main_unc/leftBlue\GB_LB_4.xlsx
555	main_unc	True	0.0	331	0	11.0	11.0	1.0	1	right	1.0	1.0	1.0	1	0.0718280196562	blockFiles/set_23/main_unc/leftBlue\GB_LB_4.xlsx
556	main_unc	True	0.0	331	0	11.0	11.0	1.0	1	right	1.0	1.0	1.0	1	0.0588062405959	blockFiles/set_23/main_unc/leftBlue\GB_LB_4.xlsx
557	main_unc	True	0.0	331	0	11.0	11.0	0.0	1	left	2.0	1.0	1.0	0	-0.0470781686716	blockFiles/set_23/main_unc/leftBlue\GB_LB_4.xlsx
558	main_unc	True	0.0	331	0	11.0	11.0	1.0	1	right	2.0	0.0	0.0	1	0.006953666359189999	blockFiles/set_23/main_unc/leftBlue\GB_LB_4.xlsx
559	main_unc	True	0.0	331	0	11.0	11.0	1.0	1	right	1.0	1.0	1.0	1	0.0670045186393	blockFiles/set_23/main_unc/leftBlue\GB_LB_4.xlsx
560	main_unc	True	0.0	331	0	11.0	11.0	0.0	1	left	2.0	0.0	1.0	0	-0.0191757141054	blockFiles/set_23/main_unc/leftBlue\GB_LB_4.xlsx
