	trial_type	complete	missIndex	participant	id	blockNumber	b_t	d_t	decision1.corr	decision1.keys	a_t	r_t	decision2.corr	s_t	u_t	block_file
0	main_safe	True	0.0	778	0	0.0	0.0	1.0	1	right	2.0	0.0	0.0	1	0.08	blockFiles/set_46/main_safe/leftBlue\GB_LB_1.xlsx
1	main_safe	True	0.0	778	0	0.0	0.0	1.0	1	right	2.0	0.0	0.0	1	0.08	blockFiles/set_46/main_safe/leftBlue\GB_LB_1.xlsx
2	main_safe	True	0.0	778	0	0.0	0.0	1.0	1	right	1.0	0.0	1.0	1	0.08	blockFiles/set_46/main_safe/leftBlue\GB_LB_1.xlsx
3	main_safe	True	0.0	778	0	0.0	0.0	0.0	1	left	2.0	1.0	1.0	0	-0.08	blockFiles/set_46/main_safe/leftBlue\GB_LB_1.xlsx
4	main_safe	True	0.0	778	0	0.0	0.0	1.0	1	right	1.0	1.0	1.0	1	0.08	blockFiles/set_46/main_safe/leftBlue\GB_LB_1.xlsx
5	main_safe	True	0.0	778	0	0.0	0.0	0.0	1	left	2.0	0.0	1.0	0	-0.08	blockFiles/set_46/main_safe/leftBlue\GB_LB_1.xlsx
6	main_safe	True	0.0	778	0	0.0	0.0	0.0	1	left	2.0	1.0	1.0	0	-0.08	blockFiles/set_46/main_safe/leftBlue\GB_LB_1.xlsx
7	main_safe	True	0.0	778	0	0.0	0.0	0.0	1	left	2.0	1.0	1.0	0	-0.08	blockFiles/set_46/main_safe/leftBlue\GB_LB_1.xlsx
8	main_safe	True	0.0	778	0	0.0	0.0	0.0	1	left	2.0	1.0	1.0	0	-0.08	blockFiles/set_46/main_safe/leftBlue\GB_LB_1.xlsx
9	main_safe	True	0.0	778	0	0.0	0.0	0.0	1	left	2.0	1.0	1.0	0	-0.08	blockFiles/set_46/main_safe/leftBlue\GB_LB_1.xlsx
10	main_safe	True	0.0	778	0	0.0	0.0	1.0	1	right	1.0	1.0	1.0	1	0.08	blockFiles/set_46/main_safe/leftBlue\GB_LB_1.xlsx
11	main_safe	True	0.0	778	0	0.0	0.0	1.0	1	right	1.0	0.0	1.0	1	0.08	blockFiles/set_46/main_safe/leftBlue\GB_LB_1.xlsx
12	main_safe	True	0.0	778	0	0.0	0.0	1.0	1	right	1.0	1.0	1.0	1	0.08	blockFiles/set_46/main_safe/leftBlue\GB_LB_1.xlsx
13	main_safe	True	0.0	778	0	0.0	0.0	1.0	1	right	1.0	1.0	1.0	1	0.08	blockFiles/set_46/main_safe/leftBlue\GB_LB_1.xlsx
14	main_safe	True	0.0	778	0	0.0	0.0	1.0	1	right	1.0	1.0	1.0	1	0.08	blockFiles/set_46/main_safe/leftBlue\GB_LB_1.xlsx
15	main_safe	True	0.0	778	0	0.0	0.0	1.0	1	right	1.0	1.0	1.0	1	0.08	blockFiles/set_46/main_safe/leftBlue\GB_LB_1.xlsx
16	main_safe	True	0.0	778	0	0.0	0.0	0.0	1	left	2.0	1.0	1.0	0	-0.08	blockFiles/set_46/main_safe/leftBlue\GB_LB_1.xlsx
17	main_safe	True	0.0	778	0	0.0	0.0	0.0	0	left	1.0	1.0	1.0	1	0.08	blockFiles/set_46/main_safe/leftBlue\GB_LB_1.xlsx
18	main_safe	True	0.0	778	0	0.0	0.0	0.0	1	left	2.0	1.0	1.0	0	-0.08	blockFiles/set_46/main_safe/leftBlue\GB_LB_1.xlsx
19	main_safe	True	0.0	778	0	0.0	0.0	1.0	1	right	1.0	1.0	1.0	1	0.08	blockFiles/set_46/main_safe/leftBlue\GB_LB_1.xlsx
20	main_safe	True	0.0	778	0	0.0	0.0	1.0	1	right	1.0	0.0	1.0	1	0.08	blockFiles/set_46/main_safe/leftBlue\GB_LB_1.xlsx
21	main_safe	True	0.0	778	0	0.0	0.0	0.0	1	left	2.0	1.0	1.0	0	-0.08	blockFiles/set_46/main_safe/leftBlue\GB_LB_1.xlsx
22	main_safe	True	0.0	778	0	0.0	0.0	0.0	1	left	2.0	1.0	1.0	0	-0.08	blockFiles/set_46/main_safe/leftBlue\GB_LB_1.xlsx
23	main_safe	True	0.0	778	0	0.0	0.0	0.0	1	left	2.0	1.0	1.0	0	-0.08	blockFiles/set_46/main_safe/leftBlue\GB_LB_1.xlsx
24	main_safe	True	0.0	778	0	0.0	0.0	0.0	1	left	2.0	1.0	1.0	0	-0.08	blockFiles/set_46/main_safe/leftBlue\GB_LB_1.xlsx
25	main_safe	True	0.0	778	0	1.0	1.0	0.0	1	left	2.0	1.0	1.0	0	-0.08	blockFiles/set_46/main_safe/leftBlue\GB_LB_3.xlsx
26	main_safe	True	0.0	778	0	1.0	1.0	1.0	1	right	1.0	1.0	1.0	1	0.08	blockFiles/set_46/main_safe/leftBlue\GB_LB_3.xlsx
27	main_safe	True	0.0	778	0	1.0	1.0	1.0	1	right	1.0	1.0	1.0	1	0.08	blockFiles/set_46/main_safe/leftBlue\GB_LB_3.xlsx
28	main_safe	True	0.0	778	0	1.0	1.0	1.0	1	right	1.0	1.0	1.0	1	0.08	blockFiles/set_46/main_safe/leftBlue\GB_LB_3.xlsx
29	main_safe	True	1.0	778	0	1.0	1.0	0.0	1	left	n/a	0.0	n/a	0	-0.08	blockFiles/set_46/main_safe/leftBlue\GB_LB_3.xlsx
30	main_safe	True	0.0	778	0	1.0	1.0	1.0	1	right	1.0	0.0	1.0	1	0.08	blockFiles/set_46/main_safe/leftBlue\GB_LB_3.xlsx
31	main_safe	True	0.0	778	0	1.0	1.0	0.0	1	left	2.0	1.0	1.0	0	-0.08	blockFiles/set_46/main_safe/leftBlue\GB_LB_3.xlsx
32	main_safe	True	0.0	778	0	1.0	1.0	1.0	1	right	1.0	1.0	1.0	1	0.08	blockFiles/set_46/main_safe/leftBlue\GB_LB_3.xlsx
33	main_safe	True	0.0	778	0	1.0	1.0	1.0	1	right	1.0	1.0	1.0	1	0.08	blockFiles/set_46/main_safe/leftBlue\GB_LB_3.xlsx
34	main_safe	True	0.0	778	0	1.0	1.0	0.0	1	left	2.0	1.0	1.0	0	-0.08	blockFiles/set_46/main_safe/leftBlue\GB_LB_3.xlsx
35	main_safe	True	0.0	778	0	1.0	1.0	0.0	1	left	2.0	1.0	1.0	0	-0.08	blockFiles/set_46/main_safe/leftBlue\GB_LB_3.xlsx
36	main_safe	True	0.0	778	0	1.0	1.0	0.0	1	left	2.0	1.0	1.0	0	-0.08	blockFiles/set_46/main_safe/leftBlue\GB_LB_3.xlsx
37	main_safe	True	0.0	778	0	1.0	1.0	0.0	1	left	2.0	0.0	1.0	0	-0.08	blockFiles/set_46/main_safe/leftBlue\GB_LB_3.xlsx
38	main_safe	True	0.0	778	0	1.0	1.0	1.0	1	right	1.0	1.0	1.0	1	0.08	blockFiles/set_46/main_safe/leftBlue\GB_LB_3.xlsx
39	main_safe	True	0.0	778	0	1.0	1.0	0.0	1	left	2.0	1.0	1.0	0	-0.08	blockFiles/set_46/main_safe/leftBlue\GB_LB_3.xlsx
40	main_safe	True	0.0	778	0	1.0	1.0	1.0	1	right	1.0	1.0	1.0	1	0.08	blockFiles/set_46/main_safe/leftBlue\GB_LB_3.xlsx
41	main_safe	True	0.0	778	0	1.0	1.0	0.0	1	left	2.0	1.0	1.0	0	-0.08	blockFiles/set_46/main_safe/leftBlue\GB_LB_3.xlsx
42	main_safe	True	0.0	778	0	1.0	1.0	1.0	1	right	1.0	1.0	1.0	1	0.08	blockFiles/set_46/main_safe/leftBlue\GB_LB_3.xlsx
43	main_safe	True	0.0	778	0	1.0	1.0	0.0	1	left	2.0	0.0	1.0	0	-0.08	blockFiles/set_46/main_safe/leftBlue\GB_LB_3.xlsx
44	main_safe	True	0.0	778	0	1.0	1.0	1.0	1	right	1.0	1.0	1.0	1	0.08	blockFiles/set_46/main_safe/leftBlue\GB_LB_3.xlsx
45	main_safe	True	0.0	778	0	1.0	1.0	0.0	1	left	2.0	0.0	1.0	0	-0.08	blockFiles/set_46/main_safe/leftBlue\GB_LB_3.xlsx
46	main_safe	True	0.0	778	0	1.0	1.0	1.0	1	right	1.0	1.0	1.0	1	0.08	blockFiles/set_46/main_safe/leftBlue\GB_LB_3.xlsx
47	main_safe	True	0.0	778	0	1.0	1.0	0.0	1	left	2.0	1.0	1.0	0	-0.08	blockFiles/set_46/main_safe/leftBlue\GB_LB_3.xlsx
48	main_safe	True	0.0	778	0	1.0	1.0	0.0	1	left	2.0	1.0	1.0	0	-0.08	blockFiles/set_46/main_safe/leftBlue\GB_LB_3.xlsx
49	main_safe	True	0.0	778	0	1.0	1.0	0.0	1	left	2.0	1.0	1.0	0	-0.08	blockFiles/set_46/main_safe/leftBlue\GB_LB_3.xlsx
50	main_safe	True	0.0	778	0	1.0	1.0	0.0	1	left	2.0	0.0	1.0	0	-0.08	blockFiles/set_46/main_safe/leftBlue\GB_LB_3.xlsx
51	main_safe	True	0.0	778	0	2.0	2.0	1.0	1	right	1.0	1.0	1.0	1	0.08	blockFiles/set_46/main_safe/leftBlue\GB_LB_2.xlsx
52	main_safe	True	0.0	778	0	2.0	2.0	0.0	1	left	2.0	1.0	1.0	0	-0.08	blockFiles/set_46/main_safe/leftBlue\GB_LB_2.xlsx
53	main_safe	True	0.0	778	0	2.0	2.0	0.0	0	left	1.0	1.0	1.0	1	0.08	blockFiles/set_46/main_safe/leftBlue\GB_LB_2.xlsx
54	main_safe	True	0.0	778	0	2.0	2.0	0.0	1	left	2.0	1.0	1.0	0	-0.08	blockFiles/set_46/main_safe/leftBlue\GB_LB_2.xlsx
55	main_safe	True	0.0	778	0	2.0	2.0	1.0	1	right	1.0	1.0	1.0	1	0.08	blockFiles/set_46/main_safe/leftBlue\GB_LB_2.xlsx
56	main_safe	True	0.0	778	0	2.0	2.0	1.0	1	right	1.0	0.0	1.0	1	0.08	blockFiles/set_46/main_safe/leftBlue\GB_LB_2.xlsx
57	main_safe	True	0.0	778	0	2.0	2.0	1.0	1	right	1.0	0.0	1.0	1	0.08	blockFiles/set_46/main_safe/leftBlue\GB_LB_2.xlsx
58	main_safe	True	0.0	778	0	2.0	2.0	0.0	1	left	2.0	1.0	1.0	0	-0.08	blockFiles/set_46/main_safe/leftBlue\GB_LB_2.xlsx
59	main_safe	True	0.0	778	0	2.0	2.0	1.0	1	right	1.0	1.0	1.0	1	0.08	blockFiles/set_46/main_safe/leftBlue\GB_LB_2.xlsx
60	main_safe	True	0.0	778	0	2.0	2.0	0.0	1	left	2.0	1.0	1.0	0	-0.08	blockFiles/set_46/main_safe/leftBlue\GB_LB_2.xlsx
61	main_safe	True	0.0	778	0	2.0	2.0	1.0	1	right	1.0	1.0	1.0	1	0.08	blockFiles/set_46/main_safe/leftBlue\GB_LB_2.xlsx
62	main_safe	True	0.0	778	0	2.0	2.0	0.0	1	left	2.0	1.0	1.0	0	-0.08	blockFiles/set_46/main_safe/leftBlue\GB_LB_2.xlsx
63	main_safe	True	0.0	778	0	2.0	2.0	0.0	1	left	2.0	1.0	1.0	0	-0.08	blockFiles/set_46/main_safe/leftBlue\GB_LB_2.xlsx
64	main_safe	True	0.0	778	0	2.0	2.0	0.0	1	left	2.0	0.0	1.0	0	-0.08	blockFiles/set_46/main_safe/leftBlue\GB_LB_2.xlsx
65	main_safe	True	0.0	778	0	2.0	2.0	1.0	1	right	1.0	1.0	1.0	1	0.08	blockFiles/set_46/main_safe/leftBlue\GB_LB_2.xlsx
66	main_safe	True	0.0	778	0	2.0	2.0	1.0	1	right	1.0	1.0	1.0	1	0.08	blockFiles/set_46/main_safe/leftBlue\GB_LB_2.xlsx
67	main_safe	True	0.0	778	0	2.0	2.0	0.0	1	left	2.0	1.0	1.0	0	-0.08	blockFiles/set_46/main_safe/leftBlue\GB_LB_2.xlsx
68	main_safe	True	0.0	778	0	2.0	2.0	0.0	1	left	2.0	1.0	1.0	0	-0.08	blockFiles/set_46/main_safe/leftBlue\GB_LB_2.xlsx
69	main_safe	True	0.0	778	0	2.0	2.0	1.0	1	right	1.0	1.0	1.0	1	0.08	blockFiles/set_46/main_safe/leftBlue\GB_LB_2.xlsx
70	main_safe	True	0.0	778	0	2.0	2.0	0.0	1	left	2.0	0.0	1.0	0	-0.08	blockFiles/set_46/main_safe/leftBlue\GB_LB_2.xlsx
71	main_safe	True	0.0	778	0	2.0	2.0	0.0	1	left	2.0	1.0	1.0	0	-0.08	blockFiles/set_46/main_safe/leftBlue\GB_LB_2.xlsx
72	main_safe	True	0.0	778	0	2.0	2.0	0.0	1	left	2.0	1.0	1.0	0	-0.08	blockFiles/set_46/main_safe/leftBlue\GB_LB_2.xlsx
73	main_safe	True	0.0	778	0	2.0	2.0	1.0	1	right	1.0	1.0	1.0	1	0.08	blockFiles/set_46/main_safe/leftBlue\GB_LB_2.xlsx
74	main_safe	True	0.0	778	0	2.0	2.0	1.0	1	right	1.0	1.0	1.0	1	0.08	blockFiles/set_46/main_safe/leftBlue\GB_LB_2.xlsx
75	main_safe	True	0.0	778	0	2.0	2.0	1.0	1	right	1.0	0.0	1.0	1	0.08	blockFiles/set_46/main_safe/leftBlue\GB_LB_2.xlsx
76	main_safe	True	0.0	778	0	3.0	3.0	1.0	1	right	1.0	0.0	0.0	1	0.08	blockFiles/set_46/main_safe/rightBlue\GB_RB_2.xlsx
77	main_safe	True	0.0	778	0	3.0	3.0	1.0	1	right	2.0	1.0	1.0	1	0.08	blockFiles/set_46/main_safe/rightBlue\GB_RB_2.xlsx
78	main_safe	True	0.0	778	0	3.0	3.0	1.0	1	right	2.0	1.0	1.0	1	0.08	blockFiles/set_46/main_safe/rightBlue\GB_RB_2.xlsx
79	main_safe	True	0.0	778	0	3.0	3.0	1.0	1	right	2.0	1.0	1.0	1	0.08	blockFiles/set_46/main_safe/rightBlue\GB_RB_2.xlsx
80	main_safe	True	0.0	778	0	3.0	3.0	1.0	1	right	2.0	1.0	1.0	1	0.08	blockFiles/set_46/main_safe/rightBlue\GB_RB_2.xlsx
81	main_safe	True	0.0	778	0	3.0	3.0	0.0	1	left	1.0	1.0	1.0	0	-0.08	blockFiles/set_46/main_safe/rightBlue\GB_RB_2.xlsx
82	main_safe	True	0.0	778	0	3.0	3.0	0.0	1	left	1.0	1.0	1.0	0	-0.08	blockFiles/set_46/main_safe/rightBlue\GB_RB_2.xlsx
83	main_safe	True	0.0	778	0	3.0	3.0	0.0	1	left	1.0	1.0	1.0	0	-0.08	blockFiles/set_46/main_safe/rightBlue\GB_RB_2.xlsx
84	main_safe	True	0.0	778	0	3.0	3.0	0.0	1	left	1.0	0.0	1.0	0	-0.08	blockFiles/set_46/main_safe/rightBlue\GB_RB_2.xlsx
85	main_safe	True	0.0	778	0	3.0	3.0	0.0	1	left	1.0	1.0	1.0	0	-0.08	blockFiles/set_46/main_safe/rightBlue\GB_RB_2.xlsx
86	main_safe	True	0.0	778	0	3.0	3.0	1.0	1	right	2.0	1.0	1.0	1	0.08	blockFiles/set_46/main_safe/rightBlue\GB_RB_2.xlsx
87	main_safe	True	0.0	778	0	3.0	3.0	0.0	1	left	1.0	1.0	1.0	0	-0.08	blockFiles/set_46/main_safe/rightBlue\GB_RB_2.xlsx
88	main_safe	True	0.0	778	0	3.0	3.0	1.0	1	right	2.0	1.0	1.0	1	0.08	blockFiles/set_46/main_safe/rightBlue\GB_RB_2.xlsx
89	main_safe	True	0.0	778	0	3.0	3.0	0.0	1	left	1.0	0.0	1.0	0	-0.08	blockFiles/set_46/main_safe/rightBlue\GB_RB_2.xlsx
90	main_safe	True	0.0	778	0	3.0	3.0	0.0	1	left	1.0	0.0	1.0	0	-0.08	blockFiles/set_46/main_safe/rightBlue\GB_RB_2.xlsx
91	main_safe	True	0.0	778	0	3.0	3.0	0.0	1	left	1.0	1.0	1.0	0	-0.08	blockFiles/set_46/main_safe/rightBlue\GB_RB_2.xlsx
92	main_safe	True	0.0	778	0	3.0	3.0	1.0	1	right	2.0	0.0	1.0	1	0.08	blockFiles/set_46/main_safe/rightBlue\GB_RB_2.xlsx
93	main_safe	True	0.0	778	0	3.0	3.0	0.0	1	left	1.0	1.0	1.0	0	-0.08	blockFiles/set_46/main_safe/rightBlue\GB_RB_2.xlsx
94	main_safe	True	0.0	778	0	3.0	3.0	1.0	1	right	2.0	1.0	1.0	1	0.08	blockFiles/set_46/main_safe/rightBlue\GB_RB_2.xlsx
95	main_safe	True	0.0	778	0	3.0	3.0	1.0	1	right	2.0	1.0	1.0	1	0.08	blockFiles/set_46/main_safe/rightBlue\GB_RB_2.xlsx
96	main_safe	True	0.0	778	0	3.0	3.0	0.0	1	left	1.0	1.0	1.0	0	-0.08	blockFiles/set_46/main_safe/rightBlue\GB_RB_2.xlsx
97	main_safe	True	0.0	778	0	3.0	3.0	0.0	1	left	2.0	0.0	0.0	0	-0.08	blockFiles/set_46/main_safe/rightBlue\GB_RB_2.xlsx
98	main_safe	True	0.0	778	0	3.0	3.0	0.0	1	left	1.0	1.0	1.0	0	-0.08	blockFiles/set_46/main_safe/rightBlue\GB_RB_2.xlsx
99	main_safe	True	0.0	778	0	3.0	3.0	1.0	1	right	2.0	0.0	1.0	1	0.08	blockFiles/set_46/main_safe/rightBlue\GB_RB_2.xlsx
100	main_safe	True	0.0	778	0	3.0	3.0	0.0	1	left	1.0	1.0	1.0	0	-0.08	blockFiles/set_46/main_safe/rightBlue\GB_RB_2.xlsx
101	main_safe	True	0.0	778	0	4.0	4.0	0.0	1	left	1.0	0.0	1.0	0	-0.08	blockFiles/set_46/main_safe/rightBlue\GB_RB_1.xlsx
102	main_safe	True	0.0	778	0	4.0	4.0	0.0	1	left	2.0	0.0	0.0	0	-0.08	blockFiles/set_46/main_safe/rightBlue\GB_RB_1.xlsx
103	main_safe	True	0.0	778	0	4.0	4.0	1.0	1	right	1.0	1.0	0.0	1	0.08	blockFiles/set_46/main_safe/rightBlue\GB_RB_1.xlsx
104	main_safe	True	0.0	778	0	4.0	4.0	1.0	1	right	1.0	0.0	0.0	1	0.08	blockFiles/set_46/main_safe/rightBlue\GB_RB_1.xlsx
105	main_safe	True	0.0	778	0	4.0	4.0	0.0	1	left	2.0	0.0	0.0	0	-0.08	blockFiles/set_46/main_safe/rightBlue\GB_RB_1.xlsx
106	main_safe	True	0.0	778	0	4.0	4.0	1.0	1	right	2.0	1.0	1.0	1	0.08	blockFiles/set_46/main_safe/rightBlue\GB_RB_1.xlsx
107	main_safe	True	0.0	778	0	4.0	4.0	0.0	1	left	1.0	1.0	1.0	0	-0.08	blockFiles/set_46/main_safe/rightBlue\GB_RB_1.xlsx
108	main_safe	True	0.0	778	0	4.0	4.0	0.0	1	left	1.0	1.0	1.0	0	-0.08	blockFiles/set_46/main_safe/rightBlue\GB_RB_1.xlsx
109	main_safe	True	0.0	778	0	4.0	4.0	1.0	1	right	2.0	1.0	1.0	1	0.08	blockFiles/set_46/main_safe/rightBlue\GB_RB_1.xlsx
110	main_safe	True	0.0	778	0	4.0	4.0	0.0	1	left	1.0	0.0	1.0	0	-0.08	blockFiles/set_46/main_safe/rightBlue\GB_RB_1.xlsx
111	main_safe	True	0.0	778	0	4.0	4.0	1.0	1	right	2.0	1.0	1.0	1	0.08	blockFiles/set_46/main_safe/rightBlue\GB_RB_1.xlsx
112	main_safe	True	0.0	778	0	4.0	4.0	1.0	1	right	2.0	1.0	1.0	1	0.08	blockFiles/set_46/main_safe/rightBlue\GB_RB_1.xlsx
113	main_safe	True	0.0	778	0	4.0	4.0	0.0	1	left	1.0	1.0	1.0	0	-0.08	blockFiles/set_46/main_safe/rightBlue\GB_RB_1.xlsx
114	main_safe	True	0.0	778	0	4.0	4.0	1.0	1	right	2.0	1.0	1.0	1	0.08	blockFiles/set_46/main_safe/rightBlue\GB_RB_1.xlsx
115	main_safe	True	0.0	778	0	4.0	4.0	0.0	1	left	1.0	1.0	1.0	0	-0.08	blockFiles/set_46/main_safe/rightBlue\GB_RB_1.xlsx
116	main_safe	True	0.0	778	0	4.0	4.0	0.0	1	left	1.0	1.0	1.0	0	-0.08	blockFiles/set_46/main_safe/rightBlue\GB_RB_1.xlsx
117	main_safe	True	0.0	778	0	4.0	4.0	1.0	1	right	2.0	1.0	1.0	1	0.08	blockFiles/set_46/main_safe/rightBlue\GB_RB_1.xlsx
118	main_safe	True	0.0	778	0	4.0	4.0	1.0	1	right	2.0	1.0	1.0	1	0.08	blockFiles/set_46/main_safe/rightBlue\GB_RB_1.xlsx
119	main_safe	True	0.0	778	0	4.0	4.0	0.0	1	left	1.0	1.0	1.0	0	-0.08	blockFiles/set_46/main_safe/rightBlue\GB_RB_1.xlsx
120	main_safe	True	0.0	778	0	4.0	4.0	0.0	1	left	1.0	1.0	1.0	0	-0.08	blockFiles/set_46/main_safe/rightBlue\GB_RB_1.xlsx
121	main_safe	True	0.0	778	0	4.0	4.0	0.0	1	left	1.0	1.0	1.0	0	-0.08	blockFiles/set_46/main_safe/rightBlue\GB_RB_1.xlsx
122	main_safe	True	0.0	778	0	4.0	4.0	1.0	1	right	2.0	1.0	1.0	1	0.08	blockFiles/set_46/main_safe/rightBlue\GB_RB_1.xlsx
123	main_safe	True	0.0	778	0	4.0	4.0	1.0	1	right	2.0	0.0	1.0	1	0.08	blockFiles/set_46/main_safe/rightBlue\GB_RB_1.xlsx
124	main_safe	True	0.0	778	0	4.0	4.0	1.0	1	right	2.0	1.0	1.0	1	0.08	blockFiles/set_46/main_safe/rightBlue\GB_RB_1.xlsx
125	main_safe	True	0.0	778	0	4.0	4.0	1.0	1	right	2.0	0.0	1.0	1	0.08	blockFiles/set_46/main_safe/rightBlue\GB_RB_1.xlsx
126	main_safe	True	0.0	778	0	5.0	5.0	0.0	1	left	2.0	0.0	0.0	0	-0.08	blockFiles/set_46/main_safe/rightBlue\GB_RB_3.xlsx
127	main_safe	True	0.0	778	0	5.0	5.0	0.0	1	left	2.0	0.0	0.0	0	-0.08	blockFiles/set_46/main_safe/rightBlue\GB_RB_3.xlsx
128	main_safe	True	0.0	778	0	5.0	5.0	0.0	1	left	1.0	1.0	1.0	0	-0.08	blockFiles/set_46/main_safe/rightBlue\GB_RB_3.xlsx
129	main_safe	True	0.0	778	0	5.0	5.0	0.0	1	left	1.0	1.0	1.0	0	-0.08	blockFiles/set_46/main_safe/rightBlue\GB_RB_3.xlsx
130	main_safe	True	0.0	778	0	5.0	5.0	0.0	1	left	1.0	1.0	1.0	0	-0.08	blockFiles/set_46/main_safe/rightBlue\GB_RB_3.xlsx
131	main_safe	True	0.0	778	0	5.0	5.0	0.0	1	left	1.0	1.0	1.0	0	-0.08	blockFiles/set_46/main_safe/rightBlue\GB_RB_3.xlsx
132	main_safe	True	0.0	778	0	5.0	5.0	0.0	1	left	1.0	0.0	1.0	0	-0.08	blockFiles/set_46/main_safe/rightBlue\GB_RB_3.xlsx
133	main_safe	True	0.0	778	0	5.0	5.0	1.0	1	right	2.0	1.0	1.0	1	0.08	blockFiles/set_46/main_safe/rightBlue\GB_RB_3.xlsx
134	main_safe	True	0.0	778	0	5.0	5.0	0.0	1	left	1.0	0.0	1.0	0	-0.08	blockFiles/set_46/main_safe/rightBlue\GB_RB_3.xlsx
135	main_safe	True	0.0	778	0	5.0	5.0	1.0	1	right	2.0	0.0	1.0	1	0.08	blockFiles/set_46/main_safe/rightBlue\GB_RB_3.xlsx
136	main_safe	True	0.0	778	0	5.0	5.0	0.0	1	left	1.0	1.0	1.0	0	-0.08	blockFiles/set_46/main_safe/rightBlue\GB_RB_3.xlsx
137	main_safe	True	0.0	778	0	5.0	5.0	1.0	1	right	2.0	1.0	1.0	1	0.08	blockFiles/set_46/main_safe/rightBlue\GB_RB_3.xlsx
138	main_safe	True	0.0	778	0	5.0	5.0	0.0	1	left	1.0	1.0	1.0	0	-0.08	blockFiles/set_46/main_safe/rightBlue\GB_RB_3.xlsx
139	main_safe	True	0.0	778	0	5.0	5.0	1.0	1	right	2.0	1.0	1.0	1	0.08	blockFiles/set_46/main_safe/rightBlue\GB_RB_3.xlsx
140	main_safe	True	0.0	778	0	5.0	5.0	0.0	1	left	1.0	0.0	1.0	0	-0.08	blockFiles/set_46/main_safe/rightBlue\GB_RB_3.xlsx
141	main_safe	True	0.0	778	0	5.0	5.0	1.0	1	right	2.0	1.0	1.0	1	0.08	blockFiles/set_46/main_safe/rightBlue\GB_RB_3.xlsx
142	main_safe	True	0.0	778	0	5.0	5.0	0.0	1	left	1.0	1.0	1.0	0	-0.08	blockFiles/set_46/main_safe/rightBlue\GB_RB_3.xlsx
143	main_safe	True	0.0	778	0	5.0	5.0	1.0	1	right	2.0	1.0	1.0	1	0.08	blockFiles/set_46/main_safe/rightBlue\GB_RB_3.xlsx
144	main_safe	True	0.0	778	0	5.0	5.0	1.0	1	right	2.0	1.0	1.0	1	0.08	blockFiles/set_46/main_safe/rightBlue\GB_RB_3.xlsx
145	main_safe	True	0.0	778	0	5.0	5.0	1.0	1	right	2.0	1.0	1.0	1	0.08	blockFiles/set_46/main_safe/rightBlue\GB_RB_3.xlsx
146	main_safe	True	0.0	778	0	5.0	5.0	1.0	1	right	2.0	0.0	1.0	1	0.08	blockFiles/set_46/main_safe/rightBlue\GB_RB_3.xlsx
147	main_safe	True	0.0	778	0	5.0	5.0	1.0	1	right	2.0	1.0	1.0	1	0.08	blockFiles/set_46/main_safe/rightBlue\GB_RB_3.xlsx
148	main_safe	True	1.0	778	0	5.0	5.0	n/a	0	None	n/a	0.0	n/a	1	0.08	blockFiles/set_46/main_safe/rightBlue\GB_RB_3.xlsx
149	main_safe	True	0.0	778	0	5.0	5.0	0.0	1	left	1.0	1.0	1.0	0	-0.08	blockFiles/set_46/main_safe/rightBlue\GB_RB_3.xlsx
150	main_safe	True	0.0	778	0	5.0	5.0	0.0	1	left	1.0	0.0	1.0	0	-0.08	blockFiles/set_46/main_safe/rightBlue\GB_RB_3.xlsx
151	main_safe	True	0.0	778	0	5.0	5.0	1.0	1	right	2.0	1.0	1.0	1	0.08	blockFiles/set_46/main_safe/rightBlue\GB_RB_3.xlsx
152	patches	True	n/a	778	0	n/a	n/a	0.0	0	left	n/a	n/a	n/a	1	0.031238918881900002	blockFiles/set_46/main_PD/GB_runPatches1.xlsx
153	patches	True	n/a	778	0	n/a	n/a	1.0	1	right	n/a	n/a	n/a	1	0.00970688074827	blockFiles/set_46/main_PD/GB_runPatches1.xlsx
154	patches	True	n/a	778	0	n/a	n/a	0.0	1	left	n/a	n/a	n/a	0	-0.07423536011950001	blockFiles/set_46/main_PD/GB_runPatches1.xlsx
155	patches	True	n/a	778	0	n/a	n/a	0.0	1	left	n/a	n/a	n/a	0	-0.0463593313284	blockFiles/set_46/main_PD/GB_runPatches1.xlsx
156	patches	True	n/a	778	0	n/a	n/a	0.0	1	left	n/a	n/a	n/a	0	-0.0515351140685	blockFiles/set_46/main_PD/GB_runPatches1.xlsx
157	patches	True	n/a	778	0	n/a	n/a	1.0	1	right	n/a	n/a	n/a	1	0.0650618745014	blockFiles/set_46/main_PD/GB_runPatches1.xlsx
158	patches	True	n/a	778	0	n/a	n/a	1.0	0	right	n/a	n/a	n/a	0	-0.026887248959400003	blockFiles/set_46/main_PD/GB_runPatches1.xlsx
159	patches	True	n/a	778	0	n/a	n/a	0.0	1	left	n/a	n/a	n/a	0	-0.045372520685199993	blockFiles/set_46/main_PD/GB_runPatches1.xlsx
160	patches	True	n/a	778	0	n/a	n/a	1.0	1	right	n/a	n/a	n/a	1	0.0123089898191	blockFiles/set_46/main_PD/GB_runPatches1.xlsx
161	patches	True	n/a	778	0	n/a	n/a	1.0	1	right	n/a	n/a	n/a	1	0.0669553664327	blockFiles/set_46/main_PD/GB_runPatches1.xlsx
162	patches	True	n/a	778	0	n/a	n/a	1.0	0	right	n/a	n/a	n/a	0	-0.013412489797900001	blockFiles/set_46/main_PD/GB_runPatches1.xlsx
163	patches	True	n/a	778	0	n/a	n/a	1.0	1	right	n/a	n/a	n/a	1	0.0009203855320810002	blockFiles/set_46/main_PD/GB_runPatches1.xlsx
164	patches	True	n/a	778	0	n/a	n/a	1.0	1	right	n/a	n/a	n/a	1	0.0733223102614	blockFiles/set_46/main_PD/GB_runPatches1.xlsx
165	patches	True	n/a	778	0	n/a	n/a	0.0	1	left	n/a	n/a	n/a	0	-0.0211977270991	blockFiles/set_46/main_PD/GB_runPatches1.xlsx
166	patches	True	n/a	778	0	n/a	n/a	1.0	1	right	n/a	n/a	n/a	1	0.022366861980400003	blockFiles/set_46/main_PD/GB_runPatches1.xlsx
167	patches	True	n/a	778	0	n/a	n/a	0.0	1	left	n/a	n/a	n/a	0	-0.06297603253280001	blockFiles/set_46/main_PD/GB_runPatches1.xlsx
168	patches	True	n/a	778	0	n/a	n/a	1.0	1	right	n/a	n/a	n/a	1	0.034203229695599996	blockFiles/set_46/main_PD/GB_runPatches1.xlsx
169	patches	True	n/a	778	0	n/a	n/a	1.0	1	right	n/a	n/a	n/a	1	0.0628807272017	blockFiles/set_46/main_PD/GB_runPatches1.xlsx
170	patches	True	n/a	778	0	n/a	n/a	1.0	1	right	n/a	n/a	n/a	1	0.0358943454549	blockFiles/set_46/main_PD/GB_runPatches1.xlsx
171	patches	True	n/a	778	0	n/a	n/a	1.0	1	right	n/a	n/a	n/a	1	0.07488880889489999	blockFiles/set_46/main_PD/GB_runPatches1.xlsx
172	patches	True	n/a	778	0	n/a	n/a	1.0	1	right	n/a	n/a	n/a	1	0.0430145041086	blockFiles/set_46/main_PD/GB_runPatches1.xlsx
173	patches	True	n/a	778	0	n/a	n/a	1.0	1	right	n/a	n/a	n/a	1	0.0036157923750599996	blockFiles/set_46/main_PD/GB_runPatches1.xlsx
174	patches	True	n/a	778	0	n/a	n/a	1.0	1	right	n/a	n/a	n/a	1	0.006933301538229999	blockFiles/set_46/main_PD/GB_runPatches1.xlsx
175	patches	True	n/a	778	0	n/a	n/a	0.0	1	left	n/a	n/a	n/a	0	-0.076671970319	blockFiles/set_46/main_PD/GB_runPatches1.xlsx
176	patches	True	n/a	778	0	n/a	n/a	1.0	0	right	n/a	n/a	n/a	0	-0.0397442026436	blockFiles/set_46/main_PD/GB_runPatches1.xlsx
177	patches	True	n/a	778	0	n/a	n/a	0.0	1	left	n/a	n/a	n/a	0	-0.00231440555304	blockFiles/set_46/main_PD/GB_runPatches1.xlsx
178	patches	True	n/a	778	0	n/a	n/a	1.0	1	right	n/a	n/a	n/a	1	0.0372950854897	blockFiles/set_46/main_PD/GB_runPatches1.xlsx
179	patches	True	n/a	778	0	n/a	n/a	1.0	1	right	n/a	n/a	n/a	1	0.041896759048099995	blockFiles/set_46/main_PD/GB_runPatches1.xlsx
180	patches	True	n/a	778	0	n/a	n/a	1.0	0	right	n/a	n/a	n/a	0	-0.07453561669219999	blockFiles/set_46/main_PD/GB_runPatches1.xlsx
181	patches	True	n/a	778	0	n/a	n/a	1.0	1	right	n/a	n/a	n/a	1	0.0613120115921	blockFiles/set_46/main_PD/GB_runPatches1.xlsx
182	patches	True	n/a	778	0	n/a	n/a	0.0	1	left	n/a	n/a	n/a	0	-0.0178776892833	blockFiles/set_46/main_PD/GB_runPatches1.xlsx
183	patches	True	n/a	778	0	n/a	n/a	n/a	0	None	n/a	n/a	n/a	0	-0.04391750020909999	blockFiles/set_46/main_PD/GB_runPatches1.xlsx
184	patches	True	n/a	778	0	n/a	n/a	0.0	1	left	n/a	n/a	n/a	0	-0.0571860353835	blockFiles/set_46/main_PD/GB_runPatches1.xlsx
185	patches	True	n/a	778	0	n/a	n/a	1.0	1	right	n/a	n/a	n/a	1	0.024885488934800002	blockFiles/set_46/main_PD/GB_runPatches1.xlsx
186	patches	True	n/a	778	0	n/a	n/a	0.0	1	left	n/a	n/a	n/a	0	-0.036604399103699996	blockFiles/set_46/main_PD/GB_runPatches1.xlsx
187	patches	True	n/a	778	0	n/a	n/a	0.0	1	left	n/a	n/a	n/a	0	-0.0580663353577	blockFiles/set_46/main_PD/GB_runPatches1.xlsx
188	patches	True	n/a	778	0	n/a	n/a	0.0	1	left	n/a	n/a	n/a	0	-0.0764242541417	blockFiles/set_46/main_PD/GB_runPatches1.xlsx
189	patches	True	n/a	778	0	n/a	n/a	0.0	0	left	n/a	n/a	n/a	1	0.037832507994	blockFiles/set_46/main_PD/GB_runPatches1.xlsx
190	patches	True	n/a	778	0	n/a	n/a	0.0	1	left	n/a	n/a	n/a	0	-0.005913400966669999	blockFiles/set_46/main_PD/GB_runPatches1.xlsx
191	patches	True	n/a	778	0	n/a	n/a	1.0	1	right	n/a	n/a	n/a	1	0.0325537990406	blockFiles/set_46/main_PD/GB_runPatches1.xlsx
192	patches	True	n/a	778	0	n/a	n/a	1.0	1	right	n/a	n/a	n/a	1	0.0636786481924	blockFiles/set_46/main_PD/GB_runPatches1.xlsx
193	patches	True	n/a	778	0	n/a	n/a	1.0	1	right	n/a	n/a	n/a	1	0.0366958908178	blockFiles/set_46/main_PD/GB_runPatches1.xlsx
194	patches	True	n/a	778	0	n/a	n/a	0.0	1	left	n/a	n/a	n/a	0	-0.012714667581	blockFiles/set_46/main_PD/GB_runPatches1.xlsx
195	patches	True	n/a	778	0	n/a	n/a	1.0	1	right	n/a	n/a	n/a	1	0.04564911868419999	blockFiles/set_46/main_PD/GB_runPatches1.xlsx
196	patches	True	n/a	778	0	n/a	n/a	1.0	1	right	n/a	n/a	n/a	1	0.035746035073000004	blockFiles/set_46/main_PD/GB_runPatches1.xlsx
197	patches	True	n/a	778	0	n/a	n/a	1.0	1	right	n/a	n/a	n/a	1	0.056598979849399995	blockFiles/set_46/main_PD/GB_runPatches1.xlsx
198	patches	True	n/a	778	0	n/a	n/a	0.0	1	left	n/a	n/a	n/a	0	-0.043450719919099996	blockFiles/set_46/main_PD/GB_runPatches1.xlsx
199	patches	True	n/a	778	0	n/a	n/a	1.0	0	right	n/a	n/a	n/a	0	-0.022109362185	blockFiles/set_46/main_PD/GB_runPatches1.xlsx
200	patches	True	n/a	778	0	n/a	n/a	1.0	1	right	n/a	n/a	n/a	1	0.039807934314	blockFiles/set_46/main_PD/GB_runPatches1.xlsx
201	patches	True	n/a	778	0	n/a	n/a	1.0	1	right	n/a	n/a	n/a	1	0.0327191835456	blockFiles/set_46/main_PD/GB_runPatches1.xlsx
202	patches	True	n/a	778	0	n/a	n/a	1.0	1	right	n/a	n/a	n/a	1	0.00946469146758	blockFiles/set_46/main_PD/GB_runPatches1.xlsx
203	patches	True	n/a	778	0	n/a	n/a	1.0	1	right	n/a	n/a	n/a	1	0.0461645787768	blockFiles/set_46/main_PD/GB_runPatches1.xlsx
204	patches	True	n/a	778	0	n/a	n/a	1.0	1	right	n/a	n/a	n/a	1	0.0513894525729	blockFiles/set_46/main_PD/GB_runPatches1.xlsx
205	patches	True	n/a	778	0	n/a	n/a	0.0	1	left	n/a	n/a	n/a	0	-0.0373410368338	blockFiles/set_46/main_PD/GB_runPatches1.xlsx
206	patches	True	n/a	778	0	n/a	n/a	1.0	1	right	n/a	n/a	n/a	1	0.00273167099804	blockFiles/set_46/main_PD/GB_runPatches1.xlsx
207	patches	True	n/a	778	0	n/a	n/a	0.0	1	left	n/a	n/a	n/a	0	-0.0649723011442	blockFiles/set_46/main_PD/GB_runPatches1.xlsx
208	patches	True	n/a	778	0	n/a	n/a	0.0	1	left	n/a	n/a	n/a	0	-0.026031693965199998	blockFiles/set_46/main_PD/GB_runPatches1.xlsx
209	patches	True	n/a	778	0	n/a	n/a	1.0	1	right	n/a	n/a	n/a	1	0.076577330213	blockFiles/set_46/main_PD/GB_runPatches1.xlsx
210	patches	True	n/a	778	0	n/a	n/a	1.0	0	right	n/a	n/a	n/a	0	-0.0290522650629	blockFiles/set_46/main_PD/GB_runPatches1.xlsx
211	patches	True	n/a	778	0	n/a	n/a	0.0	0	left	n/a	n/a	n/a	1	0.00520653830841	blockFiles/set_46/main_PD/GB_runPatches1.xlsx
212	patches	True	n/a	778	0	n/a	n/a	1.0	1	right	n/a	n/a	n/a	1	0.0439860337041	blockFiles/set_46/main_PD/GB_runPatches1.xlsx
213	patches	True	n/a	778	0	n/a	n/a	1.0	1	right	n/a	n/a	n/a	1	0.039954449459899996	blockFiles/set_46/main_PD/GB_runPatches1.xlsx
214	patches	True	n/a	778	0	n/a	n/a	1.0	1	right	n/a	n/a	n/a	1	0.0492166831903	blockFiles/set_46/main_PD/GB_runPatches1.xlsx
215	patches	True	n/a	778	0	n/a	n/a	1.0	1	right	n/a	n/a	n/a	1	0.0346271844022	blockFiles/set_46/main_PD/GB_runPatches1.xlsx
216	patches	True	n/a	778	0	n/a	n/a	1.0	1	right	n/a	n/a	n/a	1	0.0608491393737	blockFiles/set_46/main_PD/GB_runPatches1.xlsx
217	patches	True	n/a	778	0	n/a	n/a	n/a	0	None	n/a	n/a	n/a	0	-0.014115757606899999	blockFiles/set_46/main_PD/GB_runPatches1.xlsx
218	patches	True	n/a	778	0	n/a	n/a	1.0	1	right	n/a	n/a	n/a	1	0.0473240005597	blockFiles/set_46/main_PD/GB_runPatches1.xlsx
219	patches	True	n/a	778	0	n/a	n/a	1.0	1	right	n/a	n/a	n/a	1	0.069416750446	blockFiles/set_46/main_PD/GB_runPatches1.xlsx
220	patches	True	n/a	778	0	n/a	n/a	1.0	1	right	n/a	n/a	n/a	1	0.03986821733419999	blockFiles/set_46/main_PD/GB_runPatches1.xlsx
221	patches	True	n/a	778	0	n/a	n/a	1.0	1	right	n/a	n/a	n/a	1	0.0661634742655	blockFiles/set_46/main_PD/GB_runPatches1.xlsx
222	patches	True	n/a	778	0	n/a	n/a	1.0	1	right	n/a	n/a	n/a	1	0.012552752997700001	blockFiles/set_46/main_PD/GB_runPatches1.xlsx
223	patches	True	n/a	778	0	n/a	n/a	0.0	1	left	n/a	n/a	n/a	0	-0.0615651217289	blockFiles/set_46/main_PD/GB_runPatches1.xlsx
224	patches	True	n/a	778	0	n/a	n/a	0.0	1	left	n/a	n/a	n/a	0	-0.0059201258979700005	blockFiles/set_46/main_PD/GB_runPatches1.xlsx
225	patches	True	n/a	778	0	n/a	n/a	0.0	1	left	n/a	n/a	n/a	0	-0.0785799386911	blockFiles/set_46/main_PD/GB_runPatches1.xlsx
226	patches	True	n/a	778	0	n/a	n/a	1.0	0	right	n/a	n/a	n/a	0	-0.00327676573768	blockFiles/set_46/main_PD/GB_runPatches1.xlsx
227	patches	True	n/a	778	0	n/a	n/a	0.0	0	left	n/a	n/a	n/a	1	0.038973173089300005	blockFiles/set_46/main_PD/GB_runPatches1.xlsx
228	patches	True	n/a	778	0	n/a	n/a	0.0	1	left	n/a	n/a	n/a	0	-0.0488166483678	blockFiles/set_46/main_PD/GB_runPatches1.xlsx
229	patches	True	n/a	778	0	n/a	n/a	1.0	0	right	n/a	n/a	n/a	0	-0.035431252252300004	blockFiles/set_46/main_PD/GB_runPatches1.xlsx
230	patches	True	n/a	778	0	n/a	n/a	0.0	1	left	n/a	n/a	n/a	0	-0.0759075096622	blockFiles/set_46/main_PD/GB_runPatches1.xlsx
231	patches	True	n/a	778	0	n/a	n/a	1.0	0	right	n/a	n/a	n/a	0	-0.0452848771214	blockFiles/set_46/main_PD/GB_runPatches1.xlsx
232	patches	True	n/a	778	0	n/a	n/a	0.0	1	left	n/a	n/a	n/a	0	-0.0113589966111	blockFiles/set_46/main_PD/GB_runPatches1.xlsx
233	patches	True	n/a	778	0	n/a	n/a	0.0	1	left	n/a	n/a	n/a	0	-0.0575187874585	blockFiles/set_46/main_PD/GB_runPatches1.xlsx
234	patches	True	n/a	778	0	n/a	n/a	0.0	1	left	n/a	n/a	n/a	0	-0.051579504869900004	blockFiles/set_46/main_PD/GB_runPatches1.xlsx
235	patches	True	n/a	778	0	n/a	n/a	1.0	0	right	n/a	n/a	n/a	0	-0.047160860020699996	blockFiles/set_46/main_PD/GB_runPatches1.xlsx
236	patches	True	n/a	778	0	n/a	n/a	0.0	1	left	n/a	n/a	n/a	0	-0.0256154525839	blockFiles/set_46/main_PD/GB_runPatches1.xlsx
237	patches	True	n/a	778	0	n/a	n/a	1.0	0	right	n/a	n/a	n/a	0	-0.0386202648655	blockFiles/set_46/main_PD/GB_runPatches1.xlsx
238	patches	True	n/a	778	0	n/a	n/a	0.0	0	left	n/a	n/a	n/a	1	0.045506046246699995	blockFiles/set_46/main_PD/GB_runPatches1.xlsx
239	patches	True	n/a	778	0	n/a	n/a	1.0	0	right	n/a	n/a	n/a	0	-0.005347958933560001	blockFiles/set_46/main_PD/GB_runPatches1.xlsx
240	patches	True	n/a	778	0	n/a	n/a	0.0	1	left	n/a	n/a	n/a	0	-0.0752493614331	blockFiles/set_46/main_PD/GB_runPatches1.xlsx
241	patches	True	n/a	778	0	n/a	n/a	1.0	1	right	n/a	n/a	n/a	1	0.064061225988	blockFiles/set_46/main_PD/GB_runPatches1.xlsx
242	patches	True	n/a	778	0	n/a	n/a	0.0	1	left	n/a	n/a	n/a	0	-0.062303095888300006	blockFiles/set_46/main_PD/GB_runPatches1.xlsx
243	patches	True	n/a	778	0	n/a	n/a	0.0	1	left	n/a	n/a	n/a	0	-0.030981279723299997	blockFiles/set_46/main_PD/GB_runPatches1.xlsx
244	patches	True	n/a	778	0	n/a	n/a	0.0	1	left	n/a	n/a	n/a	0	-0.06574843281880001	blockFiles/set_46/main_PD/GB_runPatches1.xlsx
245	patches	True	n/a	778	0	n/a	n/a	1.0	1	right	n/a	n/a	n/a	1	0.031203772593299997	blockFiles/set_46/main_PD/GB_runPatches1.xlsx
246	patches	True	n/a	778	0	n/a	n/a	1.0	0	right	n/a	n/a	n/a	0	-0.024358997587099997	blockFiles/set_46/main_PD/GB_runPatches1.xlsx
247	patches	True	n/a	778	0	n/a	n/a	0.0	1	left	n/a	n/a	n/a	0	-0.0220094747841	blockFiles/set_46/main_PD/GB_runPatches1.xlsx
248	patches	True	n/a	778	0	n/a	n/a	1.0	1	right	n/a	n/a	n/a	1	0.038046581018699996	blockFiles/set_46/main_PD/GB_runPatches1.xlsx
249	patches	True	n/a	778	0	n/a	n/a	1.0	0	right	n/a	n/a	n/a	0	-0.0396183052473	blockFiles/set_46/main_PD/GB_runPatches1.xlsx
250	patches	True	n/a	778	0	n/a	n/a	0.0	1	left	n/a	n/a	n/a	0	-0.0529844008572	blockFiles/set_46/main_PD/GB_runPatches1.xlsx
251	patches	True	n/a	778	0	n/a	n/a	1.0	1	right	n/a	n/a	n/a	1	0.015214359238700001	blockFiles/set_46/main_PD/GB_runPatches1.xlsx
252	main_unc	True	0.0	778	0	0.0	0.0	1.0	0	right	2.0	0.0	0.0	0	-0.00954477841035	blockFiles/set_46/main_unc/rightBlue\GB_RB_5.xlsx
253	main_unc	True	0.0	778	0	0.0	0.0	0.0	1	left	2.0	1.0	0.0	0	-0.0369016615488	blockFiles/set_46/main_unc/rightBlue\GB_RB_5.xlsx
254	main_unc	True	0.0	778	0	0.0	0.0	0.0	0	left	2.0	1.0	1.0	1	0.0223364222236	blockFiles/set_46/main_unc/rightBlue\GB_RB_5.xlsx
255	main_unc	True	0.0	778	0	0.0	0.0	0.0	1	left	2.0	1.0	0.0	0	-0.0350263226591	blockFiles/set_46/main_unc/rightBlue\GB_RB_5.xlsx
256	main_unc	True	0.0	778	0	0.0	0.0	0.0	1	left	2.0	0.0	0.0	0	-0.0703672782518	blockFiles/set_46/main_unc/rightBlue\GB_RB_5.xlsx
257	main_unc	True	0.0	778	0	0.0	0.0	0.0	0	left	2.0	1.0	1.0	1	0.0049060675874399995	blockFiles/set_46/main_unc/rightBlue\GB_RB_5.xlsx
258	main_unc	True	0.0	778	0	0.0	0.0	0.0	1	left	2.0	0.0	0.0	0	-0.05502140266819999	blockFiles/set_46/main_unc/rightBlue\GB_RB_5.xlsx
259	main_unc	True	0.0	778	0	0.0	0.0	0.0	1	left	2.0	1.0	0.0	0	-0.0563481696136	blockFiles/set_46/main_unc/rightBlue\GB_RB_5.xlsx
260	main_unc	True	0.0	778	0	0.0	0.0	1.0	1	right	1.0	0.0	0.0	1	0.05367072703319999	blockFiles/set_46/main_unc/rightBlue\GB_RB_5.xlsx
261	main_unc	True	0.0	778	0	0.0	0.0	0.0	0	left	1.0	0.0	0.0	1	0.0151537442207	blockFiles/set_46/main_unc/rightBlue\GB_RB_5.xlsx
262	main_unc	True	0.0	778	0	0.0	0.0	0.0	0	left	1.0	0.0	0.0	1	0.0317080628686	blockFiles/set_46/main_unc/rightBlue\GB_RB_5.xlsx
263	main_unc	True	0.0	778	0	0.0	0.0	0.0	1	left	2.0	1.0	0.0	0	-0.0728111740015	blockFiles/set_46/main_unc/rightBlue\GB_RB_5.xlsx
264	main_unc	True	0.0	778	0	0.0	0.0	0.0	1	left	2.0	0.0	0.0	0	-0.072092283126	blockFiles/set_46/main_unc/rightBlue\GB_RB_5.xlsx
265	main_unc	True	0.0	778	0	0.0	0.0	0.0	1	left	2.0	0.0	0.0	0	-0.0261394355632	blockFiles/set_46/main_unc/rightBlue\GB_RB_5.xlsx
266	main_unc	True	0.0	778	0	0.0	0.0	1.0	1	right	1.0	0.0	0.0	1	0.009809126947079999	blockFiles/set_46/main_unc/rightBlue\GB_RB_5.xlsx
267	main_unc	True	0.0	778	0	0.0	0.0	0.0	0	left	1.0	0.0	0.0	1	0.04027293244380001	blockFiles/set_46/main_unc/rightBlue\GB_RB_5.xlsx
268	main_unc	True	0.0	778	0	0.0	0.0	1.0	1	right	1.0	0.0	0.0	1	0.0559516750276	blockFiles/set_46/main_unc/rightBlue\GB_RB_5.xlsx
269	main_unc	True	0.0	778	0	0.0	0.0	1.0	1	right	1.0	0.0	0.0	1	0.0490132659674	blockFiles/set_46/main_unc/rightBlue\GB_RB_5.xlsx
270	main_unc	True	0.0	778	0	0.0	0.0	1.0	1	right	1.0	0.0	0.0	1	0.07201483746989999	blockFiles/set_46/main_unc/rightBlue\GB_RB_5.xlsx
271	main_unc	True	0.0	778	0	0.0	0.0	0.0	1	left	1.0	1.0	1.0	0	-0.058811262641099996	blockFiles/set_46/main_unc/rightBlue\GB_RB_5.xlsx
272	main_unc	True	0.0	778	0	0.0	0.0	0.0	1	left	1.0	1.0	1.0	0	-0.044003836456699995	blockFiles/set_46/main_unc/rightBlue\GB_RB_5.xlsx
273	main_unc	True	0.0	778	0	0.0	0.0	1.0	1	right	2.0	1.0	1.0	1	0.017767995502799998	blockFiles/set_46/main_unc/rightBlue\GB_RB_5.xlsx
274	main_unc	True	0.0	778	0	0.0	0.0	0.0	1	left	1.0	1.0	1.0	0	-0.00838920382783	blockFiles/set_46/main_unc/rightBlue\GB_RB_5.xlsx
275	main_unc	True	0.0	778	0	0.0	0.0	0.0	1	left	1.0	1.0	1.0	0	-0.0795147017576	blockFiles/set_46/main_unc/rightBlue\GB_RB_5.xlsx
276	main_unc	True	0.0	778	0	0.0	0.0	1.0	1	right	2.0	1.0	1.0	1	0.0665788451396	blockFiles/set_46/main_unc/rightBlue\GB_RB_5.xlsx
277	main_unc	True	0.0	778	0	1.0	1.0	1.0	1	right	2.0	1.0	1.0	1	0.0529892756231	blockFiles/set_46/main_unc/rightBlue\GB_RB_6.xlsx
278	main_unc	True	0.0	778	0	1.0	1.0	0.0	0	left	2.0	0.0	1.0	1	0.0336890347861	blockFiles/set_46/main_unc/rightBlue\GB_RB_6.xlsx
279	main_unc	True	0.0	778	0	1.0	1.0	1.0	1	right	2.0	1.0	1.0	1	0.07295600896700001	blockFiles/set_46/main_unc/rightBlue\GB_RB_6.xlsx
280	main_unc	True	0.0	778	0	1.0	1.0	0.0	1	left	1.0	1.0	1.0	0	-0.0668331931718	blockFiles/set_46/main_unc/rightBlue\GB_RB_6.xlsx
281	main_unc	True	0.0	778	0	1.0	1.0	0.0	1	left	1.0	1.0	1.0	0	-0.0227791184373	blockFiles/set_46/main_unc/rightBlue\GB_RB_6.xlsx
282	main_unc	True	0.0	778	0	1.0	1.0	0.0	1	left	1.0	0.0	1.0	0	-0.0188579274341	blockFiles/set_46/main_unc/rightBlue\GB_RB_6.xlsx
283	main_unc	True	0.0	778	0	1.0	1.0	0.0	1	left	1.0	1.0	1.0	0	-0.00417266717181	blockFiles/set_46/main_unc/rightBlue\GB_RB_6.xlsx
284	main_unc	True	0.0	778	0	1.0	1.0	1.0	1	right	2.0	1.0	1.0	1	0.0348803850077	blockFiles/set_46/main_unc/rightBlue\GB_RB_6.xlsx
285	main_unc	True	0.0	778	0	1.0	1.0	0.0	0	left	2.0	1.0	1.0	1	0.060207866374399996	blockFiles/set_46/main_unc/rightBlue\GB_RB_6.xlsx
286	main_unc	True	0.0	778	0	1.0	1.0	0.0	1	left	1.0	0.0	1.0	0	-0.062672043927	blockFiles/set_46/main_unc/rightBlue\GB_RB_6.xlsx
287	main_unc	True	0.0	778	0	1.0	1.0	0.0	1	left	1.0	1.0	1.0	0	-0.0393429583311	blockFiles/set_46/main_unc/rightBlue\GB_RB_6.xlsx
288	main_unc	True	0.0	778	0	1.0	1.0	0.0	1	left	1.0	0.0	1.0	0	-0.0251049555652	blockFiles/set_46/main_unc/rightBlue\GB_RB_6.xlsx
289	main_unc	True	0.0	778	0	1.0	1.0	1.0	1	right	2.0	1.0	1.0	1	0.062187764029900006	blockFiles/set_46/main_unc/rightBlue\GB_RB_6.xlsx
290	main_unc	True	0.0	778	0	1.0	1.0	0.0	0	left	1.0	0.0	0.0	1	0.012773755006500001	blockFiles/set_46/main_unc/rightBlue\GB_RB_6.xlsx
291	main_unc	True	0.0	778	0	1.0	1.0	1.0	1	right	2.0	1.0	1.0	1	0.0566048776545	blockFiles/set_46/main_unc/rightBlue\GB_RB_6.xlsx
292	main_unc	True	0.0	778	0	1.0	1.0	1.0	0	right	1.0	1.0	1.0	0	-0.0038219423592100003	blockFiles/set_46/main_unc/rightBlue\GB_RB_6.xlsx
293	main_unc	True	1.0	778	0	1.0	1.0	n/a	0	None	n/a	0.0	n/a	1	0.026376306247	blockFiles/set_46/main_unc/rightBlue\GB_RB_6.xlsx
294	main_unc	True	0.0	778	0	1.0	1.0	0.0	1	left	1.0	1.0	1.0	0	-0.046419766414900004	blockFiles/set_46/main_unc/rightBlue\GB_RB_6.xlsx
295	main_unc	True	0.0	778	0	1.0	1.0	1.0	1	right	2.0	1.0	1.0	1	0.0239500781707	blockFiles/set_46/main_unc/rightBlue\GB_RB_6.xlsx
296	main_unc	True	0.0	778	0	1.0	1.0	1.0	1	right	2.0	0.0	1.0	1	0.0587090061419	blockFiles/set_46/main_unc/rightBlue\GB_RB_6.xlsx
297	main_unc	True	0.0	778	0	1.0	1.0	0.0	1	left	1.0	0.0	1.0	0	-0.0180449928902	blockFiles/set_46/main_unc/rightBlue\GB_RB_6.xlsx
298	main_unc	True	0.0	778	0	1.0	1.0	1.0	1	right	2.0	1.0	1.0	1	0.0147833646648	blockFiles/set_46/main_unc/rightBlue\GB_RB_6.xlsx
299	main_unc	True	0.0	778	0	1.0	1.0	0.0	1	left	1.0	1.0	1.0	0	-0.0696766781248	blockFiles/set_46/main_unc/rightBlue\GB_RB_6.xlsx
300	main_unc	True	0.0	778	0	1.0	1.0	0.0	0	left	1.0	0.0	0.0	1	0.008697168901559998	blockFiles/set_46/main_unc/rightBlue\GB_RB_6.xlsx
301	main_unc	True	0.0	778	0	1.0	1.0	0.0	1	left	1.0	1.0	1.0	0	-0.0355650695786	blockFiles/set_46/main_unc/rightBlue\GB_RB_6.xlsx
302	main_unc	True	0.0	778	0	1.0	1.0	1.0	1	right	2.0	1.0	1.0	1	0.026376306247	blockFiles/set_46/main_unc/rightBlue\GB_RB_6.xlsx
303	main_unc	True	0.0	778	0	2.0	2.0	0.0	1	left	1.0	1.0	0.0	0	-0.0606401346624	blockFiles/set_46/main_unc/leftBlue\GB_LB_5.xlsx
304	main_unc	True	0.0	778	0	2.0	2.0	0.0	0	left	1.0	1.0	1.0	1	0.013576751109200001	blockFiles/set_46/main_unc/leftBlue\GB_LB_5.xlsx
305	main_unc	True	0.0	778	0	2.0	2.0	0.0	0	left	1.0	1.0	1.0	1	0.006857359446590001	blockFiles/set_46/main_unc/leftBlue\GB_LB_5.xlsx
306	main_unc	True	1.0	778	0	2.0	2.0	n/a	0	None	n/a	0.0	n/a	1	0.0773926910013	blockFiles/set_46/main_unc/leftBlue\GB_LB_5.xlsx
307	main_unc	True	0.0	778	0	2.0	2.0	1.0	1	right	2.0	0.0	0.0	1	0.024757588394	blockFiles/set_46/main_unc/leftBlue\GB_LB_5.xlsx
308	main_unc	True	0.0	778	0	2.0	2.0	0.0	1	left	1.0	0.0	0.0	0	-0.052607718966899995	blockFiles/set_46/main_unc/leftBlue\GB_LB_5.xlsx
309	main_unc	True	0.0	778	0	2.0	2.0	0.0	1	left	1.0	0.0	0.0	0	-0.0648866931535	blockFiles/set_46/main_unc/leftBlue\GB_LB_5.xlsx
310	main_unc	True	0.0	778	0	2.0	2.0	0.0	0	left	1.0	1.0	1.0	1	0.047352252863300005	blockFiles/set_46/main_unc/leftBlue\GB_LB_5.xlsx
311	main_unc	True	0.0	778	0	2.0	2.0	1.0	1	right	1.0	1.0	1.0	1	0.0696406471543	blockFiles/set_46/main_unc/leftBlue\GB_LB_5.xlsx
312	main_unc	True	0.0	778	0	2.0	2.0	1.0	1	right	1.0	1.0	1.0	1	0.0390480133146	blockFiles/set_46/main_unc/leftBlue\GB_LB_5.xlsx
313	main_unc	True	0.0	778	0	2.0	2.0	0.0	1	left	2.0	1.0	1.0	0	-0.018791154008400004	blockFiles/set_46/main_unc/leftBlue\GB_LB_5.xlsx
314	main_unc	True	0.0	778	0	2.0	2.0	1.0	1	right	1.0	0.0	1.0	1	0.0474410078861	blockFiles/set_46/main_unc/leftBlue\GB_LB_5.xlsx
315	main_unc	True	0.0	778	0	2.0	2.0	1.0	1	right	1.0	1.0	1.0	1	0.00668863829225	blockFiles/set_46/main_unc/leftBlue\GB_LB_5.xlsx
316	main_unc	True	0.0	778	0	2.0	2.0	1.0	1	right	1.0	1.0	1.0	1	0.030706321671599996	blockFiles/set_46/main_unc/leftBlue\GB_LB_5.xlsx
317	main_unc	True	0.0	778	0	2.0	2.0	0.0	1	left	2.0	1.0	1.0	0	-0.062547357399	blockFiles/set_46/main_unc/leftBlue\GB_LB_5.xlsx
318	main_unc	True	0.0	778	0	2.0	2.0	0.0	1	left	2.0	0.0	1.0	0	-0.042213319614500006	blockFiles/set_46/main_unc/leftBlue\GB_LB_5.xlsx
319	main_unc	True	0.0	778	0	2.0	2.0	0.0	1	left	2.0	1.0	1.0	0	-0.0620929513313	blockFiles/set_46/main_unc/leftBlue\GB_LB_5.xlsx
320	main_unc	True	0.0	778	0	2.0	2.0	0.0	1	left	2.0	1.0	1.0	0	-0.009522477611899999	blockFiles/set_46/main_unc/leftBlue\GB_LB_5.xlsx
321	main_unc	True	0.0	778	0	2.0	2.0	0.0	0	left	2.0	1.0	0.0	1	0.00707106439397	blockFiles/set_46/main_unc/leftBlue\GB_LB_5.xlsx
322	main_unc	True	0.0	778	0	2.0	2.0	0.0	1	left	2.0	1.0	1.0	0	-0.07158019892869999	blockFiles/set_46/main_unc/leftBlue\GB_LB_5.xlsx
323	main_unc	True	1.0	778	0	2.0	2.0	n/a	0	None	n/a	0.0	n/a	1	0.037167349625400005	blockFiles/set_46/main_unc/leftBlue\GB_LB_5.xlsx
324	main_unc	True	0.0	778	0	2.0	2.0	1.0	1	right	1.0	1.0	1.0	1	0.0649656428583	blockFiles/set_46/main_unc/leftBlue\GB_LB_5.xlsx
325	main_unc	True	0.0	778	0	2.0	2.0	0.0	1	left	2.0	1.0	1.0	0	-0.07555032147089999	blockFiles/set_46/main_unc/leftBlue\GB_LB_5.xlsx
326	main_unc	True	0.0	778	0	2.0	2.0	0.0	1	left	1.0	0.0	0.0	0	-0.00826871389523	blockFiles/set_46/main_unc/leftBlue\GB_LB_5.xlsx
327	main_unc	True	0.0	778	0	2.0	2.0	0.0	1	left	2.0	1.0	1.0	0	-0.0572007430159	blockFiles/set_46/main_unc/leftBlue\GB_LB_5.xlsx
328	main_unc	True	0.0	778	0	2.0	2.0	1.0	1	right	1.0	1.0	1.0	1	0.0773926910013	blockFiles/set_46/main_unc/leftBlue\GB_LB_5.xlsx
329	main_unc	True	0.0	778	0	2.0	2.0	1.0	1	right	1.0	1.0	1.0	1	0.037167349625400005	blockFiles/set_46/main_unc/leftBlue\GB_LB_5.xlsx
330	main_unc	True	0.0	778	0	3.0	3.0	1.0	1	right	1.0	1.0	1.0	1	0.013663725759799999	blockFiles/set_46/main_unc/leftBlue\GB_LB_6.xlsx
331	main_unc	True	0.0	778	0	3.0	3.0	1.0	1	right	1.0	1.0	1.0	1	0.0710449246503	blockFiles/set_46/main_unc/leftBlue\GB_LB_6.xlsx
332	main_unc	True	0.0	778	0	3.0	3.0	1.0	1	right	1.0	1.0	1.0	1	0.0360125466809	blockFiles/set_46/main_unc/leftBlue\GB_LB_6.xlsx
333	main_unc	True	0.0	778	0	3.0	3.0	1.0	1	right	1.0	1.0	1.0	1	0.0332709949836	blockFiles/set_46/main_unc/leftBlue\GB_LB_6.xlsx
334	main_unc	True	0.0	778	0	3.0	3.0	1.0	1	right	1.0	0.0	1.0	1	0.0687939002365	blockFiles/set_46/main_unc/leftBlue\GB_LB_6.xlsx
335	main_unc	True	0.0	778	0	3.0	3.0	0.0	1	left	2.0	1.0	1.0	0	-0.0335719734803	blockFiles/set_46/main_unc/leftBlue\GB_LB_6.xlsx
336	main_unc	True	0.0	778	0	3.0	3.0	0.0	1	left	2.0	0.0	1.0	0	-0.00376457987353	blockFiles/set_46/main_unc/leftBlue\GB_LB_6.xlsx
337	main_unc	True	0.0	778	0	3.0	3.0	0.0	1	left	2.0	1.0	1.0	0	-0.0147582772747	blockFiles/set_46/main_unc/leftBlue\GB_LB_6.xlsx
338	main_unc	True	0.0	778	0	3.0	3.0	0.0	1	left	2.0	1.0	1.0	0	-0.0780245508067	blockFiles/set_46/main_unc/leftBlue\GB_LB_6.xlsx
339	main_unc	True	0.0	778	0	3.0	3.0	0.0	1	left	2.0	1.0	1.0	0	-0.0506269928068	blockFiles/set_46/main_unc/leftBlue\GB_LB_6.xlsx
340	main_unc	True	0.0	778	0	3.0	3.0	0.0	1	left	2.0	1.0	1.0	0	-0.0042723673395799995	blockFiles/set_46/main_unc/leftBlue\GB_LB_6.xlsx
341	main_unc	True	0.0	778	0	3.0	3.0	0.0	1	left	2.0	0.0	1.0	0	-0.041895576492	blockFiles/set_46/main_unc/leftBlue\GB_LB_6.xlsx
342	main_unc	True	0.0	778	0	3.0	3.0	1.0	1	right	1.0	0.0	1.0	1	0.0369061946496	blockFiles/set_46/main_unc/leftBlue\GB_LB_6.xlsx
343	main_unc	True	0.0	778	0	3.0	3.0	0.0	1	left	2.0	1.0	1.0	0	-0.057637918964	blockFiles/set_46/main_unc/leftBlue\GB_LB_6.xlsx
344	main_unc	True	0.0	778	0	3.0	3.0	1.0	1	right	1.0	1.0	1.0	1	0.0677443656325	blockFiles/set_46/main_unc/leftBlue\GB_LB_6.xlsx
345	main_unc	True	0.0	778	0	3.0	3.0	0.0	1	left	2.0	1.0	1.0	0	-0.0246387618594	blockFiles/set_46/main_unc/leftBlue\GB_LB_6.xlsx
346	main_unc	True	0.0	778	0	3.0	3.0	1.0	1	right	1.0	1.0	1.0	1	0.011043814905000001	blockFiles/set_46/main_unc/leftBlue\GB_LB_6.xlsx
347	main_unc	True	0.0	778	0	3.0	3.0	1.0	1	right	1.0	0.0	1.0	1	0.0406734328717	blockFiles/set_46/main_unc/leftBlue\GB_LB_6.xlsx
348	main_unc	True	0.0	778	0	3.0	3.0	1.0	1	right	1.0	1.0	1.0	1	0.0651319684274	blockFiles/set_46/main_unc/leftBlue\GB_LB_6.xlsx
349	main_unc	True	1.0	778	0	3.0	3.0	n/a	0	None	n/a	0.0	n/a	1	0.07727123020219999	blockFiles/set_46/main_unc/leftBlue\GB_LB_6.xlsx
350	main_unc	True	0.0	778	0	3.0	3.0	0.0	1	left	2.0	1.0	1.0	0	-0.028023087214700003	blockFiles/set_46/main_unc/leftBlue\GB_LB_6.xlsx
351	main_unc	True	0.0	778	0	3.0	3.0	1.0	1	right	1.0	1.0	1.0	1	0.013011626210100002	blockFiles/set_46/main_unc/leftBlue\GB_LB_6.xlsx
352	main_unc	True	0.0	778	0	3.0	3.0	1.0	1	right	1.0	1.0	1.0	1	0.0558203173056	blockFiles/set_46/main_unc/leftBlue\GB_LB_6.xlsx
353	main_unc	True	0.0	778	0	3.0	3.0	0.0	1	left	2.0	1.0	1.0	0	-0.0663112592511	blockFiles/set_46/main_unc/leftBlue\GB_LB_6.xlsx
354	main_unc	True	0.0	778	0	3.0	3.0	0.0	1	left	2.0	1.0	1.0	0	-0.011823518648700002	blockFiles/set_46/main_unc/leftBlue\GB_LB_6.xlsx
355	main_unc	True	0.0	778	0	3.0	3.0	1.0	1	right	1.0	1.0	1.0	1	0.07727123020219999	blockFiles/set_46/main_unc/leftBlue\GB_LB_6.xlsx
356	main_unc	True	0.0	778	0	4.0	4.0	0.0	0	left	2.0	1.0	1.0	1	0.0231575630419	blockFiles/set_46/main_unc/rightBlue\GB_RB_3.xlsx
357	main_unc	True	0.0	778	0	4.0	4.0	1.0	1	right	1.0	1.0	0.0	1	0.0181685272977	blockFiles/set_46/main_unc/rightBlue\GB_RB_3.xlsx
358	main_unc	True	0.0	778	0	4.0	4.0	1.0	1	right	1.0	0.0	0.0	1	0.0792358969152	blockFiles/set_46/main_unc/rightBlue\GB_RB_3.xlsx
359	main_unc	True	0.0	778	0	4.0	4.0	0.0	1	left	2.0	0.0	0.0	0	-0.0681762857921	blockFiles/set_46/main_unc/rightBlue\GB_RB_3.xlsx
360	main_unc	True	0.0	778	0	4.0	4.0	1.0	1	right	2.0	1.0	1.0	1	0.0357222965173	blockFiles/set_46/main_unc/rightBlue\GB_RB_3.xlsx
361	main_unc	True	0.0	778	0	4.0	4.0	0.0	0	left	1.0	0.0	0.0	1	0.0010816624201800001	blockFiles/set_46/main_unc/rightBlue\GB_RB_3.xlsx
362	main_unc	True	0.0	778	0	4.0	4.0	0.0	1	left	1.0	1.0	1.0	0	-0.0592379759997	blockFiles/set_46/main_unc/rightBlue\GB_RB_3.xlsx
363	main_unc	True	0.0	778	0	4.0	4.0	0.0	0	left	1.0	1.0	0.0	1	0.0147747407667	blockFiles/set_46/main_unc/rightBlue\GB_RB_3.xlsx
364	main_unc	True	0.0	778	0	4.0	4.0	0.0	0	left	2.0	0.0	1.0	1	0.000685171969235	blockFiles/set_46/main_unc/rightBlue\GB_RB_3.xlsx
365	main_unc	True	0.0	778	0	4.0	4.0	0.0	0	left	2.0	1.0	1.0	1	0.07628606012089999	blockFiles/set_46/main_unc/rightBlue\GB_RB_3.xlsx
366	main_unc	True	1.0	778	0	4.0	4.0	n/a	0	None	n/a	0.0	n/a	1	0.05785597385840001	blockFiles/set_46/main_unc/rightBlue\GB_RB_3.xlsx
367	main_unc	True	0.0	778	0	4.0	4.0	1.0	0	right	2.0	0.0	0.0	0	-0.027919948454900003	blockFiles/set_46/main_unc/rightBlue\GB_RB_3.xlsx
368	main_unc	True	0.0	778	0	4.0	4.0	0.0	1	left	1.0	1.0	1.0	0	-0.06262891327959999	blockFiles/set_46/main_unc/rightBlue\GB_RB_3.xlsx
369	main_unc	True	0.0	778	0	4.0	4.0	1.0	0	right	2.0	0.0	0.0	0	-0.000170394666493	blockFiles/set_46/main_unc/rightBlue\GB_RB_3.xlsx
370	main_unc	True	0.0	778	0	4.0	4.0	0.0	1	left	1.0	1.0	1.0	0	-0.062427003812	blockFiles/set_46/main_unc/rightBlue\GB_RB_3.xlsx
371	main_unc	True	0.0	778	0	4.0	4.0	0.0	1	left	1.0	1.0	1.0	0	-0.00113965120167	blockFiles/set_46/main_unc/rightBlue\GB_RB_3.xlsx
372	main_unc	True	0.0	778	0	4.0	4.0	1.0	1	right	2.0	0.0	1.0	1	0.05289820825680001	blockFiles/set_46/main_unc/rightBlue\GB_RB_3.xlsx
373	main_unc	True	0.0	778	0	4.0	4.0	1.0	0	right	2.0	0.0	0.0	0	-0.0282549941726	blockFiles/set_46/main_unc/rightBlue\GB_RB_3.xlsx
374	main_unc	True	0.0	778	0	4.0	4.0	1.0	1	right	2.0	1.0	1.0	1	0.0705084412917	blockFiles/set_46/main_unc/rightBlue\GB_RB_3.xlsx
375	main_unc	True	0.0	778	0	4.0	4.0	0.0	1	left	1.0	1.0	1.0	0	-0.0588908475265	blockFiles/set_46/main_unc/rightBlue\GB_RB_3.xlsx
376	main_unc	True	0.0	778	0	4.0	4.0	1.0	1	right	2.0	0.0	1.0	1	0.012496991865299999	blockFiles/set_46/main_unc/rightBlue\GB_RB_3.xlsx
377	main_unc	True	0.0	778	0	4.0	4.0	0.0	1	left	1.0	1.0	1.0	0	-0.0662298034877	blockFiles/set_46/main_unc/rightBlue\GB_RB_3.xlsx
378	main_unc	True	0.0	778	0	4.0	4.0	1.0	0	right	2.0	0.0	0.0	0	-0.0307363379188	blockFiles/set_46/main_unc/rightBlue\GB_RB_3.xlsx
379	main_unc	True	0.0	778	0	4.0	4.0	0.0	1	left	1.0	1.0	1.0	0	-0.056920678485199994	blockFiles/set_46/main_unc/rightBlue\GB_RB_3.xlsx
380	main_unc	True	0.0	778	0	4.0	4.0	0.0	1	left	1.0	0.0	1.0	0	-0.03700359629469999	blockFiles/set_46/main_unc/rightBlue\GB_RB_3.xlsx
381	main_unc	True	0.0	778	0	4.0	4.0	1.0	1	right	2.0	1.0	1.0	1	0.05785597385840001	blockFiles/set_46/main_unc/rightBlue\GB_RB_3.xlsx
382	main_unc	True	0.0	778	0	5.0	5.0	0.0	1	left	1.0	1.0	0.0	0	-0.042650975082099994	blockFiles/set_46/main_unc/leftBlue\GB_LB_4.xlsx
383	main_unc	True	0.0	778	0	5.0	5.0	0.0	1	left	1.0	1.0	0.0	0	-0.0219454536773	blockFiles/set_46/main_unc/leftBlue\GB_LB_4.xlsx
384	main_unc	True	0.0	778	0	5.0	5.0	0.0	1	left	1.0	0.0	0.0	0	-0.07578792614860001	blockFiles/set_46/main_unc/leftBlue\GB_LB_4.xlsx
385	main_unc	True	0.0	778	0	5.0	5.0	0.0	0	left	1.0	0.0	1.0	1	0.00979530069977	blockFiles/set_46/main_unc/leftBlue\GB_LB_4.xlsx
386	main_unc	True	0.0	778	0	5.0	5.0	0.0	1	left	1.0	0.0	0.0	0	-0.0564129084721	blockFiles/set_46/main_unc/leftBlue\GB_LB_4.xlsx
387	main_unc	True	0.0	778	0	5.0	5.0	0.0	1	left	2.0	0.0	1.0	0	-0.0275093728863	blockFiles/set_46/main_unc/leftBlue\GB_LB_4.xlsx
388	main_unc	True	0.0	778	0	5.0	5.0	0.0	1	left	2.0	1.0	1.0	0	-0.037845476269699994	blockFiles/set_46/main_unc/leftBlue\GB_LB_4.xlsx
389	main_unc	True	0.0	778	0	5.0	5.0	1.0	1	right	1.0	1.0	1.0	1	0.0513732190244	blockFiles/set_46/main_unc/leftBlue\GB_LB_4.xlsx
390	main_unc	True	0.0	778	0	5.0	5.0	0.0	0	left	2.0	0.0	0.0	1	0.00126107156277	blockFiles/set_46/main_unc/leftBlue\GB_LB_4.xlsx
391	main_unc	True	0.0	778	0	5.0	5.0	1.0	1	right	1.0	1.0	1.0	1	0.06705756198610001	blockFiles/set_46/main_unc/leftBlue\GB_LB_4.xlsx
392	main_unc	True	0.0	778	0	5.0	5.0	0.0	1	left	2.0	1.0	1.0	0	-0.016115073692100003	blockFiles/set_46/main_unc/leftBlue\GB_LB_4.xlsx
393	main_unc	True	0.0	778	0	5.0	5.0	1.0	0	right	1.0	0.0	0.0	0	-0.029026905782499998	blockFiles/set_46/main_unc/leftBlue\GB_LB_4.xlsx
394	main_unc	True	0.0	778	0	5.0	5.0	0.0	1	left	2.0	1.0	1.0	0	-0.042985100373599996	blockFiles/set_46/main_unc/leftBlue\GB_LB_4.xlsx
395	main_unc	True	0.0	778	0	5.0	5.0	1.0	0	right	2.0	0.0	1.0	0	-0.0419849676639	blockFiles/set_46/main_unc/leftBlue\GB_LB_4.xlsx
396	main_unc	True	0.0	778	0	5.0	5.0	0.0	0	left	2.0	0.0	0.0	1	0.00455860048532	blockFiles/set_46/main_unc/leftBlue\GB_LB_4.xlsx
397	main_unc	True	0.0	778	0	5.0	5.0	0.0	1	left	2.0	0.0	1.0	0	-0.0617859181762	blockFiles/set_46/main_unc/leftBlue\GB_LB_4.xlsx
398	main_unc	True	0.0	778	0	5.0	5.0	1.0	1	right	1.0	1.0	1.0	1	0.0485241039842	blockFiles/set_46/main_unc/leftBlue\GB_LB_4.xlsx
399	main_unc	True	0.0	778	0	5.0	5.0	1.0	1	right	1.0	1.0	1.0	1	0.026856069080500002	blockFiles/set_46/main_unc/leftBlue\GB_LB_4.xlsx
400	main_unc	True	0.0	778	0	5.0	5.0	1.0	1	right	1.0	1.0	1.0	1	0.0524534898438	blockFiles/set_46/main_unc/leftBlue\GB_LB_4.xlsx
401	main_unc	True	0.0	778	0	5.0	5.0	0.0	0	left	2.0	0.0	0.0	1	0.00694025119767	blockFiles/set_46/main_unc/leftBlue\GB_LB_4.xlsx
402	main_unc	True	0.0	778	0	5.0	5.0	0.0	1	left	2.0	1.0	1.0	0	-0.07465682208539999	blockFiles/set_46/main_unc/leftBlue\GB_LB_4.xlsx
403	main_unc	True	0.0	778	0	5.0	5.0	1.0	1	right	1.0	1.0	1.0	1	0.060460707731499995	blockFiles/set_46/main_unc/leftBlue\GB_LB_4.xlsx
404	main_unc	True	0.0	778	0	5.0	5.0	1.0	1	right	1.0	1.0	1.0	1	0.0350154559873	blockFiles/set_46/main_unc/leftBlue\GB_LB_4.xlsx
405	main_unc	True	0.0	778	0	5.0	5.0	1.0	1	right	1.0	1.0	1.0	1	0.0744265165366	blockFiles/set_46/main_unc/leftBlue\GB_LB_4.xlsx
406	main_unc	True	0.0	778	0	5.0	5.0	1.0	1	right	1.0	1.0	1.0	1	0.029335564412199998	blockFiles/set_46/main_unc/leftBlue\GB_LB_4.xlsx
407	main_unc	True	0.0	778	0	6.0	6.0	0.0	0	left	1.0	0.0	0.0	1	0.030832819417099998	blockFiles/set_46/main_unc/rightBlue\GB_RB_2.xlsx
408	main_unc	True	0.0	778	0	6.0	6.0	0.0	1	left	2.0	1.0	0.0	0	-0.0616988118365	blockFiles/set_46/main_unc/rightBlue\GB_RB_2.xlsx
409	main_unc	True	1.0	778	0	6.0	6.0	0.0	0	left	n/a	0.0	n/a	1	0.014041827339700002	blockFiles/set_46/main_unc/rightBlue\GB_RB_2.xlsx
410	main_unc	True	0.0	778	0	6.0	6.0	0.0	1	left	2.0	0.0	0.0	0	-0.0315524358861	blockFiles/set_46/main_unc/rightBlue\GB_RB_2.xlsx
411	main_unc	True	0.0	778	0	6.0	6.0	0.0	0	left	1.0	0.0	0.0	1	0.013352395966600001	blockFiles/set_46/main_unc/rightBlue\GB_RB_2.xlsx
412	main_unc	True	0.0	778	0	6.0	6.0	0.0	1	left	2.0	0.0	0.0	0	-0.0473827070184	blockFiles/set_46/main_unc/rightBlue\GB_RB_2.xlsx
413	main_unc	True	0.0	778	0	6.0	6.0	0.0	0	left	1.0	0.0	0.0	1	0.0326737713255	blockFiles/set_46/main_unc/rightBlue\GB_RB_2.xlsx
414	main_unc	True	0.0	778	0	6.0	6.0	0.0	1	left	1.0	0.0	1.0	0	-0.040984465647499996	blockFiles/set_46/main_unc/rightBlue\GB_RB_2.xlsx
415	main_unc	True	0.0	778	0	6.0	6.0	1.0	1	right	2.0	1.0	1.0	1	0.05479093100880001	blockFiles/set_46/main_unc/rightBlue\GB_RB_2.xlsx
416	main_unc	True	0.0	778	0	6.0	6.0	0.0	0	left	2.0	1.0	1.0	1	0.0606227705069	blockFiles/set_46/main_unc/rightBlue\GB_RB_2.xlsx
417	main_unc	True	0.0	778	0	6.0	6.0	0.0	1	left	1.0	1.0	1.0	0	-0.050540688317300006	blockFiles/set_46/main_unc/rightBlue\GB_RB_2.xlsx
418	main_unc	True	1.0	778	0	6.0	6.0	0.0	0	left	n/a	0.0	n/a	1	0.052951891832099994	blockFiles/set_46/main_unc/rightBlue\GB_RB_2.xlsx
419	main_unc	True	0.0	778	0	6.0	6.0	1.0	1	right	2.0	1.0	1.0	1	0.0224267607927	blockFiles/set_46/main_unc/rightBlue\GB_RB_2.xlsx
420	main_unc	True	0.0	778	0	6.0	6.0	0.0	1	left	1.0	1.0	1.0	0	-0.028459947258200002	blockFiles/set_46/main_unc/rightBlue\GB_RB_2.xlsx
421	main_unc	True	0.0	778	0	6.0	6.0	0.0	0	left	1.0	0.0	0.0	1	0.009879179373379999	blockFiles/set_46/main_unc/rightBlue\GB_RB_2.xlsx
422	main_unc	True	0.0	778	0	6.0	6.0	0.0	0	left	2.0	1.0	1.0	1	0.0344796154462	blockFiles/set_46/main_unc/rightBlue\GB_RB_2.xlsx
423	main_unc	True	1.0	778	0	6.0	6.0	n/a	0	None	n/a	0.0	n/a	0	-0.0405493556149	blockFiles/set_46/main_unc/rightBlue\GB_RB_2.xlsx
424	main_unc	True	0.0	778	0	6.0	6.0	0.0	1	left	1.0	1.0	1.0	0	-0.06931267643349999	blockFiles/set_46/main_unc/rightBlue\GB_RB_2.xlsx
425	main_unc	True	0.0	778	0	6.0	6.0	0.0	0	left	2.0	1.0	1.0	1	0.0510018290393	blockFiles/set_46/main_unc/rightBlue\GB_RB_2.xlsx
426	main_unc	True	0.0	778	0	6.0	6.0	0.0	1	left	1.0	1.0	1.0	0	-0.062117452472400005	blockFiles/set_46/main_unc/rightBlue\GB_RB_2.xlsx
427	main_unc	True	0.0	778	0	6.0	6.0	0.0	0	left	2.0	0.0	1.0	1	0.0108331093937	blockFiles/set_46/main_unc/rightBlue\GB_RB_2.xlsx
428	main_unc	True	0.0	778	0	6.0	6.0	0.0	1	left	1.0	0.0	1.0	0	-0.034931033793800005	blockFiles/set_46/main_unc/rightBlue\GB_RB_2.xlsx
429	main_unc	True	0.0	778	0	6.0	6.0	0.0	1	left	1.0	1.0	1.0	0	-0.0123000187799	blockFiles/set_46/main_unc/rightBlue\GB_RB_2.xlsx
430	main_unc	True	0.0	778	0	6.0	6.0	0.0	0	left	1.0	0.0	0.0	1	0.0081513922289	blockFiles/set_46/main_unc/rightBlue\GB_RB_2.xlsx
431	main_unc	True	1.0	778	0	6.0	6.0	1.0	1	right	n/a	0.0	n/a	1	0.0021655844896999996	blockFiles/set_46/main_unc/rightBlue\GB_RB_2.xlsx
432	main_unc	True	0.0	778	0	6.0	6.0	0.0	0	left	1.0	0.0	0.0	1	0.014041827339700002	blockFiles/set_46/main_unc/rightBlue\GB_RB_2.xlsx
433	main_unc	True	0.0	778	0	6.0	6.0	1.0	1	right	2.0	1.0	1.0	1	0.052951891832099994	blockFiles/set_46/main_unc/rightBlue\GB_RB_2.xlsx
434	main_unc	True	0.0	778	0	6.0	6.0	0.0	1	left	1.0	1.0	1.0	0	-0.0405493556149	blockFiles/set_46/main_unc/rightBlue\GB_RB_2.xlsx
435	main_unc	True	0.0	778	0	6.0	6.0	0.0	0	left	2.0	1.0	1.0	1	0.0021655844896999996	blockFiles/set_46/main_unc/rightBlue\GB_RB_2.xlsx
436	main_unc	True	0.0	778	0	7.0	7.0	1.0	1	right	2.0	1.0	1.0	1	0.0415302729979	blockFiles/set_46/main_unc/rightBlue\GB_RB_1.xlsx
437	main_unc	True	0.0	778	0	7.0	7.0	0.0	1	left	1.0	1.0	1.0	0	-0.0162672662362	blockFiles/set_46/main_unc/rightBlue\GB_RB_1.xlsx
438	main_unc	True	0.0	778	0	7.0	7.0	1.0	1	right	2.0	1.0	1.0	1	0.0704922825284	blockFiles/set_46/main_unc/rightBlue\GB_RB_1.xlsx
439	main_unc	True	0.0	778	0	7.0	7.0	0.0	1	left	1.0	1.0	1.0	0	-0.0385888953879	blockFiles/set_46/main_unc/rightBlue\GB_RB_1.xlsx
440	main_unc	True	0.0	778	0	7.0	7.0	1.0	1	right	2.0	0.0	1.0	1	0.0197048175707	blockFiles/set_46/main_unc/rightBlue\GB_RB_1.xlsx
441	main_unc	True	0.0	778	0	7.0	7.0	0.0	1	left	1.0	1.0	1.0	0	-0.0555267593451	blockFiles/set_46/main_unc/rightBlue\GB_RB_1.xlsx
442	main_unc	True	0.0	778	0	7.0	7.0	1.0	0	right	2.0	0.0	0.0	0	-0.025981945600400003	blockFiles/set_46/main_unc/rightBlue\GB_RB_1.xlsx
443	main_unc	True	0.0	778	0	7.0	7.0	1.0	1	right	2.0	1.0	1.0	1	0.07837995102630001	blockFiles/set_46/main_unc/rightBlue\GB_RB_1.xlsx
444	main_unc	True	0.0	778	0	7.0	7.0	1.0	1	right	2.0	1.0	1.0	1	0.0542102564499	blockFiles/set_46/main_unc/rightBlue\GB_RB_1.xlsx
445	main_unc	True	0.0	778	0	7.0	7.0	1.0	1	right	2.0	1.0	1.0	1	8.97932052612e-05	blockFiles/set_46/main_unc/rightBlue\GB_RB_1.xlsx
446	main_unc	True	0.0	778	0	7.0	7.0	0.0	0	left	1.0	0.0	0.0	1	0.058729582894599994	blockFiles/set_46/main_unc/rightBlue\GB_RB_1.xlsx
447	main_unc	True	0.0	778	0	7.0	7.0	1.0	1	right	2.0	1.0	1.0	1	0.027966245282400003	blockFiles/set_46/main_unc/rightBlue\GB_RB_1.xlsx
448	main_unc	True	0.0	778	0	7.0	7.0	0.0	1	left	1.0	1.0	1.0	0	-0.0320859063044	blockFiles/set_46/main_unc/rightBlue\GB_RB_1.xlsx
449	main_unc	True	0.0	778	0	7.0	7.0	1.0	1	right	2.0	0.0	1.0	1	0.0352107040025	blockFiles/set_46/main_unc/rightBlue\GB_RB_1.xlsx
450	main_unc	True	0.0	778	0	7.0	7.0	0.0	1	left	1.0	1.0	1.0	0	-0.0553282042593	blockFiles/set_46/main_unc/rightBlue\GB_RB_1.xlsx
451	main_unc	True	0.0	778	0	7.0	7.0	0.0	1	left	1.0	1.0	1.0	0	-0.0196020844392	blockFiles/set_46/main_unc/rightBlue\GB_RB_1.xlsx
452	main_unc	True	0.0	778	0	7.0	7.0	0.0	1	left	1.0	1.0	1.0	0	-0.06885238429530001	blockFiles/set_46/main_unc/rightBlue\GB_RB_1.xlsx
453	main_unc	True	0.0	778	0	7.0	7.0	0.0	1	left	1.0	1.0	1.0	0	-0.0356059359387	blockFiles/set_46/main_unc/rightBlue\GB_RB_1.xlsx
454	main_unc	True	0.0	778	0	7.0	7.0	0.0	0	left	2.0	1.0	1.0	1	0.0605583093315	blockFiles/set_46/main_unc/rightBlue\GB_RB_1.xlsx
455	main_unc	True	0.0	778	0	7.0	7.0	0.0	0	left	1.0	1.0	0.0	1	0.023845615759499998	blockFiles/set_46/main_unc/rightBlue\GB_RB_1.xlsx
456	main_unc	True	0.0	778	0	7.0	7.0	0.0	1	left	1.0	1.0	1.0	0	-0.0510264982097	blockFiles/set_46/main_unc/rightBlue\GB_RB_1.xlsx
457	main_unc	True	0.0	778	0	7.0	7.0	1.0	1	right	2.0	0.0	1.0	1	0.06898951692510001	blockFiles/set_46/main_unc/rightBlue\GB_RB_1.xlsx
458	main_unc	True	1.0	778	0	7.0	7.0	n/a	0	None	n/a	0.0	n/a	1	0.0325090958551	blockFiles/set_46/main_unc/rightBlue\GB_RB_1.xlsx
459	main_unc	True	0.0	778	0	7.0	7.0	0.0	0	left	2.0	1.0	1.0	1	0.0403783940896	blockFiles/set_46/main_unc/rightBlue\GB_RB_1.xlsx
460	main_unc	True	0.0	778	0	7.0	7.0	1.0	0	right	2.0	0.0	0.0	0	-0.00412607146427	blockFiles/set_46/main_unc/rightBlue\GB_RB_1.xlsx
461	main_unc	True	0.0	778	0	7.0	7.0	0.0	0	left	2.0	1.0	1.0	1	0.0325090958551	blockFiles/set_46/main_unc/rightBlue\GB_RB_1.xlsx
462	main_unc	True	0.0	778	0	8.0	8.0	0.0	1	left	1.0	0.0	0.0	0	-0.0107417515106	blockFiles/set_46/main_unc/leftBlue\GB_LB_2.xlsx
463	main_unc	True	0.0	778	0	8.0	8.0	0.0	1	left	2.0	0.0	1.0	0	-0.0317435674928	blockFiles/set_46/main_unc/leftBlue\GB_LB_2.xlsx
464	main_unc	True	0.0	778	0	8.0	8.0	1.0	1	right	1.0	1.0	1.0	1	0.05970364004369999	blockFiles/set_46/main_unc/leftBlue\GB_LB_2.xlsx
465	main_unc	True	0.0	778	0	8.0	8.0	1.0	1	right	1.0	0.0	1.0	1	0.0488295424357	blockFiles/set_46/main_unc/leftBlue\GB_LB_2.xlsx
466	main_unc	True	0.0	778	0	8.0	8.0	0.0	1	left	2.0	1.0	1.0	0	-0.0497577190213	blockFiles/set_46/main_unc/leftBlue\GB_LB_2.xlsx
467	main_unc	True	0.0	778	0	8.0	8.0	1.0	1	right	1.0	1.0	1.0	1	0.033753027916	blockFiles/set_46/main_unc/leftBlue\GB_LB_2.xlsx
468	main_unc	True	0.0	778	0	8.0	8.0	0.0	0	left	1.0	1.0	1.0	1	0.00287287367508	blockFiles/set_46/main_unc/leftBlue\GB_LB_2.xlsx
469	main_unc	True	0.0	778	0	8.0	8.0	1.0	1	right	1.0	1.0	1.0	1	0.0529164088331	blockFiles/set_46/main_unc/leftBlue\GB_LB_2.xlsx
470	main_unc	True	0.0	778	0	8.0	8.0	1.0	0	right	1.0	0.0	0.0	0	-0.0282355957106	blockFiles/set_46/main_unc/leftBlue\GB_LB_2.xlsx
471	main_unc	True	0.0	778	0	8.0	8.0	1.0	1	right	1.0	0.0	1.0	1	0.0391434530355	blockFiles/set_46/main_unc/leftBlue\GB_LB_2.xlsx
472	main_unc	True	0.0	778	0	8.0	8.0	1.0	1	right	1.0	1.0	1.0	1	0.0604765065759	blockFiles/set_46/main_unc/leftBlue\GB_LB_2.xlsx
473	main_unc	True	1.0	778	0	8.0	8.0	0.0	1	left	n/a	0.0	n/a	0	-0.040646445900199994	blockFiles/set_46/main_unc/leftBlue\GB_LB_2.xlsx
474	main_unc	True	0.0	778	0	8.0	8.0	0.0	1	left	2.0	1.0	1.0	0	-0.00654434243217	blockFiles/set_46/main_unc/leftBlue\GB_LB_2.xlsx
475	main_unc	True	0.0	778	0	8.0	8.0	0.0	1	left	2.0	1.0	1.0	0	-0.014717428647	blockFiles/set_46/main_unc/leftBlue\GB_LB_2.xlsx
476	main_unc	True	0.0	778	0	8.0	8.0	0.0	1	left	2.0	1.0	1.0	0	-0.011207853238999999	blockFiles/set_46/main_unc/leftBlue\GB_LB_2.xlsx
477	main_unc	True	0.0	778	0	8.0	8.0	0.0	1	left	2.0	1.0	1.0	0	-0.0772727029398	blockFiles/set_46/main_unc/leftBlue\GB_LB_2.xlsx
478	main_unc	True	0.0	778	0	8.0	8.0	0.0	1	left	2.0	1.0	1.0	0	-0.0550114702992	blockFiles/set_46/main_unc/leftBlue\GB_LB_2.xlsx
479	main_unc	True	0.0	778	0	8.0	8.0	1.0	0	right	1.0	0.0	0.0	0	-0.0027064600214400003	blockFiles/set_46/main_unc/leftBlue\GB_LB_2.xlsx
480	main_unc	True	0.0	778	0	8.0	8.0	1.0	1	right	1.0	1.0	1.0	1	0.0661176778935	blockFiles/set_46/main_unc/leftBlue\GB_LB_2.xlsx
481	main_unc	True	0.0	778	0	8.0	8.0	1.0	1	right	1.0	1.0	1.0	1	0.0540876226872	blockFiles/set_46/main_unc/leftBlue\GB_LB_2.xlsx
482	main_unc	True	0.0	778	0	8.0	8.0	0.0	0	left	1.0	1.0	1.0	1	0.0577144028246	blockFiles/set_46/main_unc/leftBlue\GB_LB_2.xlsx
483	main_unc	True	0.0	778	0	8.0	8.0	1.0	1	right	1.0	1.0	1.0	1	0.0406423542649	blockFiles/set_46/main_unc/leftBlue\GB_LB_2.xlsx
484	main_unc	True	0.0	778	0	8.0	8.0	1.0	0	right	2.0	1.0	1.0	0	-0.00774587398395	blockFiles/set_46/main_unc/leftBlue\GB_LB_2.xlsx
485	main_unc	True	0.0	778	0	8.0	8.0	1.0	1	right	1.0	0.0	1.0	1	0.035865251384699995	blockFiles/set_46/main_unc/leftBlue\GB_LB_2.xlsx
486	main_unc	True	0.0	778	0	8.0	8.0	0.0	0	left	2.0	1.0	0.0	1	0.00950898339972	blockFiles/set_46/main_unc/leftBlue\GB_LB_2.xlsx
487	main_unc	True	0.0	778	0	8.0	8.0	0.0	1	left	2.0	1.0	1.0	0	-0.040646445900199994	blockFiles/set_46/main_unc/leftBlue\GB_LB_2.xlsx
488	main_unc	True	0.0	778	0	9.0	9.0	0.0	1	left	1.0	0.0	0.0	0	-0.0627219165489	blockFiles/set_46/main_unc/leftBlue\GB_LB_3.xlsx
489	main_unc	True	0.0	778	0	9.0	9.0	0.0	0	left	1.0	1.0	1.0	1	0.010062042046299999	blockFiles/set_46/main_unc/leftBlue\GB_LB_3.xlsx
490	main_unc	True	0.0	778	0	9.0	9.0	0.0	1	left	1.0	0.0	0.0	0	-0.0260306604765	blockFiles/set_46/main_unc/leftBlue\GB_LB_3.xlsx
491	main_unc	True	1.0	778	0	9.0	9.0	1.0	1	right	n/a	0.0	n/a	1	0.075364178177	blockFiles/set_46/main_unc/leftBlue\GB_LB_3.xlsx
492	main_unc	True	0.0	778	0	9.0	9.0	0.0	1	left	2.0	1.0	1.0	0	-0.05465983312580001	blockFiles/set_46/main_unc/leftBlue\GB_LB_3.xlsx
493	main_unc	True	0.0	778	0	9.0	9.0	0.0	1	left	1.0	0.0	0.0	0	-0.010622436981600002	blockFiles/set_46/main_unc/leftBlue\GB_LB_3.xlsx
494	main_unc	True	0.0	778	0	9.0	9.0	0.0	0	left	2.0	0.0	0.0	1	0.00619991859421	blockFiles/set_46/main_unc/leftBlue\GB_LB_3.xlsx
495	main_unc	True	0.0	778	0	9.0	9.0	0.0	1	left	2.0	0.0	1.0	0	-0.0179563557543	blockFiles/set_46/main_unc/leftBlue\GB_LB_3.xlsx
496	main_unc	True	0.0	778	0	9.0	9.0	1.0	1	right	2.0	0.0	0.0	1	0.0479202960432	blockFiles/set_46/main_unc/leftBlue\GB_LB_3.xlsx
497	main_unc	True	0.0	778	0	9.0	9.0	0.0	1	left	2.0	1.0	1.0	0	-0.044622009824999996	blockFiles/set_46/main_unc/leftBlue\GB_LB_3.xlsx
498	main_unc	True	0.0	778	0	9.0	9.0	0.0	1	left	2.0	1.0	1.0	0	-0.065009499155	blockFiles/set_46/main_unc/leftBlue\GB_LB_3.xlsx
499	main_unc	True	0.0	778	0	9.0	9.0	1.0	1	right	1.0	1.0	1.0	1	0.0197416854091	blockFiles/set_46/main_unc/leftBlue\GB_LB_3.xlsx
500	main_unc	True	0.0	778	0	9.0	9.0	0.0	1	left	2.0	0.0	1.0	0	-0.0664308874682	blockFiles/set_46/main_unc/leftBlue\GB_LB_3.xlsx
501	main_unc	True	0.0	778	0	9.0	9.0	1.0	1	right	1.0	1.0	1.0	1	0.07071473939339999	blockFiles/set_46/main_unc/leftBlue\GB_LB_3.xlsx
502	main_unc	True	0.0	778	0	9.0	9.0	0.0	1	left	2.0	1.0	1.0	0	-0.025262527354099996	blockFiles/set_46/main_unc/leftBlue\GB_LB_3.xlsx
503	main_unc	True	0.0	778	0	9.0	9.0	0.0	0	left	1.0	1.0	1.0	1	0.0170182031207	blockFiles/set_46/main_unc/leftBlue\GB_LB_3.xlsx
504	main_unc	True	0.0	778	0	9.0	9.0	0.0	0	left	2.0	0.0	0.0	1	0.0007809154130519999	blockFiles/set_46/main_unc/leftBlue\GB_LB_3.xlsx
505	main_unc	True	0.0	778	0	9.0	9.0	1.0	1	right	1.0	1.0	1.0	1	0.0786235798895	blockFiles/set_46/main_unc/leftBlue\GB_LB_3.xlsx
506	main_unc	True	0.0	778	0	9.0	9.0	0.0	1	left	2.0	0.0	1.0	0	-0.0488940052502	blockFiles/set_46/main_unc/leftBlue\GB_LB_3.xlsx
507	main_unc	True	0.0	778	0	9.0	9.0	1.0	1	right	1.0	1.0	1.0	1	0.0564633795619	blockFiles/set_46/main_unc/leftBlue\GB_LB_3.xlsx
508	main_unc	True	0.0	778	0	9.0	9.0	0.0	1	left	2.0	1.0	1.0	0	-0.06464696215469999	blockFiles/set_46/main_unc/leftBlue\GB_LB_3.xlsx
509	main_unc	True	0.0	778	0	9.0	9.0	0.0	0	left	1.0	0.0	1.0	1	0.0372977223992	blockFiles/set_46/main_unc/leftBlue\GB_LB_3.xlsx
510	main_unc	True	0.0	778	0	9.0	9.0	0.0	0	left	2.0	0.0	0.0	1	0.00137108899653	blockFiles/set_46/main_unc/leftBlue\GB_LB_3.xlsx
511	main_unc	True	1.0	778	0	9.0	9.0	n/a	0	None	n/a	0.0	n/a	0	-0.026737310681500003	blockFiles/set_46/main_unc/leftBlue\GB_LB_3.xlsx
512	main_unc	True	0.0	778	0	9.0	9.0	0.0	1	left	2.0	1.0	1.0	0	-0.049631445687300005	blockFiles/set_46/main_unc/leftBlue\GB_LB_3.xlsx
513	main_unc	True	0.0	778	0	9.0	9.0	1.0	1	right	1.0	1.0	1.0	1	0.075364178177	blockFiles/set_46/main_unc/leftBlue\GB_LB_3.xlsx
514	main_unc	True	0.0	778	0	9.0	9.0	0.0	1	left	2.0	1.0	1.0	0	-0.026737310681500003	blockFiles/set_46/main_unc/leftBlue\GB_LB_3.xlsx
515	main_unc	True	0.0	778	0	10.0	10.0	0.0	1	left	2.0	1.0	0.0	0	-0.050241079051000004	blockFiles/set_46/main_unc/rightBlue\GB_RB_4.xlsx
516	main_unc	True	0.0	778	0	10.0	10.0	1.0	1	right	1.0	0.0	0.0	1	0.0641883947141	blockFiles/set_46/main_unc/rightBlue\GB_RB_4.xlsx
517	main_unc	True	0.0	778	0	10.0	10.0	0.0	1	left	2.0	0.0	0.0	0	-0.00334547957405	blockFiles/set_46/main_unc/rightBlue\GB_RB_4.xlsx
518	main_unc	True	0.0	778	0	10.0	10.0	1.0	1	right	2.0	0.0	1.0	1	0.07971222806719999	blockFiles/set_46/main_unc/rightBlue\GB_RB_4.xlsx
519	main_unc	True	0.0	778	0	10.0	10.0	0.0	0	left	1.0	0.0	0.0	1	0.0113089461438	blockFiles/set_46/main_unc/rightBlue\GB_RB_4.xlsx
520	main_unc	True	0.0	778	0	10.0	10.0	1.0	1	right	1.0	0.0	0.0	1	0.0349269736186	blockFiles/set_46/main_unc/rightBlue\GB_RB_4.xlsx
521	main_unc	True	0.0	778	0	10.0	10.0	0.0	1	left	1.0	1.0	1.0	0	-0.039519703537199996	blockFiles/set_46/main_unc/rightBlue\GB_RB_4.xlsx
522	main_unc	True	0.0	778	0	10.0	10.0	0.0	0	left	2.0	1.0	1.0	1	0.0450250361301	blockFiles/set_46/main_unc/rightBlue\GB_RB_4.xlsx
523	main_unc	True	0.0	778	0	10.0	10.0	0.0	1	left	1.0	1.0	1.0	0	-0.0544792263769	blockFiles/set_46/main_unc/rightBlue\GB_RB_4.xlsx
524	main_unc	True	0.0	778	0	10.0	10.0	1.0	1	right	2.0	0.0	1.0	1	0.07519890420139999	blockFiles/set_46/main_unc/rightBlue\GB_RB_4.xlsx
525	main_unc	True	0.0	778	0	10.0	10.0	0.0	1	left	1.0	1.0	1.0	0	-0.0432797626592	blockFiles/set_46/main_unc/rightBlue\GB_RB_4.xlsx
526	main_unc	True	0.0	778	0	10.0	10.0	1.0	0	right	1.0	1.0	1.0	0	-0.0121092929132	blockFiles/set_46/main_unc/rightBlue\GB_RB_4.xlsx
527	main_unc	True	0.0	778	0	10.0	10.0	1.0	1	right	2.0	1.0	1.0	1	0.020923622474099998	blockFiles/set_46/main_unc/rightBlue\GB_RB_4.xlsx
528	main_unc	True	0.0	778	0	10.0	10.0	1.0	1	right	2.0	1.0	1.0	1	0.045535540022	blockFiles/set_46/main_unc/rightBlue\GB_RB_4.xlsx
529	main_unc	True	0.0	778	0	10.0	10.0	1.0	0	right	2.0	1.0	0.0	0	-0.0009504069201649999	blockFiles/set_46/main_unc/rightBlue\GB_RB_4.xlsx
530	main_unc	True	0.0	778	0	10.0	10.0	1.0	1	right	2.0	0.0	1.0	1	0.0426967543364	blockFiles/set_46/main_unc/rightBlue\GB_RB_4.xlsx
531	main_unc	True	0.0	778	0	10.0	10.0	0.0	1	left	1.0	1.0	1.0	0	-0.0375586308166	blockFiles/set_46/main_unc/rightBlue\GB_RB_4.xlsx
532	main_unc	True	0.0	778	0	10.0	10.0	1.0	1	right	2.0	1.0	1.0	1	0.0372284742072	blockFiles/set_46/main_unc/rightBlue\GB_RB_4.xlsx
533	main_unc	True	0.0	778	0	10.0	10.0	1.0	0	right	1.0	1.0	1.0	0	-0.053598944675199996	blockFiles/set_46/main_unc/rightBlue\GB_RB_4.xlsx
534	main_unc	True	0.0	778	0	10.0	10.0	1.0	0	right	1.0	1.0	1.0	0	-0.04465309528630001	blockFiles/set_46/main_unc/rightBlue\GB_RB_4.xlsx
535	main_unc	True	0.0	778	0	10.0	10.0	1.0	1	right	2.0	0.0	1.0	1	0.0138920570537	blockFiles/set_46/main_unc/rightBlue\GB_RB_4.xlsx
536	main_unc	True	1.0	778	0	10.0	10.0	1.0	0	right	n/a	0.0	n/a	0	-0.0633428635076	blockFiles/set_46/main_unc/rightBlue\GB_RB_4.xlsx
537	main_unc	True	0.0	778	0	10.0	10.0	1.0	1	right	2.0	1.0	1.0	1	0.050369723662700004	blockFiles/set_46/main_unc/rightBlue\GB_RB_4.xlsx
538	main_unc	True	0.0	778	0	10.0	10.0	1.0	0	right	1.0	1.0	1.0	0	-0.021246396806099997	blockFiles/set_46/main_unc/rightBlue\GB_RB_4.xlsx
539	main_unc	True	0.0	778	0	10.0	10.0	1.0	1	right	2.0	1.0	1.0	1	0.024130999278299998	blockFiles/set_46/main_unc/rightBlue\GB_RB_4.xlsx
540	main_unc	True	0.0	778	0	10.0	10.0	1.0	0	right	1.0	1.0	1.0	0	-0.0633428635076	blockFiles/set_46/main_unc/rightBlue\GB_RB_4.xlsx
541	main_unc	True	0.0	778	0	11.0	11.0	1.0	0	right	2.0	1.0	1.0	0	-0.00301264323294	blockFiles/set_46/main_unc/leftBlue\GB_LB_1.xlsx
542	main_unc	True	0.0	778	0	11.0	11.0	1.0	1	right	1.0	1.0	1.0	1	0.0149455459788	blockFiles/set_46/main_unc/leftBlue\GB_LB_1.xlsx
543	main_unc	True	0.0	778	0	11.0	11.0	0.0	1	left	2.0	1.0	1.0	0	-0.0765631554089	blockFiles/set_46/main_unc/leftBlue\GB_LB_1.xlsx
544	main_unc	True	0.0	778	0	11.0	11.0	1.0	1	right	1.0	1.0	1.0	1	0.006477838642899999	blockFiles/set_46/main_unc/leftBlue\GB_LB_1.xlsx
545	main_unc	True	0.0	778	0	11.0	11.0	1.0	1	right	1.0	1.0	1.0	1	0.047405462432699996	blockFiles/set_46/main_unc/leftBlue\GB_LB_1.xlsx
546	main_unc	True	1.0	778	0	11.0	11.0	n/a	0	None	n/a	0.0	n/a	0	-0.0714715892822	blockFiles/set_46/main_unc/leftBlue\GB_LB_1.xlsx
547	main_unc	True	0.0	778	0	11.0	11.0	1.0	0	right	1.0	0.0	0.0	0	-0.015469695720799998	blockFiles/set_46/main_unc/leftBlue\GB_LB_1.xlsx
548	main_unc	True	0.0	778	0	11.0	11.0	1.0	1	right	1.0	1.0	1.0	1	0.033700662404299996	blockFiles/set_46/main_unc/leftBlue\GB_LB_1.xlsx
549	main_unc	True	0.0	778	0	11.0	11.0	1.0	0	right	2.0	1.0	1.0	0	-0.0222508415952	blockFiles/set_46/main_unc/leftBlue\GB_LB_1.xlsx
550	main_unc	True	0.0	778	0	11.0	11.0	0.0	1	left	2.0	1.0	1.0	0	-0.0656709208339	blockFiles/set_46/main_unc/leftBlue\GB_LB_1.xlsx
551	main_unc	True	0.0	778	0	11.0	11.0	1.0	1	right	1.0	1.0	1.0	1	0.040594521258	blockFiles/set_46/main_unc/leftBlue\GB_LB_1.xlsx
552	main_unc	True	0.0	778	0	11.0	11.0	1.0	1	right	2.0	0.0	0.0	1	0.00184043830261	blockFiles/set_46/main_unc/leftBlue\GB_LB_1.xlsx
553	main_unc	True	0.0	778	0	11.0	11.0	1.0	1	right	1.0	0.0	1.0	1	0.0236493860185	blockFiles/set_46/main_unc/leftBlue\GB_LB_1.xlsx
554	main_unc	True	0.0	778	0	11.0	11.0	1.0	0	right	2.0	1.0	1.0	0	-0.040569013115	blockFiles/set_46/main_unc/leftBlue\GB_LB_1.xlsx
555	main_unc	True	0.0	778	0	11.0	11.0	1.0	1	right	1.0	1.0	1.0	1	0.0389123242721	blockFiles/set_46/main_unc/leftBlue\GB_LB_1.xlsx
556	main_unc	True	0.0	778	0	11.0	11.0	1.0	1	right	1.0	1.0	1.0	1	0.0622164720111	blockFiles/set_46/main_unc/leftBlue\GB_LB_1.xlsx
557	main_unc	True	0.0	778	0	11.0	11.0	1.0	1	right	1.0	1.0	1.0	1	0.040320286825300006	blockFiles/set_46/main_unc/leftBlue\GB_LB_1.xlsx
558	main_unc	True	1.0	778	0	11.0	11.0	0.0	1	left	n/a	0.0	n/a	0	-0.0701904873177	blockFiles/set_46/main_unc/leftBlue\GB_LB_1.xlsx
559	main_unc	True	0.0	778	0	11.0	11.0	0.0	1	left	2.0	0.0	1.0	0	-0.014642166178700003	blockFiles/set_46/main_unc/leftBlue\GB_LB_1.xlsx
560	main_unc	True	0.0	778	0	11.0	11.0	1.0	0	right	2.0	0.0	1.0	0	-0.038087187148599995	blockFiles/set_46/main_unc/leftBlue\GB_LB_1.xlsx
561	main_unc	True	0.0	778	0	11.0	11.0	1.0	1	right	1.0	1.0	1.0	1	0.0534889668226	blockFiles/set_46/main_unc/leftBlue\GB_LB_1.xlsx
562	main_unc	True	0.0	778	0	11.0	11.0	0.0	1	left	2.0	1.0	1.0	0	-0.034585253596300006	blockFiles/set_46/main_unc/leftBlue\GB_LB_1.xlsx
563	main_unc	True	0.0	778	0	11.0	11.0	1.0	0	right	2.0	1.0	1.0	0	-0.0402325695381	blockFiles/set_46/main_unc/leftBlue\GB_LB_1.xlsx
564	main_unc	True	0.0	778	0	11.0	11.0	1.0	1	right	1.0	0.0	1.0	1	0.0127495560795	blockFiles/set_46/main_unc/leftBlue\GB_LB_1.xlsx
565	main_unc	True	0.0	778	0	11.0	11.0	1.0	1	right	1.0	1.0	1.0	1	0.0602771385759	blockFiles/set_46/main_unc/leftBlue\GB_LB_1.xlsx
566	main_unc	True	0.0	778	0	11.0	11.0	0.0	1	left	2.0	1.0	1.0	0	-0.0714715892822	blockFiles/set_46/main_unc/leftBlue\GB_LB_1.xlsx
567	main_unc	True	0.0	778	0	11.0	11.0	0.0	1	left	2.0	1.0	1.0	0	-0.0701904873177	blockFiles/set_46/main_unc/leftBlue\GB_LB_1.xlsx
