	trial_type	complete	missIndex	participant	id	blockNumber	b_t	d_t	decision1.corr	decision1.keys	a_t	r_t	decision2.corr	s_t	u_t	block_file
0	main_safe	True	1.0	993	0	0.0	0.0	1.0	1	right	n/a	0.0	n/a	1	0.08	blockFiles/set_24/main_safe/leftBlue\GB_LB_1.xlsx
1	main_safe	True	0.0	993	0	0.0	0.0	1.0	1	right	1.0	1.0	1.0	1	0.08	blockFiles/set_24/main_safe/leftBlue\GB_LB_1.xlsx
2	main_safe	True	0.0	993	0	0.0	0.0	0.0	1	left	2.0	1.0	1.0	0	-0.08	blockFiles/set_24/main_safe/leftBlue\GB_LB_1.xlsx
3	main_safe	True	0.0	993	0	0.0	0.0	1.0	1	right	1.0	1.0	1.0	1	0.08	blockFiles/set_24/main_safe/leftBlue\GB_LB_1.xlsx
4	main_safe	True	0.0	993	0	0.0	0.0	0.0	1	left	2.0	1.0	1.0	0	-0.08	blockFiles/set_24/main_safe/leftBlue\GB_LB_1.xlsx
5	main_safe	True	0.0	993	0	0.0	0.0	1.0	1	right	1.0	1.0	1.0	1	0.08	blockFiles/set_24/main_safe/leftBlue\GB_LB_1.xlsx
6	main_safe	True	0.0	993	0	0.0	0.0	0.0	1	left	2.0	0.0	1.0	0	-0.08	blockFiles/set_24/main_safe/leftBlue\GB_LB_1.xlsx
7	main_safe	True	0.0	993	0	0.0	0.0	1.0	1	right	1.0	1.0	1.0	1	0.08	blockFiles/set_24/main_safe/leftBlue\GB_LB_1.xlsx
8	main_safe	True	0.0	993	0	0.0	0.0	0.0	1	left	2.0	1.0	1.0	0	-0.08	blockFiles/set_24/main_safe/leftBlue\GB_LB_1.xlsx
9	main_safe	True	0.0	993	0	0.0	0.0	1.0	1	right	1.0	1.0	1.0	1	0.08	blockFiles/set_24/main_safe/leftBlue\GB_LB_1.xlsx
10	main_safe	True	0.0	993	0	0.0	0.0	0.0	1	left	2.0	1.0	1.0	0	-0.08	blockFiles/set_24/main_safe/leftBlue\GB_LB_1.xlsx
11	main_safe	True	0.0	993	0	0.0	0.0	0.0	1	left	2.0	1.0	1.0	0	-0.08	blockFiles/set_24/main_safe/leftBlue\GB_LB_1.xlsx
12	main_safe	True	0.0	993	0	0.0	0.0	0.0	1	left	2.0	1.0	1.0	0	-0.08	blockFiles/set_24/main_safe/leftBlue\GB_LB_1.xlsx
13	main_safe	True	0.0	993	0	0.0	0.0	0.0	1	left	2.0	0.0	1.0	0	-0.08	blockFiles/set_24/main_safe/leftBlue\GB_LB_1.xlsx
14	main_safe	True	0.0	993	0	0.0	0.0	1.0	1	right	1.0	0.0	1.0	1	0.08	blockFiles/set_24/main_safe/leftBlue\GB_LB_1.xlsx
15	main_safe	True	0.0	993	0	0.0	0.0	0.0	1	left	2.0	1.0	1.0	0	-0.08	blockFiles/set_24/main_safe/leftBlue\GB_LB_1.xlsx
16	main_safe	True	0.0	993	0	0.0	0.0	0.0	1	left	2.0	1.0	1.0	0	-0.08	blockFiles/set_24/main_safe/leftBlue\GB_LB_1.xlsx
17	main_safe	True	0.0	993	0	0.0	0.0	0.0	1	left	2.0	0.0	1.0	0	-0.08	blockFiles/set_24/main_safe/leftBlue\GB_LB_1.xlsx
18	main_safe	True	0.0	993	0	0.0	0.0	1.0	1	right	1.0	1.0	1.0	1	0.08	blockFiles/set_24/main_safe/leftBlue\GB_LB_1.xlsx
19	main_safe	True	0.0	993	0	0.0	0.0	1.0	1	right	1.0	1.0	1.0	1	0.08	blockFiles/set_24/main_safe/leftBlue\GB_LB_1.xlsx
20	main_safe	True	0.0	993	0	0.0	0.0	1.0	1	right	1.0	1.0	1.0	1	0.08	blockFiles/set_24/main_safe/leftBlue\GB_LB_1.xlsx
21	main_safe	True	0.0	993	0	0.0	0.0	0.0	1	left	2.0	1.0	1.0	0	-0.08	blockFiles/set_24/main_safe/leftBlue\GB_LB_1.xlsx
22	main_safe	True	1.0	993	0	0.0	0.0	1.0	1	right	n/a	0.0	n/a	1	0.08	blockFiles/set_24/main_safe/leftBlue\GB_LB_1.xlsx
23	main_safe	True	0.0	993	0	0.0	0.0	1.0	1	right	1.0	1.0	1.0	1	0.08	blockFiles/set_24/main_safe/leftBlue\GB_LB_1.xlsx
24	main_safe	True	0.0	993	0	0.0	0.0	1.0	1	right	1.0	1.0	1.0	1	0.08	blockFiles/set_24/main_safe/leftBlue\GB_LB_1.xlsx
25	main_safe	True	0.0	993	0	0.0	0.0	1.0	1	right	1.0	0.0	1.0	1	0.08	blockFiles/set_24/main_safe/leftBlue\GB_LB_1.xlsx
26	main_safe	True	0.0	993	0	0.0	0.0	1.0	1	right	1.0	1.0	1.0	1	0.08	blockFiles/set_24/main_safe/leftBlue\GB_LB_1.xlsx
27	main_safe	True	0.0	993	0	1.0	1.0	1.0	1	right	1.0	0.0	0.0	1	0.08	blockFiles/set_24/main_safe/rightBlue\GB_RB_2.xlsx
28	main_safe	True	0.0	993	0	1.0	1.0	0.0	1	left	2.0	0.0	0.0	0	-0.08	blockFiles/set_24/main_safe/rightBlue\GB_RB_2.xlsx
29	main_safe	True	0.0	993	0	1.0	1.0	1.0	1	right	2.0	1.0	1.0	1	0.08	blockFiles/set_24/main_safe/rightBlue\GB_RB_2.xlsx
30	main_safe	True	0.0	993	0	1.0	1.0	0.0	1	left	1.0	1.0	1.0	0	-0.08	blockFiles/set_24/main_safe/rightBlue\GB_RB_2.xlsx
31	main_safe	True	0.0	993	0	1.0	1.0	1.0	1	right	2.0	0.0	1.0	1	0.08	blockFiles/set_24/main_safe/rightBlue\GB_RB_2.xlsx
32	main_safe	True	0.0	993	0	1.0	1.0	0.0	1	left	1.0	1.0	1.0	0	-0.08	blockFiles/set_24/main_safe/rightBlue\GB_RB_2.xlsx
33	main_safe	True	0.0	993	0	1.0	1.0	0.0	1	left	1.0	1.0	1.0	0	-0.08	blockFiles/set_24/main_safe/rightBlue\GB_RB_2.xlsx
34	main_safe	True	0.0	993	0	1.0	1.0	1.0	1	right	1.0	1.0	0.0	1	0.08	blockFiles/set_24/main_safe/rightBlue\GB_RB_2.xlsx
35	main_safe	True	0.0	993	0	1.0	1.0	0.0	1	left	2.0	0.0	0.0	0	-0.08	blockFiles/set_24/main_safe/rightBlue\GB_RB_2.xlsx
36	main_safe	True	0.0	993	0	1.0	1.0	0.0	1	left	1.0	1.0	1.0	0	-0.08	blockFiles/set_24/main_safe/rightBlue\GB_RB_2.xlsx
37	main_safe	True	0.0	993	0	1.0	1.0	1.0	1	right	2.0	1.0	1.0	1	0.08	blockFiles/set_24/main_safe/rightBlue\GB_RB_2.xlsx
38	main_safe	True	0.0	993	0	1.0	1.0	0.0	1	left	1.0	0.0	1.0	0	-0.08	blockFiles/set_24/main_safe/rightBlue\GB_RB_2.xlsx
39	main_safe	True	0.0	993	0	1.0	1.0	0.0	1	left	1.0	1.0	1.0	0	-0.08	blockFiles/set_24/main_safe/rightBlue\GB_RB_2.xlsx
40	main_safe	True	1.0	993	0	1.0	1.0	1.0	1	right	n/a	0.0	n/a	1	0.08	blockFiles/set_24/main_safe/rightBlue\GB_RB_2.xlsx
41	main_safe	True	0.0	993	0	1.0	1.0	1.0	1	right	2.0	0.0	1.0	1	0.08	blockFiles/set_24/main_safe/rightBlue\GB_RB_2.xlsx
42	main_safe	True	0.0	993	0	1.0	1.0	1.0	1	right	2.0	1.0	1.0	1	0.08	blockFiles/set_24/main_safe/rightBlue\GB_RB_2.xlsx
43	main_safe	True	0.0	993	0	1.0	1.0	0.0	1	left	1.0	1.0	1.0	0	-0.08	blockFiles/set_24/main_safe/rightBlue\GB_RB_2.xlsx
44	main_safe	True	0.0	993	0	1.0	1.0	0.0	1	left	1.0	1.0	1.0	0	-0.08	blockFiles/set_24/main_safe/rightBlue\GB_RB_2.xlsx
45	main_safe	True	0.0	993	0	1.0	1.0	1.0	1	right	2.0	0.0	1.0	1	0.08	blockFiles/set_24/main_safe/rightBlue\GB_RB_2.xlsx
46	main_safe	True	0.0	993	0	1.0	1.0	1.0	1	right	2.0	1.0	1.0	1	0.08	blockFiles/set_24/main_safe/rightBlue\GB_RB_2.xlsx
47	main_safe	True	0.0	993	0	1.0	1.0	1.0	1	right	2.0	1.0	1.0	1	0.08	blockFiles/set_24/main_safe/rightBlue\GB_RB_2.xlsx
48	main_safe	True	0.0	993	0	1.0	1.0	0.0	1	left	1.0	1.0	1.0	0	-0.08	blockFiles/set_24/main_safe/rightBlue\GB_RB_2.xlsx
49	main_safe	True	0.0	993	0	1.0	1.0	0.0	1	left	1.0	1.0	1.0	0	-0.08	blockFiles/set_24/main_safe/rightBlue\GB_RB_2.xlsx
50	main_safe	True	0.0	993	0	1.0	1.0	1.0	1	right	2.0	1.0	1.0	1	0.08	blockFiles/set_24/main_safe/rightBlue\GB_RB_2.xlsx
51	main_safe	True	0.0	993	0	1.0	1.0	0.0	1	left	1.0	1.0	1.0	0	-0.08	blockFiles/set_24/main_safe/rightBlue\GB_RB_2.xlsx
52	main_safe	True	0.0	993	0	1.0	1.0	1.0	1	right	n/a	0.0	n/a	1	0.08	blockFiles/set_24/main_safe/rightBlue\GB_RB_2.xlsx
53	main_safe	True	0.0	993	0	1.0	1.0	1.0	1	right	2.0	0.0	1.0	1	0.08	blockFiles/set_24/main_safe/rightBlue\GB_RB_2.xlsx
54	main_safe	True	0.0	993	0	2.0	2.0	0.0	1	left	2.0	0.0	0.0	0	-0.08	blockFiles/set_24/main_safe/rightBlue\GB_RB_1.xlsx
55	main_safe	True	0.0	993	0	2.0	2.0	1.0	1	right	1.0	0.0	0.0	1	0.08	blockFiles/set_24/main_safe/rightBlue\GB_RB_1.xlsx
56	main_safe	True	0.0	993	0	2.0	2.0	1.0	1	right	2.0	0.0	1.0	1	0.08	blockFiles/set_24/main_safe/rightBlue\GB_RB_1.xlsx
57	main_safe	True	0.0	993	0	2.0	2.0	0.0	1	left	1.0	1.0	1.0	0	-0.08	blockFiles/set_24/main_safe/rightBlue\GB_RB_1.xlsx
58	main_safe	True	0.0	993	0	2.0	2.0	1.0	1	right	2.0	1.0	1.0	1	0.08	blockFiles/set_24/main_safe/rightBlue\GB_RB_1.xlsx
59	main_safe	True	0.0	993	0	2.0	2.0	1.0	1	right	2.0	1.0	1.0	1	0.08	blockFiles/set_24/main_safe/rightBlue\GB_RB_1.xlsx
60	main_safe	True	0.0	993	0	2.0	2.0	0.0	1	left	1.0	1.0	1.0	0	-0.08	blockFiles/set_24/main_safe/rightBlue\GB_RB_1.xlsx
61	main_safe	True	0.0	993	0	2.0	2.0	1.0	1	right	2.0	1.0	1.0	1	0.08	blockFiles/set_24/main_safe/rightBlue\GB_RB_1.xlsx
62	main_safe	True	0.0	993	0	2.0	2.0	0.0	1	left	2.0	0.0	0.0	0	-0.08	blockFiles/set_24/main_safe/rightBlue\GB_RB_1.xlsx
63	main_safe	True	0.0	993	0	2.0	2.0	1.0	1	right	2.0	0.0	1.0	1	0.08	blockFiles/set_24/main_safe/rightBlue\GB_RB_1.xlsx
64	main_safe	True	0.0	993	0	2.0	2.0	0.0	1	left	1.0	1.0	1.0	0	-0.08	blockFiles/set_24/main_safe/rightBlue\GB_RB_1.xlsx
65	main_safe	True	0.0	993	0	2.0	2.0	1.0	1	right	2.0	0.0	1.0	1	0.08	blockFiles/set_24/main_safe/rightBlue\GB_RB_1.xlsx
66	main_safe	True	0.0	993	0	2.0	2.0	0.0	1	left	1.0	1.0	1.0	0	-0.08	blockFiles/set_24/main_safe/rightBlue\GB_RB_1.xlsx
67	main_safe	True	0.0	993	0	2.0	2.0	0.0	1	left	1.0	1.0	1.0	0	-0.08	blockFiles/set_24/main_safe/rightBlue\GB_RB_1.xlsx
68	main_safe	True	0.0	993	0	2.0	2.0	0.0	1	left	1.0	1.0	1.0	0	-0.08	blockFiles/set_24/main_safe/rightBlue\GB_RB_1.xlsx
69	main_safe	True	0.0	993	0	2.0	2.0	1.0	1	right	2.0	1.0	1.0	1	0.08	blockFiles/set_24/main_safe/rightBlue\GB_RB_1.xlsx
70	main_safe	True	0.0	993	0	2.0	2.0	1.0	1	right	2.0	1.0	1.0	1	0.08	blockFiles/set_24/main_safe/rightBlue\GB_RB_1.xlsx
71	main_safe	True	0.0	993	0	2.0	2.0	0.0	1	left	1.0	1.0	1.0	0	-0.08	blockFiles/set_24/main_safe/rightBlue\GB_RB_1.xlsx
72	main_safe	True	0.0	993	0	2.0	2.0	1.0	1	right	1.0	0.0	0.0	1	0.08	blockFiles/set_24/main_safe/rightBlue\GB_RB_1.xlsx
73	main_safe	True	0.0	993	0	2.0	2.0	0.0	1	left	1.0	1.0	1.0	0	-0.08	blockFiles/set_24/main_safe/rightBlue\GB_RB_1.xlsx
74	main_safe	True	0.0	993	0	2.0	2.0	0.0	1	left	2.0	0.0	0.0	0	-0.08	blockFiles/set_24/main_safe/rightBlue\GB_RB_1.xlsx
75	main_safe	True	0.0	993	0	2.0	2.0	1.0	1	right	2.0	1.0	1.0	1	0.08	blockFiles/set_24/main_safe/rightBlue\GB_RB_1.xlsx
76	main_safe	True	0.0	993	0	2.0	2.0	0.0	1	left	1.0	1.0	1.0	0	-0.08	blockFiles/set_24/main_safe/rightBlue\GB_RB_1.xlsx
77	main_safe	True	0.0	993	0	2.0	2.0	1.0	1	right	2.0	1.0	1.0	1	0.08	blockFiles/set_24/main_safe/rightBlue\GB_RB_1.xlsx
78	main_safe	True	0.0	993	0	2.0	2.0	0.0	1	left	1.0	1.0	1.0	0	-0.08	blockFiles/set_24/main_safe/rightBlue\GB_RB_1.xlsx
79	main_safe	True	0.0	993	0	3.0	3.0	1.0	1	right	2.0	1.0	0.0	1	0.08	blockFiles/set_24/main_safe/leftBlue\GB_LB_3.xlsx
80	main_safe	True	0.0	993	0	3.0	3.0	0.0	1	left	1.0	0.0	0.0	0	-0.08	blockFiles/set_24/main_safe/leftBlue\GB_LB_3.xlsx
81	main_safe	True	0.0	993	0	3.0	3.0	1.0	1	right	2.0	0.0	0.0	1	0.08	blockFiles/set_24/main_safe/leftBlue\GB_LB_3.xlsx
82	main_safe	True	0.0	993	0	3.0	3.0	1.0	1	right	1.0	1.0	1.0	1	0.08	blockFiles/set_24/main_safe/leftBlue\GB_LB_3.xlsx
83	main_safe	True	0.0	993	0	3.0	3.0	1.0	1	right	1.0	0.0	1.0	1	0.08	blockFiles/set_24/main_safe/leftBlue\GB_LB_3.xlsx
84	main_safe	True	0.0	993	0	3.0	3.0	0.0	1	left	2.0	1.0	1.0	0	-0.08	blockFiles/set_24/main_safe/leftBlue\GB_LB_3.xlsx
85	main_safe	True	0.0	993	0	3.0	3.0	1.0	1	right	1.0	1.0	1.0	1	0.08	blockFiles/set_24/main_safe/leftBlue\GB_LB_3.xlsx
86	main_safe	True	0.0	993	0	3.0	3.0	1.0	1	right	1.0	1.0	1.0	1	0.08	blockFiles/set_24/main_safe/leftBlue\GB_LB_3.xlsx
87	main_safe	True	0.0	993	0	3.0	3.0	0.0	1	left	2.0	1.0	1.0	0	-0.08	blockFiles/set_24/main_safe/leftBlue\GB_LB_3.xlsx
88	main_safe	True	0.0	993	0	3.0	3.0	1.0	1	right	1.0	1.0	1.0	1	0.08	blockFiles/set_24/main_safe/leftBlue\GB_LB_3.xlsx
89	main_safe	True	0.0	993	0	3.0	3.0	1.0	1	right	1.0	1.0	1.0	1	0.08	blockFiles/set_24/main_safe/leftBlue\GB_LB_3.xlsx
90	main_safe	True	0.0	993	0	3.0	3.0	0.0	1	left	1.0	1.0	0.0	0	-0.08	blockFiles/set_24/main_safe/leftBlue\GB_LB_3.xlsx
91	main_safe	True	0.0	993	0	3.0	3.0	1.0	1	right	1.0	1.0	1.0	1	0.08	blockFiles/set_24/main_safe/leftBlue\GB_LB_3.xlsx
92	main_safe	True	0.0	993	0	3.0	3.0	0.0	1	left	2.0	1.0	1.0	0	-0.08	blockFiles/set_24/main_safe/leftBlue\GB_LB_3.xlsx
93	main_safe	True	0.0	993	0	3.0	3.0	0.0	1	left	2.0	0.0	1.0	0	-0.08	blockFiles/set_24/main_safe/leftBlue\GB_LB_3.xlsx
94	main_safe	True	0.0	993	0	3.0	3.0	0.0	1	left	2.0	0.0	1.0	0	-0.08	blockFiles/set_24/main_safe/leftBlue\GB_LB_3.xlsx
95	main_safe	True	0.0	993	0	3.0	3.0	1.0	1	right	1.0	1.0	1.0	1	0.08	blockFiles/set_24/main_safe/leftBlue\GB_LB_3.xlsx
96	main_safe	True	0.0	993	0	3.0	3.0	0.0	1	left	2.0	1.0	1.0	0	-0.08	blockFiles/set_24/main_safe/leftBlue\GB_LB_3.xlsx
97	main_safe	True	0.0	993	0	3.0	3.0	1.0	1	right	1.0	1.0	1.0	1	0.08	blockFiles/set_24/main_safe/leftBlue\GB_LB_3.xlsx
98	main_safe	True	0.0	993	0	3.0	3.0	1.0	1	right	1.0	0.0	1.0	1	0.08	blockFiles/set_24/main_safe/leftBlue\GB_LB_3.xlsx
99	main_safe	True	0.0	993	0	3.0	3.0	1.0	1	right	1.0	1.0	1.0	1	0.08	blockFiles/set_24/main_safe/leftBlue\GB_LB_3.xlsx
100	main_safe	True	1.0	993	0	3.0	3.0	0.0	1	left	n/a	0.0	n/a	0	-0.08	blockFiles/set_24/main_safe/leftBlue\GB_LB_3.xlsx
101	main_safe	True	0.0	993	0	3.0	3.0	0.0	1	left	2.0	1.0	1.0	0	-0.08	blockFiles/set_24/main_safe/leftBlue\GB_LB_3.xlsx
102	main_safe	True	0.0	993	0	3.0	3.0	1.0	1	right	1.0	1.0	1.0	1	0.08	blockFiles/set_24/main_safe/leftBlue\GB_LB_3.xlsx
103	main_safe	True	0.0	993	0	3.0	3.0	0.0	1	left	2.0	1.0	1.0	0	-0.08	blockFiles/set_24/main_safe/leftBlue\GB_LB_3.xlsx
104	main_safe	True	0.0	993	0	3.0	3.0	0.0	1	left	2.0	1.0	1.0	0	-0.08	blockFiles/set_24/main_safe/leftBlue\GB_LB_3.xlsx
105	main_safe	True	0.0	993	0	4.0	4.0	0.0	1	left	2.0	1.0	1.0	0	-0.08	blockFiles/set_24/main_safe/leftBlue\GB_LB_2.xlsx
106	main_safe	True	0.0	993	0	4.0	4.0	0.0	1	left	2.0	1.0	1.0	0	-0.08	blockFiles/set_24/main_safe/leftBlue\GB_LB_2.xlsx
107	main_safe	True	0.0	993	0	4.0	4.0	1.0	1	right	1.0	1.0	1.0	1	0.08	blockFiles/set_24/main_safe/leftBlue\GB_LB_2.xlsx
108	main_safe	True	0.0	993	0	4.0	4.0	0.0	1	left	2.0	1.0	1.0	0	-0.08	blockFiles/set_24/main_safe/leftBlue\GB_LB_2.xlsx
109	main_safe	True	0.0	993	0	4.0	4.0	0.0	1	left	2.0	1.0	1.0	0	-0.08	blockFiles/set_24/main_safe/leftBlue\GB_LB_2.xlsx
110	main_safe	True	0.0	993	0	4.0	4.0	0.0	1	left	2.0	1.0	1.0	0	-0.08	blockFiles/set_24/main_safe/leftBlue\GB_LB_2.xlsx
111	main_safe	True	0.0	993	0	4.0	4.0	0.0	1	left	2.0	0.0	1.0	0	-0.08	blockFiles/set_24/main_safe/leftBlue\GB_LB_2.xlsx
112	main_safe	True	0.0	993	0	4.0	4.0	1.0	1	right	1.0	1.0	1.0	1	0.08	blockFiles/set_24/main_safe/leftBlue\GB_LB_2.xlsx
113	main_safe	True	0.0	993	0	4.0	4.0	0.0	1	left	2.0	0.0	1.0	0	-0.08	blockFiles/set_24/main_safe/leftBlue\GB_LB_2.xlsx
114	main_safe	True	0.0	993	0	4.0	4.0	0.0	1	left	2.0	0.0	1.0	0	-0.08	blockFiles/set_24/main_safe/leftBlue\GB_LB_2.xlsx
115	main_safe	True	0.0	993	0	4.0	4.0	0.0	1	left	2.0	1.0	1.0	0	-0.08	blockFiles/set_24/main_safe/leftBlue\GB_LB_2.xlsx
116	main_safe	True	1.0	993	0	4.0	4.0	1.0	1	right	n/a	0.0	n/a	1	0.08	blockFiles/set_24/main_safe/leftBlue\GB_LB_2.xlsx
117	main_safe	True	0.0	993	0	4.0	4.0	1.0	1	right	1.0	1.0	1.0	1	0.08	blockFiles/set_24/main_safe/leftBlue\GB_LB_2.xlsx
118	main_safe	True	0.0	993	0	4.0	4.0	0.0	1	left	2.0	0.0	1.0	0	-0.08	blockFiles/set_24/main_safe/leftBlue\GB_LB_2.xlsx
119	main_safe	True	0.0	993	0	4.0	4.0	1.0	1	right	1.0	1.0	1.0	1	0.08	blockFiles/set_24/main_safe/leftBlue\GB_LB_2.xlsx
120	main_safe	True	0.0	993	0	4.0	4.0	0.0	1	left	2.0	1.0	1.0	0	-0.08	blockFiles/set_24/main_safe/leftBlue\GB_LB_2.xlsx
121	main_safe	True	0.0	993	0	4.0	4.0	1.0	1	right	1.0	1.0	1.0	1	0.08	blockFiles/set_24/main_safe/leftBlue\GB_LB_2.xlsx
122	main_safe	True	0.0	993	0	4.0	4.0	1.0	1	right	1.0	0.0	1.0	1	0.08	blockFiles/set_24/main_safe/leftBlue\GB_LB_2.xlsx
123	main_safe	True	0.0	993	0	4.0	4.0	1.0	1	right	1.0	1.0	1.0	1	0.08	blockFiles/set_24/main_safe/leftBlue\GB_LB_2.xlsx
124	main_safe	True	0.0	993	0	4.0	4.0	1.0	1	right	1.0	1.0	1.0	1	0.08	blockFiles/set_24/main_safe/leftBlue\GB_LB_2.xlsx
125	main_safe	True	0.0	993	0	4.0	4.0	1.0	1	right	1.0	1.0	1.0	1	0.08	blockFiles/set_24/main_safe/leftBlue\GB_LB_2.xlsx
126	main_safe	True	0.0	993	0	4.0	4.0	1.0	1	right	1.0	1.0	1.0	1	0.08	blockFiles/set_24/main_safe/leftBlue\GB_LB_2.xlsx
127	main_safe	True	0.0	993	0	4.0	4.0	0.0	1	left	1.0	0.0	0.0	0	-0.08	blockFiles/set_24/main_safe/leftBlue\GB_LB_2.xlsx
128	main_safe	True	0.0	993	0	4.0	4.0	0.0	1	left	2.0	1.0	1.0	0	-0.08	blockFiles/set_24/main_safe/leftBlue\GB_LB_2.xlsx
129	main_safe	True	0.0	993	0	4.0	4.0	1.0	1	right	1.0	1.0	1.0	1	0.08	blockFiles/set_24/main_safe/leftBlue\GB_LB_2.xlsx
130	main_safe	True	0.0	993	0	4.0	4.0	1.0	1	right	n/a	0.0	n/a	1	0.08	blockFiles/set_24/main_safe/leftBlue\GB_LB_2.xlsx
131	main_safe	True	0.0	993	0	4.0	4.0	1.0	1	right	1.0	1.0	1.0	1	0.08	blockFiles/set_24/main_safe/leftBlue\GB_LB_2.xlsx
132	main_safe	True	0.0	993	0	5.0	5.0	0.0	1	left	2.0	0.0	0.0	0	-0.08	blockFiles/set_24/main_safe/rightBlue\GB_RB_3.xlsx
133	main_safe	True	0.0	993	0	5.0	5.0	1.0	1	right	1.0	0.0	0.0	1	0.08	blockFiles/set_24/main_safe/rightBlue\GB_RB_3.xlsx
134	main_safe	True	0.0	993	0	5.0	5.0	0.0	1	left	1.0	1.0	1.0	0	-0.08	blockFiles/set_24/main_safe/rightBlue\GB_RB_3.xlsx
135	main_safe	True	0.0	993	0	5.0	5.0	0.0	1	left	1.0	1.0	1.0	0	-0.08	blockFiles/set_24/main_safe/rightBlue\GB_RB_3.xlsx
136	main_safe	True	0.0	993	0	5.0	5.0	1.0	1	right	2.0	1.0	1.0	1	0.08	blockFiles/set_24/main_safe/rightBlue\GB_RB_3.xlsx
137	main_safe	True	1.0	993	0	5.0	5.0	0.0	1	left	n/a	0.0	n/a	0	-0.08	blockFiles/set_24/main_safe/rightBlue\GB_RB_3.xlsx
138	main_safe	True	0.0	993	0	5.0	5.0	0.0	1	left	2.0	0.0	0.0	0	-0.08	blockFiles/set_24/main_safe/rightBlue\GB_RB_3.xlsx
139	main_safe	True	0.0	993	0	5.0	5.0	1.0	1	right	2.0	0.0	1.0	1	0.08	blockFiles/set_24/main_safe/rightBlue\GB_RB_3.xlsx
140	main_safe	True	0.0	993	0	5.0	5.0	1.0	1	right	2.0	0.0	1.0	1	0.08	blockFiles/set_24/main_safe/rightBlue\GB_RB_3.xlsx
141	main_safe	True	0.0	993	0	5.0	5.0	1.0	1	right	1.0	0.0	0.0	1	0.08	blockFiles/set_24/main_safe/rightBlue\GB_RB_3.xlsx
142	main_safe	True	0.0	993	0	5.0	5.0	0.0	1	left	1.0	1.0	1.0	0	-0.08	blockFiles/set_24/main_safe/rightBlue\GB_RB_3.xlsx
143	main_safe	True	0.0	993	0	5.0	5.0	1.0	1	right	2.0	1.0	1.0	1	0.08	blockFiles/set_24/main_safe/rightBlue\GB_RB_3.xlsx
144	main_safe	True	0.0	993	0	5.0	5.0	1.0	1	right	2.0	1.0	1.0	1	0.08	blockFiles/set_24/main_safe/rightBlue\GB_RB_3.xlsx
145	main_safe	True	0.0	993	0	5.0	5.0	1.0	1	right	2.0	1.0	1.0	1	0.08	blockFiles/set_24/main_safe/rightBlue\GB_RB_3.xlsx
146	main_safe	True	0.0	993	0	5.0	5.0	0.0	1	left	1.0	1.0	1.0	0	-0.08	blockFiles/set_24/main_safe/rightBlue\GB_RB_3.xlsx
147	main_safe	True	0.0	993	0	5.0	5.0	1.0	1	right	1.0	1.0	0.0	1	0.08	blockFiles/set_24/main_safe/rightBlue\GB_RB_3.xlsx
148	main_safe	True	0.0	993	0	5.0	5.0	0.0	1	left	1.0	1.0	1.0	0	-0.08	blockFiles/set_24/main_safe/rightBlue\GB_RB_3.xlsx
149	main_safe	True	0.0	993	0	5.0	5.0	1.0	1	right	2.0	0.0	1.0	1	0.08	blockFiles/set_24/main_safe/rightBlue\GB_RB_3.xlsx
150	main_safe	True	1.0	993	0	5.0	5.0	0.0	1	left	n/a	0.0	n/a	0	-0.08	blockFiles/set_24/main_safe/rightBlue\GB_RB_3.xlsx
151	main_safe	True	0.0	993	0	5.0	5.0	0.0	1	left	1.0	0.0	1.0	0	-0.08	blockFiles/set_24/main_safe/rightBlue\GB_RB_3.xlsx
152	main_safe	True	0.0	993	0	5.0	5.0	0.0	1	left	1.0	1.0	1.0	0	-0.08	blockFiles/set_24/main_safe/rightBlue\GB_RB_3.xlsx
153	main_safe	True	0.0	993	0	5.0	5.0	0.0	1	left	1.0	1.0	1.0	0	-0.08	blockFiles/set_24/main_safe/rightBlue\GB_RB_3.xlsx
154	main_safe	True	0.0	993	0	5.0	5.0	1.0	1	right	2.0	1.0	1.0	1	0.08	blockFiles/set_24/main_safe/rightBlue\GB_RB_3.xlsx
155	main_safe	True	0.0	993	0	5.0	5.0	1.0	1	right	2.0	1.0	1.0	1	0.08	blockFiles/set_24/main_safe/rightBlue\GB_RB_3.xlsx
156	main_safe	True	0.0	993	0	5.0	5.0	0.0	1	left	1.0	1.0	1.0	0	-0.08	blockFiles/set_24/main_safe/rightBlue\GB_RB_3.xlsx
157	main_safe	True	0.0	993	0	5.0	5.0	0.0	1	left	1.0	1.0	1.0	0	-0.08	blockFiles/set_24/main_safe/rightBlue\GB_RB_3.xlsx
158	main_safe	True	0.0	993	0	5.0	5.0	0.0	1	left	1.0	1.0	1.0	0	-0.08	blockFiles/set_24/main_safe/rightBlue\GB_RB_3.xlsx
159	patches	True	n/a	993	0	n/a	n/a	0.0	0	left	n/a	n/a	n/a	1	0.0529426555336	blockFiles/set_24/main_PD/GB_runPatches1.xlsx
160	patches	True	n/a	993	0	n/a	n/a	0.0	1	left	n/a	n/a	n/a	0	-0.0565122240596	blockFiles/set_24/main_PD/GB_runPatches1.xlsx
161	patches	True	n/a	993	0	n/a	n/a	0.0	1	left	n/a	n/a	n/a	0	-0.0293456626497	blockFiles/set_24/main_PD/GB_runPatches1.xlsx
162	patches	True	n/a	993	0	n/a	n/a	0.0	1	left	n/a	n/a	n/a	0	-0.0723965170793	blockFiles/set_24/main_PD/GB_runPatches1.xlsx
163	patches	True	n/a	993	0	n/a	n/a	0.0	1	left	n/a	n/a	n/a	0	-0.0667016546801	blockFiles/set_24/main_PD/GB_runPatches1.xlsx
164	patches	True	n/a	993	0	n/a	n/a	0.0	1	left	n/a	n/a	n/a	0	-0.025323098394999997	blockFiles/set_24/main_PD/GB_runPatches1.xlsx
165	patches	True	n/a	993	0	n/a	n/a	1.0	1	right	n/a	n/a	n/a	1	0.0034318671003	blockFiles/set_24/main_PD/GB_runPatches1.xlsx
166	patches	True	n/a	993	0	n/a	n/a	0.0	0	left	n/a	n/a	n/a	1	0.0121736392193	blockFiles/set_24/main_PD/GB_runPatches1.xlsx
167	patches	True	n/a	993	0	n/a	n/a	0.0	1	left	n/a	n/a	n/a	0	-0.053880048934399995	blockFiles/set_24/main_PD/GB_runPatches1.xlsx
168	patches	True	n/a	993	0	n/a	n/a	0.0	0	left	n/a	n/a	n/a	1	0.0279609536193	blockFiles/set_24/main_PD/GB_runPatches1.xlsx
169	patches	True	n/a	993	0	n/a	n/a	0.0	0	left	n/a	n/a	n/a	1	0.0013365058414600002	blockFiles/set_24/main_PD/GB_runPatches1.xlsx
170	patches	True	n/a	993	0	n/a	n/a	1.0	1	right	n/a	n/a	n/a	1	0.07971314625810001	blockFiles/set_24/main_PD/GB_runPatches1.xlsx
171	patches	True	n/a	993	0	n/a	n/a	1.0	1	right	n/a	n/a	n/a	1	0.07732455497610001	blockFiles/set_24/main_PD/GB_runPatches1.xlsx
172	patches	True	n/a	993	0	n/a	n/a	1.0	0	right	n/a	n/a	n/a	0	-0.034409310817699996	blockFiles/set_24/main_PD/GB_runPatches1.xlsx
173	patches	True	n/a	993	0	n/a	n/a	0.0	1	left	n/a	n/a	n/a	0	-0.05887157034130001	blockFiles/set_24/main_PD/GB_runPatches1.xlsx
174	patches	True	n/a	993	0	n/a	n/a	0.0	0	left	n/a	n/a	n/a	1	0.00805463448167	blockFiles/set_24/main_PD/GB_runPatches1.xlsx
175	patches	True	n/a	993	0	n/a	n/a	1.0	1	right	n/a	n/a	n/a	1	0.0787884270027	blockFiles/set_24/main_PD/GB_runPatches1.xlsx
176	patches	True	n/a	993	0	n/a	n/a	0.0	0	left	n/a	n/a	n/a	1	0.00515023779124	blockFiles/set_24/main_PD/GB_runPatches1.xlsx
177	patches	True	n/a	993	0	n/a	n/a	1.0	1	right	n/a	n/a	n/a	1	0.0551661626436	blockFiles/set_24/main_PD/GB_runPatches1.xlsx
178	patches	True	n/a	993	0	n/a	n/a	1.0	1	right	n/a	n/a	n/a	1	0.07791748350489999	blockFiles/set_24/main_PD/GB_runPatches1.xlsx
179	patches	True	n/a	993	0	n/a	n/a	0.0	1	left	n/a	n/a	n/a	0	-0.039006885048000005	blockFiles/set_24/main_PD/GB_runPatches1.xlsx
180	patches	True	n/a	993	0	n/a	n/a	0.0	1	left	n/a	n/a	n/a	0	-0.0179245647974	blockFiles/set_24/main_PD/GB_runPatches1.xlsx
181	patches	True	n/a	993	0	n/a	n/a	1.0	1	right	n/a	n/a	n/a	1	0.016113677378700002	blockFiles/set_24/main_PD/GB_runPatches1.xlsx
182	patches	True	n/a	993	0	n/a	n/a	1.0	1	right	n/a	n/a	n/a	1	0.0745264867879	blockFiles/set_24/main_PD/GB_runPatches1.xlsx
183	patches	True	n/a	993	0	n/a	n/a	1.0	1	right	n/a	n/a	n/a	1	0.07066874628889999	blockFiles/set_24/main_PD/GB_runPatches1.xlsx
184	patches	True	n/a	993	0	n/a	n/a	1.0	1	right	n/a	n/a	n/a	1	0.009143277127299999	blockFiles/set_24/main_PD/GB_runPatches1.xlsx
185	patches	True	n/a	993	0	n/a	n/a	1.0	1	right	n/a	n/a	n/a	1	0.0414716194011	blockFiles/set_24/main_PD/GB_runPatches1.xlsx
186	patches	True	n/a	993	0	n/a	n/a	1.0	0	right	n/a	n/a	n/a	0	-0.0543465345912	blockFiles/set_24/main_PD/GB_runPatches1.xlsx
187	patches	True	n/a	993	0	n/a	n/a	1.0	0	right	n/a	n/a	n/a	0	-0.0267034406587	blockFiles/set_24/main_PD/GB_runPatches1.xlsx
188	patches	True	n/a	993	0	n/a	n/a	1.0	1	right	n/a	n/a	n/a	1	0.00367701880634	blockFiles/set_24/main_PD/GB_runPatches1.xlsx
189	patches	True	n/a	993	0	n/a	n/a	0.0	1	left	n/a	n/a	n/a	0	-0.07049546469	blockFiles/set_24/main_PD/GB_runPatches1.xlsx
190	patches	True	n/a	993	0	n/a	n/a	0.0	0	left	n/a	n/a	n/a	1	0.0450090150349	blockFiles/set_24/main_PD/GB_runPatches1.xlsx
191	patches	True	n/a	993	0	n/a	n/a	0.0	0	left	n/a	n/a	n/a	1	0.00617696715519	blockFiles/set_24/main_PD/GB_runPatches1.xlsx
192	patches	True	n/a	993	0	n/a	n/a	1.0	1	right	n/a	n/a	n/a	1	0.0182201475091	blockFiles/set_24/main_PD/GB_runPatches1.xlsx
193	patches	True	n/a	993	0	n/a	n/a	1.0	1	right	n/a	n/a	n/a	1	0.0592941192538	blockFiles/set_24/main_PD/GB_runPatches1.xlsx
194	patches	True	n/a	993	0	n/a	n/a	1.0	1	right	n/a	n/a	n/a	1	0.062936474625	blockFiles/set_24/main_PD/GB_runPatches1.xlsx
195	patches	True	n/a	993	0	n/a	n/a	0.0	1	left	n/a	n/a	n/a	0	-0.022758638486299998	blockFiles/set_24/main_PD/GB_runPatches1.xlsx
196	patches	True	n/a	993	0	n/a	n/a	0.0	1	left	n/a	n/a	n/a	0	-0.078344865609	blockFiles/set_24/main_PD/GB_runPatches1.xlsx
197	patches	True	n/a	993	0	n/a	n/a	1.0	1	right	n/a	n/a	n/a	1	0.021829578504	blockFiles/set_24/main_PD/GB_runPatches1.xlsx
198	patches	True	n/a	993	0	n/a	n/a	0.0	1	left	n/a	n/a	n/a	0	-0.06965398835020001	blockFiles/set_24/main_PD/GB_runPatches1.xlsx
199	patches	True	n/a	993	0	n/a	n/a	1.0	1	right	n/a	n/a	n/a	1	0.0181187834591	blockFiles/set_24/main_PD/GB_runPatches1.xlsx
200	patches	True	n/a	993	0	n/a	n/a	1.0	1	right	n/a	n/a	n/a	1	0.047170982509900004	blockFiles/set_24/main_PD/GB_runPatches1.xlsx
201	patches	True	n/a	993	0	n/a	n/a	0.0	0	left	n/a	n/a	n/a	1	0.018011567723	blockFiles/set_24/main_PD/GB_runPatches1.xlsx
202	patches	True	n/a	993	0	n/a	n/a	1.0	1	right	n/a	n/a	n/a	1	0.000774895176291	blockFiles/set_24/main_PD/GB_runPatches1.xlsx
203	patches	True	n/a	993	0	n/a	n/a	0.0	1	left	n/a	n/a	n/a	0	-0.0721236274391	blockFiles/set_24/main_PD/GB_runPatches1.xlsx
204	patches	True	n/a	993	0	n/a	n/a	0.0	1	left	n/a	n/a	n/a	0	-0.07094896182419999	blockFiles/set_24/main_PD/GB_runPatches1.xlsx
205	patches	True	n/a	993	0	n/a	n/a	1.0	1	right	n/a	n/a	n/a	1	0.0246932204813	blockFiles/set_24/main_PD/GB_runPatches1.xlsx
206	patches	True	n/a	993	0	n/a	n/a	0.0	1	left	n/a	n/a	n/a	0	-0.0107254513353	blockFiles/set_24/main_PD/GB_runPatches1.xlsx
207	patches	True	n/a	993	0	n/a	n/a	0.0	1	left	n/a	n/a	n/a	0	-0.00367032246664	blockFiles/set_24/main_PD/GB_runPatches1.xlsx
208	patches	True	n/a	993	0	n/a	n/a	1.0	1	right	n/a	n/a	n/a	1	0.0619961321354	blockFiles/set_24/main_PD/GB_runPatches1.xlsx
209	patches	True	n/a	993	0	n/a	n/a	0.0	1	left	n/a	n/a	n/a	0	-0.0319736195356	blockFiles/set_24/main_PD/GB_runPatches1.xlsx
210	patches	True	n/a	993	0	n/a	n/a	0.0	1	left	n/a	n/a	n/a	0	-0.0564734471962	blockFiles/set_24/main_PD/GB_runPatches1.xlsx
211	patches	True	n/a	993	0	n/a	n/a	1.0	1	right	n/a	n/a	n/a	1	0.0571437765099	blockFiles/set_24/main_PD/GB_runPatches1.xlsx
212	patches	True	n/a	993	0	n/a	n/a	0.0	1	left	n/a	n/a	n/a	0	-0.0506231983751	blockFiles/set_24/main_PD/GB_runPatches1.xlsx
213	patches	True	n/a	993	0	n/a	n/a	0.0	1	left	n/a	n/a	n/a	0	-0.0729980294779	blockFiles/set_24/main_PD/GB_runPatches1.xlsx
214	patches	True	n/a	993	0	n/a	n/a	0.0	1	left	n/a	n/a	n/a	0	-0.0231241712905	blockFiles/set_24/main_PD/GB_runPatches1.xlsx
215	patches	True	n/a	993	0	n/a	n/a	0.0	1	left	n/a	n/a	n/a	0	-0.011276662964399999	blockFiles/set_24/main_PD/GB_runPatches1.xlsx
216	patches	True	n/a	993	0	n/a	n/a	0.0	1	left	n/a	n/a	n/a	0	-0.06077315738419999	blockFiles/set_24/main_PD/GB_runPatches1.xlsx
217	patches	True	n/a	993	0	n/a	n/a	0.0	0	left	n/a	n/a	n/a	1	0.0635346128419	blockFiles/set_24/main_PD/GB_runPatches1.xlsx
218	patches	True	n/a	993	0	n/a	n/a	1.0	0	right	n/a	n/a	n/a	0	-0.026520738136	blockFiles/set_24/main_PD/GB_runPatches1.xlsx
219	patches	True	n/a	993	0	n/a	n/a	1.0	1	right	n/a	n/a	n/a	1	0.043183606714000004	blockFiles/set_24/main_PD/GB_runPatches1.xlsx
220	patches	True	n/a	993	0	n/a	n/a	0.0	1	left	n/a	n/a	n/a	0	-0.028554295375900002	blockFiles/set_24/main_PD/GB_runPatches1.xlsx
221	patches	True	n/a	993	0	n/a	n/a	1.0	1	right	n/a	n/a	n/a	1	0.0295118800551	blockFiles/set_24/main_PD/GB_runPatches1.xlsx
222	patches	True	n/a	993	0	n/a	n/a	1.0	1	right	n/a	n/a	n/a	1	0.0762173096091	blockFiles/set_24/main_PD/GB_runPatches1.xlsx
223	patches	True	n/a	993	0	n/a	n/a	0.0	1	left	n/a	n/a	n/a	0	-0.0322296548635	blockFiles/set_24/main_PD/GB_runPatches1.xlsx
224	patches	True	n/a	993	0	n/a	n/a	0.0	1	left	n/a	n/a	n/a	0	-0.026565655525799998	blockFiles/set_24/main_PD/GB_runPatches1.xlsx
225	patches	True	n/a	993	0	n/a	n/a	0.0	0	left	n/a	n/a	n/a	1	0.0183783390746	blockFiles/set_24/main_PD/GB_runPatches1.xlsx
226	patches	True	n/a	993	0	n/a	n/a	1.0	1	right	n/a	n/a	n/a	1	0.0782251077704	blockFiles/set_24/main_PD/GB_runPatches1.xlsx
227	patches	True	n/a	993	0	n/a	n/a	0.0	1	left	n/a	n/a	n/a	0	-0.0374215262383	blockFiles/set_24/main_PD/GB_runPatches1.xlsx
228	patches	True	n/a	993	0	n/a	n/a	0.0	1	left	n/a	n/a	n/a	0	-0.0729200820997	blockFiles/set_24/main_PD/GB_runPatches1.xlsx
229	patches	True	n/a	993	0	n/a	n/a	0.0	0	left	n/a	n/a	n/a	1	0.0032590662687999998	blockFiles/set_24/main_PD/GB_runPatches1.xlsx
230	patches	True	n/a	993	0	n/a	n/a	0.0	0	left	n/a	n/a	n/a	1	0.023230764046299996	blockFiles/set_24/main_PD/GB_runPatches1.xlsx
231	patches	True	n/a	993	0	n/a	n/a	0.0	0	left	n/a	n/a	n/a	1	0.0116610050946	blockFiles/set_24/main_PD/GB_runPatches1.xlsx
232	patches	True	n/a	993	0	n/a	n/a	0.0	1	left	n/a	n/a	n/a	0	-0.06997653439639999	blockFiles/set_24/main_PD/GB_runPatches1.xlsx
233	patches	True	n/a	993	0	n/a	n/a	n/a	0	None	n/a	n/a	n/a	0	-0.0517273458093	blockFiles/set_24/main_PD/GB_runPatches1.xlsx
234	patches	True	n/a	993	0	n/a	n/a	1.0	1	right	n/a	n/a	n/a	1	0.063711243663	blockFiles/set_24/main_PD/GB_runPatches1.xlsx
235	patches	True	n/a	993	0	n/a	n/a	0.0	1	left	n/a	n/a	n/a	0	-0.0135426712036	blockFiles/set_24/main_PD/GB_runPatches1.xlsx
236	patches	True	n/a	993	0	n/a	n/a	1.0	1	right	n/a	n/a	n/a	1	0.0718542945571	blockFiles/set_24/main_PD/GB_runPatches1.xlsx
237	patches	True	n/a	993	0	n/a	n/a	0.0	0	left	n/a	n/a	n/a	1	0.0374930080026	blockFiles/set_24/main_PD/GB_runPatches1.xlsx
238	patches	True	n/a	993	0	n/a	n/a	1.0	1	right	n/a	n/a	n/a	1	0.00887989729643	blockFiles/set_24/main_PD/GB_runPatches1.xlsx
239	patches	True	n/a	993	0	n/a	n/a	0.0	1	left	n/a	n/a	n/a	0	-0.023076740019	blockFiles/set_24/main_PD/GB_runPatches1.xlsx
240	patches	True	n/a	993	0	n/a	n/a	1.0	1	right	n/a	n/a	n/a	1	0.049293636661	blockFiles/set_24/main_PD/GB_runPatches1.xlsx
241	patches	True	n/a	993	0	n/a	n/a	1.0	1	right	n/a	n/a	n/a	1	0.048557466417600004	blockFiles/set_24/main_PD/GB_runPatches1.xlsx
242	patches	True	n/a	993	0	n/a	n/a	1.0	1	right	n/a	n/a	n/a	1	0.048346645291900005	blockFiles/set_24/main_PD/GB_runPatches1.xlsx
243	patches	True	n/a	993	0	n/a	n/a	1.0	1	right	n/a	n/a	n/a	1	0.055945878215100005	blockFiles/set_24/main_PD/GB_runPatches1.xlsx
244	patches	True	n/a	993	0	n/a	n/a	1.0	1	right	n/a	n/a	n/a	1	0.0392140108161	blockFiles/set_24/main_PD/GB_runPatches1.xlsx
245	patches	True	n/a	993	0	n/a	n/a	0.0	1	left	n/a	n/a	n/a	0	-0.045001579634800004	blockFiles/set_24/main_PD/GB_runPatches1.xlsx
246	patches	True	n/a	993	0	n/a	n/a	0.0	1	left	n/a	n/a	n/a	0	-0.051603378877	blockFiles/set_24/main_PD/GB_runPatches1.xlsx
247	patches	True	n/a	993	0	n/a	n/a	0.0	1	left	n/a	n/a	n/a	0	-0.030103886798	blockFiles/set_24/main_PD/GB_runPatches1.xlsx
248	patches	True	n/a	993	0	n/a	n/a	0.0	1	left	n/a	n/a	n/a	0	-0.0571967714839	blockFiles/set_24/main_PD/GB_runPatches1.xlsx
249	patches	True	n/a	993	0	n/a	n/a	1.0	0	right	n/a	n/a	n/a	0	-0.0157879317552	blockFiles/set_24/main_PD/GB_runPatches1.xlsx
250	patches	True	n/a	993	0	n/a	n/a	0.0	1	left	n/a	n/a	n/a	0	-0.0519393096119	blockFiles/set_24/main_PD/GB_runPatches1.xlsx
251	patches	True	n/a	993	0	n/a	n/a	0.0	1	left	n/a	n/a	n/a	0	-0.0220890689269	blockFiles/set_24/main_PD/GB_runPatches1.xlsx
252	patches	True	n/a	993	0	n/a	n/a	0.0	1	left	n/a	n/a	n/a	0	-0.0254142252728	blockFiles/set_24/main_PD/GB_runPatches1.xlsx
253	patches	True	n/a	993	0	n/a	n/a	0.0	1	left	n/a	n/a	n/a	0	-0.0444109227695	blockFiles/set_24/main_PD/GB_runPatches1.xlsx
254	patches	True	n/a	993	0	n/a	n/a	1.0	1	right	n/a	n/a	n/a	1	0.0657127561048	blockFiles/set_24/main_PD/GB_runPatches1.xlsx
255	patches	True	n/a	993	0	n/a	n/a	0.0	1	left	n/a	n/a	n/a	0	-0.0298780451529	blockFiles/set_24/main_PD/GB_runPatches1.xlsx
256	patches	True	n/a	993	0	n/a	n/a	0.0	1	left	n/a	n/a	n/a	0	-0.0276994360983	blockFiles/set_24/main_PD/GB_runPatches1.xlsx
257	patches	True	n/a	993	0	n/a	n/a	0.0	1	left	n/a	n/a	n/a	0	-0.07459673877810001	blockFiles/set_24/main_PD/GB_runPatches1.xlsx
258	patches	True	n/a	993	0	n/a	n/a	0.0	1	left	n/a	n/a	n/a	0	-0.07799385257069999	blockFiles/set_24/main_PD/GB_runPatches1.xlsx
259	main_unc	True	0.0	993	0	0.0	0.0	0.0	1	left	2.0	1.0	1.0	0	-0.0684625629149	blockFiles/set_24/main_unc/leftBlue\GB_LB_5.xlsx
260	main_unc	True	0.0	993	0	0.0	0.0	0.0	0	left	2.0	0.0	0.0	1	0.0117352694273	blockFiles/set_24/main_unc/leftBlue\GB_LB_5.xlsx
261	main_unc	True	0.0	993	0	0.0	0.0	1.0	1	right	1.0	0.0	1.0	1	0.0576641080901	blockFiles/set_24/main_unc/leftBlue\GB_LB_5.xlsx
262	main_unc	True	0.0	993	0	0.0	0.0	1.0	1	right	2.0	0.0	0.0	1	0.0394168782048	blockFiles/set_24/main_unc/leftBlue\GB_LB_5.xlsx
263	main_unc	True	0.0	993	0	0.0	0.0	1.0	1	right	1.0	1.0	1.0	1	0.0628113386594	blockFiles/set_24/main_unc/leftBlue\GB_LB_5.xlsx
264	main_unc	True	0.0	993	0	0.0	0.0	0.0	1	left	2.0	1.0	1.0	0	-0.07337658874689999	blockFiles/set_24/main_unc/leftBlue\GB_LB_5.xlsx
265	main_unc	True	0.0	993	0	0.0	0.0	1.0	1	right	1.0	1.0	1.0	1	0.00829345656559	blockFiles/set_24/main_unc/leftBlue\GB_LB_5.xlsx
266	main_unc	True	0.0	993	0	0.0	0.0	0.0	1	left	2.0	1.0	1.0	0	-0.0566209747083	blockFiles/set_24/main_unc/leftBlue\GB_LB_5.xlsx
267	main_unc	True	0.0	993	0	0.0	0.0	0.0	1	left	2.0	1.0	1.0	0	-0.00365699354559	blockFiles/set_24/main_unc/leftBlue\GB_LB_5.xlsx
268	main_unc	True	0.0	993	0	0.0	0.0	0.0	0	left	2.0	0.0	0.0	1	0.00659035889432	blockFiles/set_24/main_unc/leftBlue\GB_LB_5.xlsx
269	main_unc	True	0.0	993	0	0.0	0.0	1.0	1	right	1.0	0.0	1.0	1	0.0610856591538	blockFiles/set_24/main_unc/leftBlue\GB_LB_5.xlsx
270	main_unc	True	1.0	993	0	0.0	0.0	0.0	1	left	n/a	0.0	n/a	0	-0.0396652775444	blockFiles/set_24/main_unc/leftBlue\GB_LB_5.xlsx
271	main_unc	True	0.0	993	0	0.0	0.0	0.0	1	left	2.0	1.0	1.0	0	-0.037995305527	blockFiles/set_24/main_unc/leftBlue\GB_LB_5.xlsx
272	main_unc	True	0.0	993	0	0.0	0.0	1.0	1	right	1.0	0.0	1.0	1	0.076641274225	blockFiles/set_24/main_unc/leftBlue\GB_LB_5.xlsx
273	main_unc	True	0.0	993	0	0.0	0.0	1.0	0	right	1.0	0.0	0.0	0	-0.00213240385056	blockFiles/set_24/main_unc/leftBlue\GB_LB_5.xlsx
274	main_unc	True	0.0	993	0	0.0	0.0	0.0	1	left	2.0	1.0	1.0	0	-0.0696793048084	blockFiles/set_24/main_unc/leftBlue\GB_LB_5.xlsx
275	main_unc	True	0.0	993	0	0.0	0.0	0.0	1	left	2.0	1.0	1.0	0	-0.0402772642113	blockFiles/set_24/main_unc/leftBlue\GB_LB_5.xlsx
276	main_unc	True	0.0	993	0	0.0	0.0	0.0	1	left	2.0	1.0	1.0	0	-0.0457801087201	blockFiles/set_24/main_unc/leftBlue\GB_LB_5.xlsx
277	main_unc	True	0.0	993	0	0.0	0.0	0.0	1	left	2.0	1.0	1.0	0	-0.0274838255905	blockFiles/set_24/main_unc/leftBlue\GB_LB_5.xlsx
278	main_unc	True	0.0	993	0	0.0	0.0	0.0	0	left	2.0	1.0	0.0	1	0.015045487117000001	blockFiles/set_24/main_unc/leftBlue\GB_LB_5.xlsx
279	main_unc	True	0.0	993	0	0.0	0.0	1.0	1	right	1.0	1.0	1.0	1	0.053853018525999996	blockFiles/set_24/main_unc/leftBlue\GB_LB_5.xlsx
280	main_unc	True	0.0	993	0	0.0	0.0	0.0	1	left	2.0	1.0	1.0	0	-0.037253118623	blockFiles/set_24/main_unc/leftBlue\GB_LB_5.xlsx
281	main_unc	True	0.0	993	0	0.0	0.0	1.0	1	right	2.0	0.0	0.0	1	0.06255118230359999	blockFiles/set_24/main_unc/leftBlue\GB_LB_5.xlsx
282	main_unc	True	0.0	993	0	0.0	0.0	0.0	1	left	2.0	1.0	1.0	0	-0.059240865111400004	blockFiles/set_24/main_unc/leftBlue\GB_LB_5.xlsx
283	main_unc	True	0.0	993	0	0.0	0.0	1.0	1	right	1.0	1.0	1.0	1	0.07299526967110001	blockFiles/set_24/main_unc/leftBlue\GB_LB_5.xlsx
284	main_unc	True	0.0	993	0	0.0	0.0	0.0	1	left	2.0	1.0	1.0	0	-0.0396652775444	blockFiles/set_24/main_unc/leftBlue\GB_LB_5.xlsx
285	main_unc	True	0.0	993	0	1.0	1.0	0.0	1	left	2.0	1.0	1.0	0	-0.0679092560895	blockFiles/set_24/main_unc/leftBlue\GB_LB_2.xlsx
286	main_unc	True	0.0	993	0	1.0	1.0	0.0	1	left	2.0	1.0	1.0	0	-0.0323582477681	blockFiles/set_24/main_unc/leftBlue\GB_LB_2.xlsx
287	main_unc	True	0.0	993	0	1.0	1.0	0.0	1	left	2.0	1.0	1.0	0	-0.0404235155135	blockFiles/set_24/main_unc/leftBlue\GB_LB_2.xlsx
288	main_unc	True	0.0	993	0	1.0	1.0	1.0	1	right	2.0	0.0	0.0	1	0.00728227810934	blockFiles/set_24/main_unc/leftBlue\GB_LB_2.xlsx
289	main_unc	True	0.0	993	0	1.0	1.0	1.0	1	right	1.0	1.0	1.0	1	0.0772113694251	blockFiles/set_24/main_unc/leftBlue\GB_LB_2.xlsx
290	main_unc	True	0.0	993	0	1.0	1.0	1.0	1	right	1.0	1.0	1.0	1	0.07719344811510001	blockFiles/set_24/main_unc/leftBlue\GB_LB_2.xlsx
291	main_unc	True	0.0	993	0	1.0	1.0	1.0	1	right	1.0	0.0	1.0	1	0.014987491313399999	blockFiles/set_24/main_unc/leftBlue\GB_LB_2.xlsx
292	main_unc	True	0.0	993	0	1.0	1.0	0.0	1	left	2.0	1.0	1.0	0	-0.0250390186161	blockFiles/set_24/main_unc/leftBlue\GB_LB_2.xlsx
293	main_unc	True	0.0	993	0	1.0	1.0	0.0	1	left	1.0	1.0	0.0	0	-0.019609468281300002	blockFiles/set_24/main_unc/leftBlue\GB_LB_2.xlsx
294	main_unc	True	0.0	993	0	1.0	1.0	0.0	1	left	2.0	1.0	1.0	0	-0.021817220561199998	blockFiles/set_24/main_unc/leftBlue\GB_LB_2.xlsx
295	main_unc	True	0.0	993	0	1.0	1.0	1.0	1	right	1.0	1.0	1.0	1	0.0418865221925	blockFiles/set_24/main_unc/leftBlue\GB_LB_2.xlsx
296	main_unc	True	0.0	993	0	1.0	1.0	0.0	1	left	2.0	1.0	1.0	0	-0.0490028924868	blockFiles/set_24/main_unc/leftBlue\GB_LB_2.xlsx
297	main_unc	True	0.0	993	0	1.0	1.0	0.0	1	left	2.0	1.0	1.0	0	-0.0252267514542	blockFiles/set_24/main_unc/leftBlue\GB_LB_2.xlsx
298	main_unc	True	0.0	993	0	1.0	1.0	1.0	1	right	1.0	1.0	1.0	1	0.045495708510300006	blockFiles/set_24/main_unc/leftBlue\GB_LB_2.xlsx
299	main_unc	True	0.0	993	0	1.0	1.0	0.0	0	left	2.0	0.0	0.0	1	0.0141545264423	blockFiles/set_24/main_unc/leftBlue\GB_LB_2.xlsx
300	main_unc	True	0.0	993	0	1.0	1.0	0.0	1	left	2.0	1.0	1.0	0	-0.0769051156007	blockFiles/set_24/main_unc/leftBlue\GB_LB_2.xlsx
301	main_unc	True	0.0	993	0	1.0	1.0	1.0	1	right	1.0	1.0	1.0	1	0.00215727746487	blockFiles/set_24/main_unc/leftBlue\GB_LB_2.xlsx
302	main_unc	True	0.0	993	0	1.0	1.0	0.0	1	left	2.0	0.0	1.0	0	-0.064664670378	blockFiles/set_24/main_unc/leftBlue\GB_LB_2.xlsx
303	main_unc	True	0.0	993	0	1.0	1.0	0.0	1	left	2.0	1.0	1.0	0	-0.0561976265162	blockFiles/set_24/main_unc/leftBlue\GB_LB_2.xlsx
304	main_unc	True	0.0	993	0	1.0	1.0	1.0	1	right	1.0	1.0	1.0	1	0.0432402959839	blockFiles/set_24/main_unc/leftBlue\GB_LB_2.xlsx
305	main_unc	True	0.0	993	0	1.0	1.0	0.0	1	left	2.0	1.0	1.0	0	-0.04256802672519999	blockFiles/set_24/main_unc/leftBlue\GB_LB_2.xlsx
306	main_unc	True	0.0	993	0	1.0	1.0	0.0	1	left	2.0	1.0	1.0	0	-0.061457153726399996	blockFiles/set_24/main_unc/leftBlue\GB_LB_2.xlsx
307	main_unc	True	0.0	993	0	1.0	1.0	0.0	0	left	2.0	0.0	0.0	1	0.0011402166076	blockFiles/set_24/main_unc/leftBlue\GB_LB_2.xlsx
308	main_unc	True	0.0	993	0	1.0	1.0	1.0	1	right	1.0	0.0	1.0	1	0.0505977647193	blockFiles/set_24/main_unc/leftBlue\GB_LB_2.xlsx
309	main_unc	True	0.0	993	0	1.0	1.0	1.0	1	right	1.0	1.0	1.0	1	0.04341920303180001	blockFiles/set_24/main_unc/leftBlue\GB_LB_2.xlsx
310	main_unc	True	0.0	993	0	2.0	2.0	0.0	1	left	2.0	0.0	1.0	0	-0.0376171492413	blockFiles/set_24/main_unc/leftBlue\GB_LB_6.xlsx
311	main_unc	True	0.0	993	0	2.0	2.0	1.0	1	right	1.0	1.0	1.0	1	0.036459255591	blockFiles/set_24/main_unc/leftBlue\GB_LB_6.xlsx
312	main_unc	True	0.0	993	0	2.0	2.0	0.0	1	left	2.0	1.0	1.0	0	-0.0204597336799	blockFiles/set_24/main_unc/leftBlue\GB_LB_6.xlsx
313	main_unc	True	0.0	993	0	2.0	2.0	0.0	1	left	2.0	0.0	1.0	0	-0.05858490664509999	blockFiles/set_24/main_unc/leftBlue\GB_LB_6.xlsx
314	main_unc	True	0.0	993	0	2.0	2.0	1.0	1	right	1.0	1.0	1.0	1	0.0666571158543	blockFiles/set_24/main_unc/leftBlue\GB_LB_6.xlsx
315	main_unc	True	0.0	993	0	2.0	2.0	1.0	1	right	1.0	0.0	1.0	1	0.0159485588409	blockFiles/set_24/main_unc/leftBlue\GB_LB_6.xlsx
316	main_unc	True	0.0	993	0	2.0	2.0	0.0	1	left	2.0	1.0	1.0	0	-0.015514291357200002	blockFiles/set_24/main_unc/leftBlue\GB_LB_6.xlsx
317	main_unc	True	0.0	993	0	2.0	2.0	1.0	1	right	1.0	1.0	1.0	1	0.026035743393	blockFiles/set_24/main_unc/leftBlue\GB_LB_6.xlsx
318	main_unc	True	0.0	993	0	2.0	2.0	1.0	1	right	1.0	1.0	1.0	1	0.0559241283685	blockFiles/set_24/main_unc/leftBlue\GB_LB_6.xlsx
319	main_unc	True	0.0	993	0	2.0	2.0	0.0	1	left	2.0	0.0	1.0	0	-0.00415111877024	blockFiles/set_24/main_unc/leftBlue\GB_LB_6.xlsx
320	main_unc	True	0.0	993	0	2.0	2.0	0.0	1	left	2.0	1.0	1.0	0	-0.0682077862136	blockFiles/set_24/main_unc/leftBlue\GB_LB_6.xlsx
321	main_unc	True	0.0	993	0	2.0	2.0	0.0	1	left	2.0	1.0	1.0	0	-0.0312976798415	blockFiles/set_24/main_unc/leftBlue\GB_LB_6.xlsx
322	main_unc	True	0.0	993	0	2.0	2.0	0.0	1	left	2.0	1.0	1.0	0	-0.0246834195592	blockFiles/set_24/main_unc/leftBlue\GB_LB_6.xlsx
323	main_unc	True	0.0	993	0	2.0	2.0	0.0	1	left	2.0	1.0	1.0	0	-0.048571183309	blockFiles/set_24/main_unc/leftBlue\GB_LB_6.xlsx
324	main_unc	True	0.0	993	0	2.0	2.0	1.0	1	right	1.0	1.0	1.0	1	0.0529314111173	blockFiles/set_24/main_unc/leftBlue\GB_LB_6.xlsx
325	main_unc	True	0.0	993	0	2.0	2.0	1.0	1	right	1.0	1.0	1.0	1	0.0699244136736	blockFiles/set_24/main_unc/leftBlue\GB_LB_6.xlsx
326	main_unc	True	0.0	993	0	2.0	2.0	0.0	1	left	2.0	1.0	1.0	0	-0.0643768485263	blockFiles/set_24/main_unc/leftBlue\GB_LB_6.xlsx
327	main_unc	True	0.0	993	0	2.0	2.0	1.0	1	right	1.0	0.0	1.0	1	0.0210510144755	blockFiles/set_24/main_unc/leftBlue\GB_LB_6.xlsx
328	main_unc	True	0.0	993	0	2.0	2.0	0.0	1	left	2.0	0.0	1.0	0	-0.0690819632076	blockFiles/set_24/main_unc/leftBlue\GB_LB_6.xlsx
329	main_unc	True	0.0	993	0	2.0	2.0	1.0	1	right	1.0	1.0	1.0	1	0.0455855794623	blockFiles/set_24/main_unc/leftBlue\GB_LB_6.xlsx
330	main_unc	True	0.0	993	0	2.0	2.0	0.0	1	left	2.0	1.0	1.0	0	-0.011161521859500001	blockFiles/set_24/main_unc/leftBlue\GB_LB_6.xlsx
331	main_unc	True	0.0	993	0	2.0	2.0	1.0	1	right	1.0	1.0	1.0	1	0.0316294402443	blockFiles/set_24/main_unc/leftBlue\GB_LB_6.xlsx
332	main_unc	True	0.0	993	0	2.0	2.0	1.0	1	right	1.0	1.0	1.0	1	0.0377128434367	blockFiles/set_24/main_unc/leftBlue\GB_LB_6.xlsx
333	main_unc	True	0.0	993	0	2.0	2.0	1.0	1	right	1.0	1.0	1.0	1	0.0765963985398	blockFiles/set_24/main_unc/leftBlue\GB_LB_6.xlsx
334	main_unc	True	0.0	993	0	2.0	2.0	0.0	1	left	2.0	1.0	1.0	0	-0.07964858779680001	blockFiles/set_24/main_unc/leftBlue\GB_LB_6.xlsx
335	main_unc	True	0.0	993	0	3.0	3.0	0.0	1	left	2.0	1.0	0.0	0	-0.07462539192289999	blockFiles/set_24/main_unc/rightBlue\GB_RB_2.xlsx
336	main_unc	True	0.0	993	0	3.0	3.0	0.0	1	left	2.0	0.0	0.0	0	-0.0133705373481	blockFiles/set_24/main_unc/rightBlue\GB_RB_2.xlsx
337	main_unc	True	0.0	993	0	3.0	3.0	1.0	1	right	1.0	0.0	0.0	1	0.035337040424300005	blockFiles/set_24/main_unc/rightBlue\GB_RB_2.xlsx
338	main_unc	True	0.0	993	0	3.0	3.0	1.0	1	right	2.0	1.0	1.0	1	0.025782146249	blockFiles/set_24/main_unc/rightBlue\GB_RB_2.xlsx
339	main_unc	True	0.0	993	0	3.0	3.0	1.0	1	right	2.0	1.0	1.0	1	0.0621615301073	blockFiles/set_24/main_unc/rightBlue\GB_RB_2.xlsx
340	main_unc	True	0.0	993	0	3.0	3.0	1.0	1	right	2.0	1.0	1.0	1	0.056155712679000006	blockFiles/set_24/main_unc/rightBlue\GB_RB_2.xlsx
341	main_unc	True	0.0	993	0	3.0	3.0	1.0	1	right	2.0	1.0	1.0	1	0.0294249632768	blockFiles/set_24/main_unc/rightBlue\GB_RB_2.xlsx
342	main_unc	True	0.0	993	0	3.0	3.0	0.0	1	left	1.0	1.0	1.0	0	-0.0587874257565	blockFiles/set_24/main_unc/rightBlue\GB_RB_2.xlsx
343	main_unc	True	0.0	993	0	3.0	3.0	1.0	1	right	1.0	0.0	0.0	1	0.006197388935829999	blockFiles/set_24/main_unc/rightBlue\GB_RB_2.xlsx
344	main_unc	True	0.0	993	0	3.0	3.0	0.0	1	left	1.0	1.0	1.0	0	-0.0354737707414	blockFiles/set_24/main_unc/rightBlue\GB_RB_2.xlsx
345	main_unc	True	0.0	993	0	3.0	3.0	1.0	1	right	2.0	1.0	1.0	1	0.040145029053099995	blockFiles/set_24/main_unc/rightBlue\GB_RB_2.xlsx
346	main_unc	True	0.0	993	0	3.0	3.0	0.0	1	left	1.0	1.0	1.0	0	-0.014554514493799998	blockFiles/set_24/main_unc/rightBlue\GB_RB_2.xlsx
347	main_unc	True	0.0	993	0	3.0	3.0	0.0	1	left	1.0	1.0	1.0	0	-0.061206202749199995	blockFiles/set_24/main_unc/rightBlue\GB_RB_2.xlsx
348	main_unc	True	0.0	993	0	3.0	3.0	1.0	1	right	2.0	0.0	1.0	1	0.0651583580114	blockFiles/set_24/main_unc/rightBlue\GB_RB_2.xlsx
349	main_unc	True	0.0	993	0	3.0	3.0	0.0	0	left	1.0	0.0	0.0	1	0.0431871349365	blockFiles/set_24/main_unc/rightBlue\GB_RB_2.xlsx
350	main_unc	True	0.0	993	0	3.0	3.0	0.0	1	left	1.0	1.0	1.0	0	-0.033944841269400006	blockFiles/set_24/main_unc/rightBlue\GB_RB_2.xlsx
351	main_unc	True	0.0	993	0	3.0	3.0	0.0	0	left	1.0	1.0	0.0	1	0.011119823381299998	blockFiles/set_24/main_unc/rightBlue\GB_RB_2.xlsx
352	main_unc	True	0.0	993	0	3.0	3.0	0.0	1	left	1.0	1.0	1.0	0	-0.0212211773545	blockFiles/set_24/main_unc/rightBlue\GB_RB_2.xlsx
353	main_unc	True	0.0	993	0	3.0	3.0	0.0	1	left	1.0	1.0	1.0	0	-0.0713688565046	blockFiles/set_24/main_unc/rightBlue\GB_RB_2.xlsx
354	main_unc	True	0.0	993	0	3.0	3.0	0.0	1	left	1.0	0.0	1.0	0	-0.0214260358922	blockFiles/set_24/main_unc/rightBlue\GB_RB_2.xlsx
355	main_unc	True	0.0	993	0	3.0	3.0	0.0	1	left	1.0	1.0	1.0	0	-0.019736358821400003	blockFiles/set_24/main_unc/rightBlue\GB_RB_2.xlsx
356	main_unc	True	0.0	993	0	3.0	3.0	1.0	1	right	2.0	1.0	1.0	1	0.05738466715440001	blockFiles/set_24/main_unc/rightBlue\GB_RB_2.xlsx
357	main_unc	True	0.0	993	0	3.0	3.0	0.0	1	left	2.0	0.0	0.0	0	-0.009664178639649999	blockFiles/set_24/main_unc/rightBlue\GB_RB_2.xlsx
358	main_unc	True	0.0	993	0	3.0	3.0	1.0	1	right	2.0	0.0	1.0	1	0.05254432110119999	blockFiles/set_24/main_unc/rightBlue\GB_RB_2.xlsx
359	main_unc	True	0.0	993	0	3.0	3.0	0.0	1	left	1.0	1.0	1.0	0	-0.0509124699049	blockFiles/set_24/main_unc/rightBlue\GB_RB_2.xlsx
360	main_unc	True	0.0	993	0	4.0	4.0	0.0	0	left	2.0	1.0	1.0	1	0.0069857526011799995	blockFiles/set_24/main_unc/rightBlue\GB_RB_1.xlsx
361	main_unc	True	0.0	993	0	4.0	4.0	0.0	0	left	2.0	0.0	1.0	1	0.0451314567588	blockFiles/set_24/main_unc/rightBlue\GB_RB_1.xlsx
362	main_unc	True	1.0	993	0	4.0	4.0	n/a	0	None	n/a	0.0	n/a	1	0.034580021891699994	blockFiles/set_24/main_unc/rightBlue\GB_RB_1.xlsx
363	main_unc	True	0.0	993	0	4.0	4.0	0.0	0	left	2.0	1.0	1.0	1	0.0286669120565	blockFiles/set_24/main_unc/rightBlue\GB_RB_1.xlsx
364	main_unc	True	0.0	993	0	4.0	4.0	1.0	1	right	1.0	0.0	0.0	1	0.0175866364129	blockFiles/set_24/main_unc/rightBlue\GB_RB_1.xlsx
365	main_unc	True	0.0	993	0	4.0	4.0	0.0	1	left	2.0	0.0	0.0	0	-0.055731776021400004	blockFiles/set_24/main_unc/rightBlue\GB_RB_1.xlsx
366	main_unc	True	0.0	993	0	4.0	4.0	0.0	1	left	1.0	1.0	1.0	0	-0.0742365430668	blockFiles/set_24/main_unc/rightBlue\GB_RB_1.xlsx
367	main_unc	True	0.0	993	0	4.0	4.0	0.0	1	left	1.0	1.0	1.0	0	-0.0775249129906	blockFiles/set_24/main_unc/rightBlue\GB_RB_1.xlsx
368	main_unc	True	0.0	993	0	4.0	4.0	0.0	1	left	1.0	1.0	1.0	0	-0.009310823418200002	blockFiles/set_24/main_unc/rightBlue\GB_RB_1.xlsx
369	main_unc	True	0.0	993	0	4.0	4.0	1.0	1	right	2.0	1.0	1.0	1	0.0113947706111	blockFiles/set_24/main_unc/rightBlue\GB_RB_1.xlsx
370	main_unc	True	0.0	993	0	4.0	4.0	0.0	0	left	1.0	0.0	0.0	1	0.0007091152109209999	blockFiles/set_24/main_unc/rightBlue\GB_RB_1.xlsx
371	main_unc	True	0.0	993	0	4.0	4.0	0.0	1	left	1.0	1.0	1.0	0	-0.0322841777653	blockFiles/set_24/main_unc/rightBlue\GB_RB_1.xlsx
372	main_unc	True	0.0	993	0	4.0	4.0	1.0	1	right	2.0	1.0	1.0	1	0.0712118601613	blockFiles/set_24/main_unc/rightBlue\GB_RB_1.xlsx
373	main_unc	True	0.0	993	0	4.0	4.0	0.0	1	left	1.0	0.0	1.0	0	-0.048537591677199995	blockFiles/set_24/main_unc/rightBlue\GB_RB_1.xlsx
374	main_unc	True	0.0	993	0	4.0	4.0	0.0	1	left	1.0	1.0	1.0	0	-0.018545395582900002	blockFiles/set_24/main_unc/rightBlue\GB_RB_1.xlsx
375	main_unc	True	0.0	993	0	4.0	4.0	1.0	1	right	2.0	1.0	1.0	1	0.05992272289469999	blockFiles/set_24/main_unc/rightBlue\GB_RB_1.xlsx
376	main_unc	True	0.0	993	0	4.0	4.0	0.0	1	left	1.0	0.0	1.0	0	-0.00447210844606	blockFiles/set_24/main_unc/rightBlue\GB_RB_1.xlsx
377	main_unc	True	0.0	993	0	4.0	4.0	1.0	1	right	2.0	1.0	1.0	1	0.0265259174071	blockFiles/set_24/main_unc/rightBlue\GB_RB_1.xlsx
378	main_unc	True	0.0	993	0	4.0	4.0	1.0	1	right	2.0	1.0	1.0	1	0.052452090513	blockFiles/set_24/main_unc/rightBlue\GB_RB_1.xlsx
379	main_unc	True	0.0	993	0	4.0	4.0	0.0	1	left	1.0	1.0	1.0	0	-0.0397101244144	blockFiles/set_24/main_unc/rightBlue\GB_RB_1.xlsx
380	main_unc	True	0.0	993	0	4.0	4.0	1.0	1	right	2.0	0.0	1.0	1	0.07800203146410001	blockFiles/set_24/main_unc/rightBlue\GB_RB_1.xlsx
381	main_unc	True	0.0	993	0	4.0	4.0	0.0	1	left	1.0	0.0	1.0	0	-0.029160896055400003	blockFiles/set_24/main_unc/rightBlue\GB_RB_1.xlsx
382	main_unc	True	0.0	993	0	4.0	4.0	1.0	1	right	2.0	1.0	1.0	1	0.0670300875604	blockFiles/set_24/main_unc/rightBlue\GB_RB_1.xlsx
383	main_unc	True	0.0	993	0	4.0	4.0	1.0	1	right	2.0	0.0	1.0	1	0.0191824647039	blockFiles/set_24/main_unc/rightBlue\GB_RB_1.xlsx
384	main_unc	True	0.0	993	0	4.0	4.0	0.0	1	left	1.0	1.0	1.0	0	-0.00631428571418	blockFiles/set_24/main_unc/rightBlue\GB_RB_1.xlsx
385	main_unc	True	0.0	993	0	4.0	4.0	1.0	1	right	2.0	1.0	1.0	1	0.034580021891699994	blockFiles/set_24/main_unc/rightBlue\GB_RB_1.xlsx
386	main_unc	True	0.0	993	0	5.0	5.0	0.0	1	left	2.0	1.0	0.0	0	-0.037939414754499995	blockFiles/set_24/main_unc/rightBlue\GB_RB_4.xlsx
387	main_unc	True	0.0	993	0	5.0	5.0	1.0	0	right	1.0	1.0	1.0	0	-0.00367958672345	blockFiles/set_24/main_unc/rightBlue\GB_RB_4.xlsx
388	main_unc	True	0.0	993	0	5.0	5.0	1.0	1	right	1.0	1.0	0.0	1	0.0783735388145	blockFiles/set_24/main_unc/rightBlue\GB_RB_4.xlsx
389	main_unc	True	0.0	993	0	5.0	5.0	1.0	1	right	1.0	0.0	0.0	1	0.051712386738499996	blockFiles/set_24/main_unc/rightBlue\GB_RB_4.xlsx
390	main_unc	True	0.0	993	0	5.0	5.0	1.0	1	right	1.0	0.0	0.0	1	0.0347225383297	blockFiles/set_24/main_unc/rightBlue\GB_RB_4.xlsx
391	main_unc	True	0.0	993	0	5.0	5.0	0.0	1	left	2.0	0.0	0.0	0	-0.0370161536522	blockFiles/set_24/main_unc/rightBlue\GB_RB_4.xlsx
392	main_unc	True	0.0	993	0	5.0	5.0	1.0	1	right	1.0	0.0	0.0	1	0.0596733743325	blockFiles/set_24/main_unc/rightBlue\GB_RB_4.xlsx
393	main_unc	True	0.0	993	0	5.0	5.0	0.0	1	left	1.0	0.0	1.0	0	-0.00662478324026	blockFiles/set_24/main_unc/rightBlue\GB_RB_4.xlsx
394	main_unc	True	0.0	993	0	5.0	5.0	1.0	1	right	1.0	0.0	0.0	1	0.013359375763700002	blockFiles/set_24/main_unc/rightBlue\GB_RB_4.xlsx
395	main_unc	True	0.0	993	0	5.0	5.0	1.0	1	right	2.0	1.0	1.0	1	0.0305541498214	blockFiles/set_24/main_unc/rightBlue\GB_RB_4.xlsx
396	main_unc	True	0.0	993	0	5.0	5.0	0.0	1	left	1.0	1.0	1.0	0	-0.0406670072116	blockFiles/set_24/main_unc/rightBlue\GB_RB_4.xlsx
397	main_unc	True	0.0	993	0	5.0	5.0	0.0	1	left	1.0	1.0	1.0	0	-0.0355250832997	blockFiles/set_24/main_unc/rightBlue\GB_RB_4.xlsx
398	main_unc	True	0.0	993	0	5.0	5.0	1.0	1	right	2.0	1.0	1.0	1	0.0564364438131	blockFiles/set_24/main_unc/rightBlue\GB_RB_4.xlsx
399	main_unc	True	0.0	993	0	5.0	5.0	0.0	1	left	1.0	1.0	1.0	0	-0.0400225320458	blockFiles/set_24/main_unc/rightBlue\GB_RB_4.xlsx
400	main_unc	True	0.0	993	0	5.0	5.0	0.0	0	left	1.0	0.0	0.0	1	0.0340407421254	blockFiles/set_24/main_unc/rightBlue\GB_RB_4.xlsx
401	main_unc	True	0.0	993	0	5.0	5.0	1.0	1	right	2.0	1.0	1.0	1	0.038298424985300006	blockFiles/set_24/main_unc/rightBlue\GB_RB_4.xlsx
402	main_unc	True	1.0	993	0	5.0	5.0	n/a	0	None	n/a	0.0	n/a	0	-0.0271210850775	blockFiles/set_24/main_unc/rightBlue\GB_RB_4.xlsx
403	main_unc	True	0.0	993	0	5.0	5.0	1.0	1	right	2.0	1.0	1.0	1	0.0512403176911	blockFiles/set_24/main_unc/rightBlue\GB_RB_4.xlsx
404	main_unc	True	0.0	993	0	5.0	5.0	0.0	1	left	1.0	1.0	1.0	0	-0.0339487172104	blockFiles/set_24/main_unc/rightBlue\GB_RB_4.xlsx
405	main_unc	True	0.0	993	0	5.0	5.0	0.0	1	left	1.0	1.0	1.0	0	-0.011073592845399998	blockFiles/set_24/main_unc/rightBlue\GB_RB_4.xlsx
406	main_unc	True	0.0	993	0	5.0	5.0	0.0	1	left	2.0	0.0	0.0	0	-0.0765840984695	blockFiles/set_24/main_unc/rightBlue\GB_RB_4.xlsx
407	main_unc	True	0.0	993	0	5.0	5.0	0.0	0	left	2.0	1.0	1.0	1	0.0786941635795	blockFiles/set_24/main_unc/rightBlue\GB_RB_4.xlsx
408	main_unc	True	0.0	993	0	5.0	5.0	0.0	1	left	1.0	1.0	1.0	0	-0.0654287006892	blockFiles/set_24/main_unc/rightBlue\GB_RB_4.xlsx
409	main_unc	True	0.0	993	0	5.0	5.0	0.0	1	left	1.0	1.0	1.0	0	-0.0188803281635	blockFiles/set_24/main_unc/rightBlue\GB_RB_4.xlsx
410	main_unc	True	0.0	993	0	5.0	5.0	1.0	1	right	2.0	1.0	1.0	1	0.0252261026204	blockFiles/set_24/main_unc/rightBlue\GB_RB_4.xlsx
411	main_unc	True	0.0	993	0	5.0	5.0	0.0	1	left	1.0	1.0	1.0	0	-0.0271210850775	blockFiles/set_24/main_unc/rightBlue\GB_RB_4.xlsx
412	main_unc	True	0.0	993	0	6.0	6.0	0.0	1	left	1.0	0.0	0.0	0	-0.0707103814743	blockFiles/set_24/main_unc/leftBlue\GB_LB_3.xlsx
413	main_unc	True	0.0	993	0	6.0	6.0	0.0	0	left	2.0	0.0	0.0	1	0.010265159867700002	blockFiles/set_24/main_unc/leftBlue\GB_LB_3.xlsx
414	main_unc	True	0.0	993	0	6.0	6.0	0.0	1	left	1.0	0.0	0.0	0	-0.009892790149899999	blockFiles/set_24/main_unc/leftBlue\GB_LB_3.xlsx
415	main_unc	True	0.0	993	0	6.0	6.0	0.0	1	left	2.0	1.0	1.0	0	-0.0700767985545	blockFiles/set_24/main_unc/leftBlue\GB_LB_3.xlsx
416	main_unc	True	0.0	993	0	6.0	6.0	1.0	1	right	1.0	1.0	1.0	1	0.030487425159700002	blockFiles/set_24/main_unc/leftBlue\GB_LB_3.xlsx
417	main_unc	True	0.0	993	0	6.0	6.0	0.0	1	left	2.0	0.0	1.0	0	-0.056795028056899996	blockFiles/set_24/main_unc/leftBlue\GB_LB_3.xlsx
418	main_unc	True	0.0	993	0	6.0	6.0	0.0	1	left	2.0	1.0	1.0	0	-0.014485413190000001	blockFiles/set_24/main_unc/leftBlue\GB_LB_3.xlsx
419	main_unc	True	0.0	993	0	6.0	6.0	0.0	0	left	2.0	0.0	0.0	1	0.00011162705719499999	blockFiles/set_24/main_unc/leftBlue\GB_LB_3.xlsx
420	main_unc	True	0.0	993	0	6.0	6.0	0.0	1	left	2.0	1.0	1.0	0	-0.058612895999099995	blockFiles/set_24/main_unc/leftBlue\GB_LB_3.xlsx
421	main_unc	True	0.0	993	0	6.0	6.0	0.0	1	left	2.0	1.0	1.0	0	-0.0744027639925	blockFiles/set_24/main_unc/leftBlue\GB_LB_3.xlsx
422	main_unc	True	0.0	993	0	6.0	6.0	1.0	1	right	1.0	1.0	1.0	1	0.0558283766732	blockFiles/set_24/main_unc/leftBlue\GB_LB_3.xlsx
423	main_unc	True	0.0	993	0	6.0	6.0	1.0	1	right	1.0	1.0	1.0	1	0.024241722598700003	blockFiles/set_24/main_unc/leftBlue\GB_LB_3.xlsx
424	main_unc	True	1.0	993	0	6.0	6.0	n/a	0	None	n/a	0.0	n/a	1	0.013167284093799999	blockFiles/set_24/main_unc/leftBlue\GB_LB_3.xlsx
425	main_unc	True	0.0	993	0	6.0	6.0	1.0	1	right	1.0	1.0	1.0	1	0.050733980815900005	blockFiles/set_24/main_unc/leftBlue\GB_LB_3.xlsx
426	main_unc	True	0.0	993	0	6.0	6.0	0.0	1	left	2.0	1.0	1.0	0	-0.054490045849199996	blockFiles/set_24/main_unc/leftBlue\GB_LB_3.xlsx
427	main_unc	True	0.0	993	0	6.0	6.0	0.0	0	left	2.0	1.0	0.0	1	0.011425288599000001	blockFiles/set_24/main_unc/leftBlue\GB_LB_3.xlsx
428	main_unc	True	0.0	993	0	6.0	6.0	1.0	1	right	1.0	1.0	1.0	1	0.035719493664800005	blockFiles/set_24/main_unc/leftBlue\GB_LB_3.xlsx
429	main_unc	True	0.0	993	0	6.0	6.0	0.0	1	left	2.0	0.0	1.0	0	-0.0391965842992	blockFiles/set_24/main_unc/leftBlue\GB_LB_3.xlsx
430	main_unc	True	0.0	993	0	6.0	6.0	0.0	1	left	2.0	1.0	1.0	0	-0.04351764686409999	blockFiles/set_24/main_unc/leftBlue\GB_LB_3.xlsx
431	main_unc	True	0.0	993	0	6.0	6.0	1.0	1	right	1.0	1.0	1.0	1	0.0350042745285	blockFiles/set_24/main_unc/leftBlue\GB_LB_3.xlsx
432	main_unc	True	0.0	993	0	6.0	6.0	1.0	1	right	1.0	0.0	1.0	1	0.00406379641965	blockFiles/set_24/main_unc/leftBlue\GB_LB_3.xlsx
433	main_unc	True	0.0	993	0	6.0	6.0	0.0	0	left	2.0	0.0	0.0	1	0.019357510693400002	blockFiles/set_24/main_unc/leftBlue\GB_LB_3.xlsx
434	main_unc	True	0.0	993	0	6.0	6.0	0.0	1	left	2.0	0.0	1.0	0	-0.05802221180869999	blockFiles/set_24/main_unc/leftBlue\GB_LB_3.xlsx
435	main_unc	True	0.0	993	0	6.0	6.0	1.0	1	right	1.0	1.0	1.0	1	0.0250859216228	blockFiles/set_24/main_unc/leftBlue\GB_LB_3.xlsx
436	main_unc	True	0.0	993	0	6.0	6.0	0.0	1	left	2.0	1.0	1.0	0	-0.0339210108481	blockFiles/set_24/main_unc/leftBlue\GB_LB_3.xlsx
437	main_unc	True	0.0	993	0	6.0	6.0	0.0	0	left	2.0	0.0	0.0	1	0.013167284093799999	blockFiles/set_24/main_unc/leftBlue\GB_LB_3.xlsx
438	main_unc	True	0.0	993	0	7.0	7.0	0.0	1	left	2.0	1.0	1.0	0	-0.00064993744716	blockFiles/set_24/main_unc/leftBlue\GB_LB_1.xlsx
439	main_unc	True	0.0	993	0	7.0	7.0	0.0	1	left	2.0	1.0	1.0	0	-0.0308934616297	blockFiles/set_24/main_unc/leftBlue\GB_LB_1.xlsx
440	main_unc	True	0.0	993	0	7.0	7.0	0.0	0	left	2.0	0.0	0.0	1	0.0430226468295	blockFiles/set_24/main_unc/leftBlue\GB_LB_1.xlsx
441	main_unc	True	0.0	993	0	7.0	7.0	1.0	1	right	1.0	1.0	1.0	1	0.07110986178739999	blockFiles/set_24/main_unc/leftBlue\GB_LB_1.xlsx
442	main_unc	True	0.0	993	0	7.0	7.0	0.0	1	left	2.0	1.0	1.0	0	-0.038073446508499996	blockFiles/set_24/main_unc/leftBlue\GB_LB_1.xlsx
443	main_unc	True	0.0	993	0	7.0	7.0	0.0	1	left	2.0	1.0	1.0	0	-0.0625399250165	blockFiles/set_24/main_unc/leftBlue\GB_LB_1.xlsx
444	main_unc	True	0.0	993	0	7.0	7.0	1.0	1	right	1.0	1.0	1.0	1	0.022400501500800002	blockFiles/set_24/main_unc/leftBlue\GB_LB_1.xlsx
445	main_unc	True	0.0	993	0	7.0	7.0	1.0	1	right	1.0	1.0	1.0	1	0.0489202790707	blockFiles/set_24/main_unc/leftBlue\GB_LB_1.xlsx
446	main_unc	True	0.0	993	0	7.0	7.0	1.0	1	right	1.0	0.0	1.0	1	0.025054365284700002	blockFiles/set_24/main_unc/leftBlue\GB_LB_1.xlsx
447	main_unc	True	0.0	993	0	7.0	7.0	0.0	1	left	2.0	1.0	1.0	0	-0.07894558776169999	blockFiles/set_24/main_unc/leftBlue\GB_LB_1.xlsx
448	main_unc	True	0.0	993	0	7.0	7.0	0.0	0	left	2.0	0.0	0.0	1	0.022117899469999997	blockFiles/set_24/main_unc/leftBlue\GB_LB_1.xlsx
449	main_unc	True	0.0	993	0	7.0	7.0	1.0	1	right	1.0	0.0	1.0	1	0.0438664228655	blockFiles/set_24/main_unc/leftBlue\GB_LB_1.xlsx
450	main_unc	True	0.0	993	0	7.0	7.0	1.0	1	right	1.0	1.0	1.0	1	0.07286072066049999	blockFiles/set_24/main_unc/leftBlue\GB_LB_1.xlsx
451	main_unc	True	0.0	993	0	7.0	7.0	1.0	0	right	1.0	0.0	0.0	0	-0.018573696799599998	blockFiles/set_24/main_unc/leftBlue\GB_LB_1.xlsx
452	main_unc	True	0.0	993	0	7.0	7.0	1.0	1	right	1.0	1.0	1.0	1	0.0513511595875	blockFiles/set_24/main_unc/leftBlue\GB_LB_1.xlsx
453	main_unc	True	0.0	993	0	7.0	7.0	0.0	0	left	2.0	0.0	0.0	1	0.00986628005281	blockFiles/set_24/main_unc/leftBlue\GB_LB_1.xlsx
454	main_unc	True	0.0	993	0	7.0	7.0	0.0	1	left	2.0	1.0	1.0	0	-0.055387405958	blockFiles/set_24/main_unc/leftBlue\GB_LB_1.xlsx
455	main_unc	True	0.0	993	0	7.0	7.0	0.0	1	left	2.0	0.0	1.0	0	-0.0618666014448	blockFiles/set_24/main_unc/leftBlue\GB_LB_1.xlsx
456	main_unc	True	0.0	993	0	7.0	7.0	0.0	1	left	2.0	1.0	1.0	0	-0.026403582096099998	blockFiles/set_24/main_unc/leftBlue\GB_LB_1.xlsx
457	main_unc	True	0.0	993	0	7.0	7.0	0.0	1	left	2.0	1.0	1.0	0	-0.0365436359867	blockFiles/set_24/main_unc/leftBlue\GB_LB_1.xlsx
458	main_unc	True	0.0	993	0	7.0	7.0	1.0	1	right	1.0	1.0	1.0	1	0.0461629146896	blockFiles/set_24/main_unc/leftBlue\GB_LB_1.xlsx
459	main_unc	True	0.0	993	0	7.0	7.0	0.0	1	left	2.0	1.0	1.0	0	-0.05267790608109999	blockFiles/set_24/main_unc/leftBlue\GB_LB_1.xlsx
460	main_unc	True	0.0	993	0	7.0	7.0	0.0	1	left	1.0	0.0	0.0	0	-0.07796052917839999	blockFiles/set_24/main_unc/leftBlue\GB_LB_1.xlsx
461	main_unc	True	0.0	993	0	7.0	7.0	0.0	1	left	2.0	0.0	1.0	0	-0.0216577408649	blockFiles/set_24/main_unc/leftBlue\GB_LB_1.xlsx
462	main_unc	True	0.0	993	0	7.0	7.0	1.0	1	right	1.0	1.0	1.0	1	0.076488567926	blockFiles/set_24/main_unc/leftBlue\GB_LB_1.xlsx
463	main_unc	True	0.0	993	0	8.0	8.0	0.0	1	left	1.0	1.0	1.0	0	-0.0747351686098	blockFiles/set_24/main_unc/rightBlue\GB_RB_5.xlsx
464	main_unc	True	0.0	993	0	8.0	8.0	1.0	1	right	2.0	0.0	1.0	1	0.0735457794927	blockFiles/set_24/main_unc/rightBlue\GB_RB_5.xlsx
465	main_unc	True	0.0	993	0	8.0	8.0	1.0	1	right	2.0	1.0	1.0	1	0.056532502137099996	blockFiles/set_24/main_unc/rightBlue\GB_RB_5.xlsx
466	main_unc	True	0.0	993	0	8.0	8.0	1.0	0	right	2.0	0.0	0.0	0	-0.0164412635379	blockFiles/set_24/main_unc/rightBlue\GB_RB_5.xlsx
467	main_unc	True	0.0	993	0	8.0	8.0	0.0	0	left	1.0	0.0	0.0	1	0.00045403936877800005	blockFiles/set_24/main_unc/rightBlue\GB_RB_5.xlsx
468	main_unc	True	0.0	993	0	8.0	8.0	1.0	1	right	2.0	1.0	1.0	1	0.039399946425099995	blockFiles/set_24/main_unc/rightBlue\GB_RB_5.xlsx
469	main_unc	True	0.0	993	0	8.0	8.0	1.0	1	right	2.0	1.0	1.0	1	0.030997868441	blockFiles/set_24/main_unc/rightBlue\GB_RB_5.xlsx
470	main_unc	True	0.0	993	0	8.0	8.0	0.0	1	left	1.0	0.0	1.0	0	-0.0331448212825	blockFiles/set_24/main_unc/rightBlue\GB_RB_5.xlsx
471	main_unc	True	0.0	993	0	8.0	8.0	1.0	1	right	2.0	1.0	1.0	1	0.03815912367780001	blockFiles/set_24/main_unc/rightBlue\GB_RB_5.xlsx
472	main_unc	True	0.0	993	0	8.0	8.0	0.0	1	left	1.0	1.0	1.0	0	-0.0480885644071	blockFiles/set_24/main_unc/rightBlue\GB_RB_5.xlsx
473	main_unc	True	0.0	993	0	8.0	8.0	1.0	1	right	2.0	0.0	1.0	1	0.040321090612599995	blockFiles/set_24/main_unc/rightBlue\GB_RB_5.xlsx
474	main_unc	True	1.0	993	0	8.0	8.0	0.0	1	left	n/a	0.0	n/a	0	-0.07693997124210002	blockFiles/set_24/main_unc/rightBlue\GB_RB_5.xlsx
475	main_unc	True	0.0	993	0	8.0	8.0	1.0	1	right	2.0	1.0	1.0	1	0.0641471215896	blockFiles/set_24/main_unc/rightBlue\GB_RB_5.xlsx
476	main_unc	True	0.0	993	0	8.0	8.0	0.0	1	left	1.0	1.0	1.0	0	-0.000320862755179	blockFiles/set_24/main_unc/rightBlue\GB_RB_5.xlsx
477	main_unc	True	0.0	993	0	8.0	8.0	0.0	1	left	1.0	0.0	1.0	0	-0.0661177895963	blockFiles/set_24/main_unc/rightBlue\GB_RB_5.xlsx
478	main_unc	True	1.0	993	0	8.0	8.0	1.0	1	right	n/a	0.0	n/a	1	0.047551387287699996	blockFiles/set_24/main_unc/rightBlue\GB_RB_5.xlsx
479	main_unc	True	1.0	993	0	8.0	8.0	n/a	0	None	n/a	0.0	n/a	1	0.010458339788	blockFiles/set_24/main_unc/rightBlue\GB_RB_5.xlsx
480	main_unc	True	0.0	993	0	8.0	8.0	0.0	1	left	2.0	0.0	0.0	0	-0.07818823993210001	blockFiles/set_24/main_unc/rightBlue\GB_RB_5.xlsx
481	main_unc	True	0.0	993	0	8.0	8.0	0.0	1	left	1.0	1.0	1.0	0	-0.0084557116963	blockFiles/set_24/main_unc/rightBlue\GB_RB_5.xlsx
482	main_unc	True	0.0	993	0	8.0	8.0	0.0	1	left	1.0	1.0	1.0	0	-0.0551791206002	blockFiles/set_24/main_unc/rightBlue\GB_RB_5.xlsx
483	main_unc	True	0.0	993	0	8.0	8.0	0.0	1	left	1.0	1.0	1.0	0	-0.0213706958853	blockFiles/set_24/main_unc/rightBlue\GB_RB_5.xlsx
484	main_unc	True	0.0	993	0	8.0	8.0	0.0	1	left	1.0	1.0	1.0	0	-0.0761809158698	blockFiles/set_24/main_unc/rightBlue\GB_RB_5.xlsx
485	main_unc	True	0.0	993	0	8.0	8.0	1.0	1	right	2.0	1.0	1.0	1	0.053812681287500004	blockFiles/set_24/main_unc/rightBlue\GB_RB_5.xlsx
486	main_unc	True	0.0	993	0	8.0	8.0	0.0	0	left	1.0	0.0	0.0	1	0.0245994194597	blockFiles/set_24/main_unc/rightBlue\GB_RB_5.xlsx
487	main_unc	True	0.0	993	0	8.0	8.0	1.0	1	right	2.0	0.0	1.0	1	0.032207479495599996	blockFiles/set_24/main_unc/rightBlue\GB_RB_5.xlsx
488	main_unc	True	0.0	993	0	8.0	8.0	0.0	1	left	n/a	0.0	n/a	0	-0.07693997124210002	blockFiles/set_24/main_unc/rightBlue\GB_RB_5.xlsx
489	main_unc	True	0.0	993	0	8.0	8.0	0.0	1	left	1.0	1.0	1.0	0	-0.07693997124210002	blockFiles/set_24/main_unc/rightBlue\GB_RB_5.xlsx
490	main_unc	True	0.0	993	0	8.0	8.0	1.0	1	right	2.0	1.0	1.0	1	0.047551387287699996	blockFiles/set_24/main_unc/rightBlue\GB_RB_5.xlsx
491	main_unc	True	0.0	993	0	8.0	8.0	0.0	0	left	2.0	1.0	1.0	1	0.010458339788	blockFiles/set_24/main_unc/rightBlue\GB_RB_5.xlsx
492	main_unc	True	1.0	993	0	9.0	9.0	0.0	1	left	n/a	0.0	n/a	0	-0.056221328266	blockFiles/set_24/main_unc/rightBlue\GB_RB_3.xlsx
493	main_unc	True	0.0	993	0	9.0	9.0	0.0	1	left	2.0	0.0	0.0	0	-0.0211550085433	blockFiles/set_24/main_unc/rightBlue\GB_RB_3.xlsx
494	main_unc	True	0.0	993	0	9.0	9.0	0.0	1	left	1.0	1.0	1.0	0	-0.029112524911799997	blockFiles/set_24/main_unc/rightBlue\GB_RB_3.xlsx
495	main_unc	True	0.0	993	0	9.0	9.0	0.0	1	left	1.0	0.0	1.0	0	-0.00354621980339	blockFiles/set_24/main_unc/rightBlue\GB_RB_3.xlsx
496	main_unc	True	0.0	993	0	9.0	9.0	1.0	1	right	2.0	1.0	1.0	1	0.04392184207219999	blockFiles/set_24/main_unc/rightBlue\GB_RB_3.xlsx
497	main_unc	True	0.0	993	0	9.0	9.0	0.0	0	left	2.0	1.0	1.0	1	0.034014308974099995	blockFiles/set_24/main_unc/rightBlue\GB_RB_3.xlsx
498	main_unc	True	0.0	993	0	9.0	9.0	1.0	1	right	1.0	0.0	0.0	1	0.0708732866868	blockFiles/set_24/main_unc/rightBlue\GB_RB_3.xlsx
499	main_unc	True	0.0	993	0	9.0	9.0	0.0	0	left	2.0	1.0	1.0	1	0.000940173007548	blockFiles/set_24/main_unc/rightBlue\GB_RB_3.xlsx
500	main_unc	True	0.0	993	0	9.0	9.0	0.0	1	left	2.0	0.0	0.0	0	-0.0785512320884	blockFiles/set_24/main_unc/rightBlue\GB_RB_3.xlsx
501	main_unc	True	0.0	993	0	9.0	9.0	0.0	1	left	2.0	0.0	0.0	0	-0.0270096319355	blockFiles/set_24/main_unc/rightBlue\GB_RB_3.xlsx
502	main_unc	True	0.0	993	0	9.0	9.0	0.0	0	left	1.0	0.0	0.0	1	0.0280090353265	blockFiles/set_24/main_unc/rightBlue\GB_RB_3.xlsx
503	main_unc	True	0.0	993	0	9.0	9.0	0.0	1	left	2.0	0.0	0.0	0	-0.0107767751627	blockFiles/set_24/main_unc/rightBlue\GB_RB_3.xlsx
504	main_unc	True	0.0	993	0	9.0	9.0	0.0	1	left	1.0	1.0	1.0	0	-0.06680570553989999	blockFiles/set_24/main_unc/rightBlue\GB_RB_3.xlsx
505	main_unc	True	0.0	993	0	9.0	9.0	1.0	1	right	2.0	0.0	1.0	1	0.0405953034014	blockFiles/set_24/main_unc/rightBlue\GB_RB_3.xlsx
506	main_unc	True	0.0	993	0	9.0	9.0	0.0	1	left	2.0	0.0	0.0	0	-0.0780626251921	blockFiles/set_24/main_unc/rightBlue\GB_RB_3.xlsx
507	main_unc	True	0.0	993	0	9.0	9.0	1.0	1	right	1.0	0.0	0.0	1	0.012593547813600002	blockFiles/set_24/main_unc/rightBlue\GB_RB_3.xlsx
508	main_unc	True	0.0	993	0	9.0	9.0	0.0	1	left	2.0	1.0	0.0	0	-0.014121670890600001	blockFiles/set_24/main_unc/rightBlue\GB_RB_3.xlsx
509	main_unc	True	0.0	993	0	9.0	9.0	1.0	1	right	1.0	0.0	0.0	1	0.0411925713904	blockFiles/set_24/main_unc/rightBlue\GB_RB_3.xlsx
510	main_unc	True	0.0	993	0	9.0	9.0	0.0	1	left	2.0	0.0	0.0	0	-0.021977104358399998	blockFiles/set_24/main_unc/rightBlue\GB_RB_3.xlsx
511	main_unc	True	0.0	993	0	9.0	9.0	0.0	1	left	1.0	1.0	1.0	0	-0.0316109577753	blockFiles/set_24/main_unc/rightBlue\GB_RB_3.xlsx
512	main_unc	True	0.0	993	0	9.0	9.0	0.0	1	left	1.0	1.0	1.0	0	-0.0791951139271	blockFiles/set_24/main_unc/rightBlue\GB_RB_3.xlsx
513	main_unc	True	0.0	993	0	9.0	9.0	1.0	1	right	2.0	1.0	1.0	1	0.0486643475294	blockFiles/set_24/main_unc/rightBlue\GB_RB_3.xlsx
514	main_unc	True	0.0	993	0	9.0	9.0	1.0	1	right	2.0	0.0	1.0	1	0.0574441922456	blockFiles/set_24/main_unc/rightBlue\GB_RB_3.xlsx
515	main_unc	True	0.0	993	0	9.0	9.0	0.0	0	left	1.0	1.0	0.0	1	0.00209489177912	blockFiles/set_24/main_unc/rightBlue\GB_RB_3.xlsx
516	main_unc	True	0.0	993	0	9.0	9.0	0.0	1	left	1.0	1.0	1.0	0	-0.00948660390452	blockFiles/set_24/main_unc/rightBlue\GB_RB_3.xlsx
517	main_unc	True	0.0	993	0	9.0	9.0	0.0	1	left	1.0	1.0	1.0	0	-0.056221328266	blockFiles/set_24/main_unc/rightBlue\GB_RB_3.xlsx
518	main_unc	True	1.0	993	0	10.0	10.0	n/a	0	None	n/a	0.0	n/a	1	0.0571342416108	blockFiles/set_24/main_unc/leftBlue\GB_LB_4.xlsx
519	main_unc	True	0.0	993	0	10.0	10.0	0.0	1	left	1.0	0.0	0.0	0	-0.06121342368419999	blockFiles/set_24/main_unc/leftBlue\GB_LB_4.xlsx
520	main_unc	True	0.0	993	0	10.0	10.0	1.0	1	right	1.0	1.0	1.0	1	0.0510174303316	blockFiles/set_24/main_unc/leftBlue\GB_LB_4.xlsx
521	main_unc	True	0.0	993	0	10.0	10.0	0.0	0	left	2.0	0.0	0.0	1	0.00103347478434	blockFiles/set_24/main_unc/leftBlue\GB_LB_4.xlsx
522	main_unc	True	0.0	993	0	10.0	10.0	0.0	0	left	2.0	0.0	0.0	1	0.021095125246799996	blockFiles/set_24/main_unc/leftBlue\GB_LB_4.xlsx
523	main_unc	True	0.0	993	0	10.0	10.0	1.0	1	right	1.0	0.0	1.0	1	0.045947393439699995	blockFiles/set_24/main_unc/leftBlue\GB_LB_4.xlsx
524	main_unc	True	0.0	993	0	10.0	10.0	1.0	1	right	2.0	0.0	0.0	1	0.0516842113435	blockFiles/set_24/main_unc/leftBlue\GB_LB_4.xlsx
525	main_unc	True	0.0	993	0	10.0	10.0	1.0	1	right	1.0	1.0	1.0	1	0.0661193708517	blockFiles/set_24/main_unc/leftBlue\GB_LB_4.xlsx
526	main_unc	True	0.0	993	0	10.0	10.0	1.0	1	right	1.0	1.0	1.0	1	0.06586574409160001	blockFiles/set_24/main_unc/leftBlue\GB_LB_4.xlsx
527	main_unc	True	0.0	993	0	10.0	10.0	0.0	0	left	2.0	1.0	0.0	1	0.016109196879	blockFiles/set_24/main_unc/leftBlue\GB_LB_4.xlsx
528	main_unc	True	0.0	993	0	10.0	10.0	0.0	1	left	2.0	1.0	1.0	0	-0.0291045061499	blockFiles/set_24/main_unc/leftBlue\GB_LB_4.xlsx
529	main_unc	True	0.0	993	0	10.0	10.0	0.0	1	left	2.0	1.0	1.0	0	-0.051756021343199995	blockFiles/set_24/main_unc/leftBlue\GB_LB_4.xlsx
530	main_unc	True	0.0	993	0	10.0	10.0	1.0	1	right	1.0	1.0	1.0	1	0.0339783816598	blockFiles/set_24/main_unc/leftBlue\GB_LB_4.xlsx
531	main_unc	True	0.0	993	0	10.0	10.0	0.0	1	left	2.0	1.0	1.0	0	-0.010536920726299998	blockFiles/set_24/main_unc/leftBlue\GB_LB_4.xlsx
532	main_unc	True	0.0	993	0	10.0	10.0	0.0	1	left	2.0	0.0	1.0	0	-0.050514711216099996	blockFiles/set_24/main_unc/leftBlue\GB_LB_4.xlsx
533	main_unc	True	0.0	993	0	10.0	10.0	0.0	0	left	2.0	0.0	0.0	1	0.0122210611962	blockFiles/set_24/main_unc/leftBlue\GB_LB_4.xlsx
534	main_unc	True	0.0	993	0	10.0	10.0	0.0	1	left	2.0	1.0	1.0	0	-0.0668784462847	blockFiles/set_24/main_unc/leftBlue\GB_LB_4.xlsx
535	main_unc	True	0.0	993	0	10.0	10.0	0.0	1	left	2.0	1.0	1.0	0	-0.0577998117544	blockFiles/set_24/main_unc/leftBlue\GB_LB_4.xlsx
536	main_unc	True	0.0	993	0	10.0	10.0	1.0	1	right	1.0	1.0	1.0	1	0.0707572279312	blockFiles/set_24/main_unc/leftBlue\GB_LB_4.xlsx
537	main_unc	True	0.0	993	0	10.0	10.0	0.0	1	left	2.0	1.0	1.0	0	-0.0385890476033	blockFiles/set_24/main_unc/leftBlue\GB_LB_4.xlsx
538	main_unc	True	0.0	993	0	10.0	10.0	0.0	1	left	2.0	1.0	1.0	0	-0.00758420767263	blockFiles/set_24/main_unc/leftBlue\GB_LB_4.xlsx
539	main_unc	True	0.0	993	0	10.0	10.0	1.0	1	right	1.0	0.0	1.0	1	0.0396183225699	blockFiles/set_24/main_unc/leftBlue\GB_LB_4.xlsx
540	main_unc	True	0.0	993	0	10.0	10.0	0.0	1	left	2.0	1.0	1.0	0	-0.00311816532165	blockFiles/set_24/main_unc/leftBlue\GB_LB_4.xlsx
541	main_unc	True	0.0	993	0	10.0	10.0	0.0	1	left	2.0	1.0	1.0	0	-0.059988704323800005	blockFiles/set_24/main_unc/leftBlue\GB_LB_4.xlsx
542	main_unc	True	0.0	993	0	10.0	10.0	1.0	1	right	1.0	0.0	1.0	1	0.058464607056200005	blockFiles/set_24/main_unc/leftBlue\GB_LB_4.xlsx
543	main_unc	True	0.0	993	0	10.0	10.0	1.0	1	right	1.0	1.0	1.0	1	0.0571342416108	blockFiles/set_24/main_unc/leftBlue\GB_LB_4.xlsx
544	main_unc	True	0.0	993	0	11.0	11.0	0.0	1	left	1.0	1.0	1.0	0	-0.0295570697077	blockFiles/set_24/main_unc/rightBlue\GB_RB_6.xlsx
545	main_unc	True	0.0	993	0	11.0	11.0	0.0	1	left	1.0	1.0	1.0	0	-0.0653361147083	blockFiles/set_24/main_unc/rightBlue\GB_RB_6.xlsx
546	main_unc	True	0.0	993	0	11.0	11.0	0.0	1	left	1.0	0.0	1.0	0	-0.0758450381458	blockFiles/set_24/main_unc/rightBlue\GB_RB_6.xlsx
547	main_unc	True	0.0	993	0	11.0	11.0	1.0	1	right	2.0	1.0	1.0	1	0.036680834014	blockFiles/set_24/main_unc/rightBlue\GB_RB_6.xlsx
548	main_unc	True	0.0	993	0	11.0	11.0	1.0	1	right	2.0	1.0	1.0	1	0.059771135467999996	blockFiles/set_24/main_unc/rightBlue\GB_RB_6.xlsx
549	main_unc	True	0.0	993	0	11.0	11.0	0.0	1	left	1.0	0.0	1.0	0	-0.01232106084	blockFiles/set_24/main_unc/rightBlue\GB_RB_6.xlsx
550	main_unc	True	0.0	993	0	11.0	11.0	0.0	0	left	1.0	1.0	0.0	1	0.015227875634999999	blockFiles/set_24/main_unc/rightBlue\GB_RB_6.xlsx
551	main_unc	True	0.0	993	0	11.0	11.0	1.0	1	right	2.0	1.0	1.0	1	0.031871599312900005	blockFiles/set_24/main_unc/rightBlue\GB_RB_6.xlsx
552	main_unc	True	0.0	993	0	11.0	11.0	1.0	1	right	2.0	0.0	1.0	1	0.07868153940889999	blockFiles/set_24/main_unc/rightBlue\GB_RB_6.xlsx
553	main_unc	True	0.0	993	0	11.0	11.0	1.0	1	right	2.0	1.0	1.0	1	0.019927455727	blockFiles/set_24/main_unc/rightBlue\GB_RB_6.xlsx
554	main_unc	True	0.0	993	0	11.0	11.0	1.0	1	right	2.0	1.0	1.0	1	0.0764059661888	blockFiles/set_24/main_unc/rightBlue\GB_RB_6.xlsx
555	main_unc	True	0.0	993	0	11.0	11.0	1.0	1	right	2.0	1.0	1.0	1	0.0168233336695	blockFiles/set_24/main_unc/rightBlue\GB_RB_6.xlsx
556	main_unc	True	0.0	993	0	11.0	11.0	1.0	1	right	2.0	1.0	1.0	1	0.0738088455983	blockFiles/set_24/main_unc/rightBlue\GB_RB_6.xlsx
557	main_unc	True	0.0	993	0	11.0	11.0	0.0	0	left	1.0	1.0	0.0	1	0.007463306728750001	blockFiles/set_24/main_unc/rightBlue\GB_RB_6.xlsx
558	main_unc	True	0.0	993	0	11.0	11.0	1.0	1	right	2.0	1.0	1.0	1	0.059611299336	blockFiles/set_24/main_unc/rightBlue\GB_RB_6.xlsx
559	main_unc	True	0.0	993	0	11.0	11.0	0.0	1	left	1.0	1.0	1.0	0	-0.0353905966319	blockFiles/set_24/main_unc/rightBlue\GB_RB_6.xlsx
560	main_unc	True	0.0	993	0	11.0	11.0	0.0	1	left	1.0	0.0	1.0	0	-0.013889973387100001	blockFiles/set_24/main_unc/rightBlue\GB_RB_6.xlsx
561	main_unc	True	0.0	993	0	11.0	11.0	0.0	1	left	1.0	1.0	1.0	0	-0.053235861547300006	blockFiles/set_24/main_unc/rightBlue\GB_RB_6.xlsx
562	main_unc	True	0.0	993	0	11.0	11.0	0.0	1	left	1.0	1.0	1.0	0	-0.033603348117299994	blockFiles/set_24/main_unc/rightBlue\GB_RB_6.xlsx
563	main_unc	True	0.0	993	0	11.0	11.0	0.0	1	left	1.0	1.0	1.0	0	-0.042848561909	blockFiles/set_24/main_unc/rightBlue\GB_RB_6.xlsx
564	main_unc	True	0.0	993	0	11.0	11.0	0.0	1	left	1.0	1.0	1.0	0	-0.05572264079	blockFiles/set_24/main_unc/rightBlue\GB_RB_6.xlsx
565	main_unc	True	0.0	993	0	11.0	11.0	0.0	1	left	1.0	1.0	1.0	0	-0.0622417221777	blockFiles/set_24/main_unc/rightBlue\GB_RB_6.xlsx
566	main_unc	True	0.0	993	0	11.0	11.0	0.0	0	left	1.0	0.0	0.0	1	0.0238986869529	blockFiles/set_24/main_unc/rightBlue\GB_RB_6.xlsx
567	main_unc	True	0.0	993	0	11.0	11.0	0.0	1	left	1.0	1.0	1.0	0	-0.0598473800346	blockFiles/set_24/main_unc/rightBlue\GB_RB_6.xlsx
568	main_unc	True	0.0	993	0	11.0	11.0	0.0	0	left	1.0	0.0	0.0	1	0.00112632198259	blockFiles/set_24/main_unc/rightBlue\GB_RB_6.xlsx
