	trial_type	complete	missIndex	participant	id	blockNumber	b_t	d_t	decision1.corr	decision1.keys	a_t	r_t	decision2.corr	s_t	u_t	block_file
0	main_safe	True	1.0	347	0	0.0	0.0	0.0	1	left	n/a	0.0	n/a	0	-0.08	blockFiles/set_35/main_safe/rightBlue\GB_RB_1.xlsx
1	main_safe	True	0.0	347	0	0.0	0.0	0.0	1	left	1.0	1.0	1.0	0	-0.08	blockFiles/set_35/main_safe/rightBlue\GB_RB_1.xlsx
2	main_safe	True	0.0	347	0	0.0	0.0	1.0	1	right	2.0	1.0	1.0	1	0.08	blockFiles/set_35/main_safe/rightBlue\GB_RB_1.xlsx
3	main_safe	True	0.0	347	0	0.0	0.0	0.0	1	left	1.0	1.0	1.0	0	-0.08	blockFiles/set_35/main_safe/rightBlue\GB_RB_1.xlsx
4	main_safe	True	0.0	347	0	0.0	0.0	0.0	1	left	1.0	1.0	1.0	0	-0.08	blockFiles/set_35/main_safe/rightBlue\GB_RB_1.xlsx
5	main_safe	True	0.0	347	0	0.0	0.0	0.0	1	left	1.0	1.0	1.0	0	-0.08	blockFiles/set_35/main_safe/rightBlue\GB_RB_1.xlsx
6	main_safe	True	0.0	347	0	0.0	0.0	1.0	1	right	2.0	0.0	1.0	1	0.08	blockFiles/set_35/main_safe/rightBlue\GB_RB_1.xlsx
7	main_safe	True	0.0	347	0	0.0	0.0	1.0	1	right	2.0	1.0	1.0	1	0.08	blockFiles/set_35/main_safe/rightBlue\GB_RB_1.xlsx
8	main_safe	True	0.0	347	0	0.0	0.0	1.0	1	right	2.0	1.0	1.0	1	0.08	blockFiles/set_35/main_safe/rightBlue\GB_RB_1.xlsx
9	main_safe	True	0.0	347	0	0.0	0.0	0.0	1	left	1.0	1.0	1.0	0	-0.08	blockFiles/set_35/main_safe/rightBlue\GB_RB_1.xlsx
10	main_safe	True	0.0	347	0	0.0	0.0	1.0	1	right	2.0	1.0	1.0	1	0.08	blockFiles/set_35/main_safe/rightBlue\GB_RB_1.xlsx
11	main_safe	True	0.0	347	0	0.0	0.0	0.0	1	left	1.0	1.0	1.0	0	-0.08	blockFiles/set_35/main_safe/rightBlue\GB_RB_1.xlsx
12	main_safe	True	0.0	347	0	0.0	0.0	0.0	1	left	1.0	1.0	1.0	0	-0.08	blockFiles/set_35/main_safe/rightBlue\GB_RB_1.xlsx
13	main_safe	True	0.0	347	0	0.0	0.0	1.0	1	right	2.0	0.0	1.0	1	0.08	blockFiles/set_35/main_safe/rightBlue\GB_RB_1.xlsx
14	main_safe	True	0.0	347	0	0.0	0.0	1.0	1	right	2.0	1.0	1.0	1	0.08	blockFiles/set_35/main_safe/rightBlue\GB_RB_1.xlsx
15	main_safe	True	0.0	347	0	0.0	0.0	1.0	1	right	2.0	0.0	1.0	1	0.08	blockFiles/set_35/main_safe/rightBlue\GB_RB_1.xlsx
16	main_safe	True	0.0	347	0	0.0	0.0	1.0	1	right	2.0	1.0	1.0	1	0.08	blockFiles/set_35/main_safe/rightBlue\GB_RB_1.xlsx
17	main_safe	True	0.0	347	0	0.0	0.0	0.0	1	left	1.0	1.0	1.0	0	-0.08	blockFiles/set_35/main_safe/rightBlue\GB_RB_1.xlsx
18	main_safe	True	0.0	347	0	0.0	0.0	0.0	1	left	1.0	1.0	1.0	0	-0.08	blockFiles/set_35/main_safe/rightBlue\GB_RB_1.xlsx
19	main_safe	True	0.0	347	0	0.0	0.0	0.0	1	left	1.0	0.0	1.0	0	-0.08	blockFiles/set_35/main_safe/rightBlue\GB_RB_1.xlsx
20	main_safe	True	0.0	347	0	0.0	0.0	1.0	1	right	2.0	0.0	1.0	1	0.08	blockFiles/set_35/main_safe/rightBlue\GB_RB_1.xlsx
21	main_safe	True	0.0	347	0	0.0	0.0	1.0	1	right	2.0	1.0	1.0	1	0.08	blockFiles/set_35/main_safe/rightBlue\GB_RB_1.xlsx
22	main_safe	True	0.0	347	0	0.0	0.0	0.0	1	left	1.0	1.0	1.0	0	-0.08	blockFiles/set_35/main_safe/rightBlue\GB_RB_1.xlsx
23	main_safe	True	0.0	347	0	0.0	0.0	1.0	1	right	2.0	0.0	1.0	1	0.08	blockFiles/set_35/main_safe/rightBlue\GB_RB_1.xlsx
24	main_safe	True	0.0	347	0	0.0	0.0	0.0	1	left	1.0	1.0	1.0	0	-0.08	blockFiles/set_35/main_safe/rightBlue\GB_RB_1.xlsx
25	main_safe	True	0.0	347	0	0.0	0.0	0.0	1	left	1.0	1.0	1.0	0	-0.08	blockFiles/set_35/main_safe/rightBlue\GB_RB_1.xlsx
26	main_safe	True	0.0	347	0	1.0	1.0	1.0	1	right	1.0	1.0	1.0	1	0.08	blockFiles/set_35/main_safe/leftBlue\GB_LB_1.xlsx
27	main_safe	True	0.0	347	0	1.0	1.0	1.0	1	right	1.0	0.0	1.0	1	0.08	blockFiles/set_35/main_safe/leftBlue\GB_LB_1.xlsx
28	main_safe	True	0.0	347	0	1.0	1.0	1.0	1	right	1.0	1.0	1.0	1	0.08	blockFiles/set_35/main_safe/leftBlue\GB_LB_1.xlsx
29	main_safe	True	0.0	347	0	1.0	1.0	1.0	1	right	1.0	1.0	1.0	1	0.08	blockFiles/set_35/main_safe/leftBlue\GB_LB_1.xlsx
30	main_safe	True	0.0	347	0	1.0	1.0	1.0	1	right	1.0	1.0	1.0	1	0.08	blockFiles/set_35/main_safe/leftBlue\GB_LB_1.xlsx
31	main_safe	True	0.0	347	0	1.0	1.0	1.0	1	right	1.0	1.0	1.0	1	0.08	blockFiles/set_35/main_safe/leftBlue\GB_LB_1.xlsx
32	main_safe	True	0.0	347	0	1.0	1.0	0.0	1	left	2.0	1.0	1.0	0	-0.08	blockFiles/set_35/main_safe/leftBlue\GB_LB_1.xlsx
33	main_safe	True	0.0	347	0	1.0	1.0	0.0	1	left	2.0	1.0	1.0	0	-0.08	blockFiles/set_35/main_safe/leftBlue\GB_LB_1.xlsx
34	main_safe	True	0.0	347	0	1.0	1.0	1.0	1	right	1.0	1.0	1.0	1	0.08	blockFiles/set_35/main_safe/leftBlue\GB_LB_1.xlsx
35	main_safe	True	0.0	347	0	1.0	1.0	1.0	1	right	1.0	1.0	1.0	1	0.08	blockFiles/set_35/main_safe/leftBlue\GB_LB_1.xlsx
36	main_safe	True	0.0	347	0	1.0	1.0	0.0	1	left	2.0	1.0	1.0	0	-0.08	blockFiles/set_35/main_safe/leftBlue\GB_LB_1.xlsx
37	main_safe	True	1.0	347	0	1.0	1.0	0.0	1	left	n/a	0.0	n/a	0	-0.08	blockFiles/set_35/main_safe/leftBlue\GB_LB_1.xlsx
38	main_safe	True	0.0	347	0	1.0	1.0	1.0	1	right	1.0	1.0	1.0	1	0.08	blockFiles/set_35/main_safe/leftBlue\GB_LB_1.xlsx
39	main_safe	True	0.0	347	0	1.0	1.0	1.0	1	right	1.0	1.0	1.0	1	0.08	blockFiles/set_35/main_safe/leftBlue\GB_LB_1.xlsx
40	main_safe	True	0.0	347	0	1.0	1.0	1.0	1	right	1.0	0.0	1.0	1	0.08	blockFiles/set_35/main_safe/leftBlue\GB_LB_1.xlsx
41	main_safe	True	0.0	347	0	1.0	1.0	0.0	1	left	2.0	1.0	1.0	0	-0.08	blockFiles/set_35/main_safe/leftBlue\GB_LB_1.xlsx
42	main_safe	True	0.0	347	0	1.0	1.0	0.0	1	left	2.0	1.0	1.0	0	-0.08	blockFiles/set_35/main_safe/leftBlue\GB_LB_1.xlsx
43	main_safe	True	0.0	347	0	1.0	1.0	0.0	1	left	2.0	1.0	1.0	0	-0.08	blockFiles/set_35/main_safe/leftBlue\GB_LB_1.xlsx
44	main_safe	True	0.0	347	0	1.0	1.0	0.0	1	left	2.0	1.0	1.0	0	-0.08	blockFiles/set_35/main_safe/leftBlue\GB_LB_1.xlsx
45	main_safe	True	0.0	347	0	1.0	1.0	0.0	1	left	2.0	1.0	1.0	0	-0.08	blockFiles/set_35/main_safe/leftBlue\GB_LB_1.xlsx
46	main_safe	True	0.0	347	0	1.0	1.0	0.0	1	left	2.0	1.0	1.0	0	-0.08	blockFiles/set_35/main_safe/leftBlue\GB_LB_1.xlsx
47	main_safe	True	0.0	347	0	1.0	1.0	0.0	1	left	2.0	0.0	1.0	0	-0.08	blockFiles/set_35/main_safe/leftBlue\GB_LB_1.xlsx
48	main_safe	True	0.0	347	0	1.0	1.0	1.0	1	right	1.0	1.0	1.0	1	0.08	blockFiles/set_35/main_safe/leftBlue\GB_LB_1.xlsx
49	main_safe	True	0.0	347	0	1.0	1.0	1.0	1	right	1.0	1.0	1.0	1	0.08	blockFiles/set_35/main_safe/leftBlue\GB_LB_1.xlsx
50	main_safe	True	0.0	347	0	1.0	1.0	1.0	1	right	1.0	1.0	1.0	1	0.08	blockFiles/set_35/main_safe/leftBlue\GB_LB_1.xlsx
51	main_safe	True	0.0	347	0	1.0	1.0	0.0	1	left	2.0	1.0	1.0	0	-0.08	blockFiles/set_35/main_safe/leftBlue\GB_LB_1.xlsx
52	main_safe	True	0.0	347	0	2.0	2.0	0.0	1	left	2.0	1.0	1.0	0	-0.08	blockFiles/set_35/main_safe/leftBlue\GB_LB_2.xlsx
53	main_safe	True	0.0	347	0	2.0	2.0	0.0	1	left	2.0	0.0	1.0	0	-0.08	blockFiles/set_35/main_safe/leftBlue\GB_LB_2.xlsx
54	main_safe	True	0.0	347	0	2.0	2.0	0.0	1	left	2.0	0.0	1.0	0	-0.08	blockFiles/set_35/main_safe/leftBlue\GB_LB_2.xlsx
55	main_safe	True	0.0	347	0	2.0	2.0	1.0	1	right	1.0	1.0	1.0	1	0.08	blockFiles/set_35/main_safe/leftBlue\GB_LB_2.xlsx
56	main_safe	True	0.0	347	0	2.0	2.0	0.0	1	left	2.0	1.0	1.0	0	-0.08	blockFiles/set_35/main_safe/leftBlue\GB_LB_2.xlsx
57	main_safe	True	0.0	347	0	2.0	2.0	1.0	1	right	1.0	1.0	1.0	1	0.08	blockFiles/set_35/main_safe/leftBlue\GB_LB_2.xlsx
58	main_safe	True	0.0	347	0	2.0	2.0	1.0	1	right	1.0	1.0	1.0	1	0.08	blockFiles/set_35/main_safe/leftBlue\GB_LB_2.xlsx
59	main_safe	True	0.0	347	0	2.0	2.0	1.0	1	right	1.0	1.0	1.0	1	0.08	blockFiles/set_35/main_safe/leftBlue\GB_LB_2.xlsx
60	main_safe	True	0.0	347	0	2.0	2.0	1.0	1	right	1.0	1.0	1.0	1	0.08	blockFiles/set_35/main_safe/leftBlue\GB_LB_2.xlsx
61	main_safe	True	0.0	347	0	2.0	2.0	1.0	1	right	1.0	1.0	1.0	1	0.08	blockFiles/set_35/main_safe/leftBlue\GB_LB_2.xlsx
62	main_safe	True	0.0	347	0	2.0	2.0	1.0	1	right	1.0	0.0	1.0	1	0.08	blockFiles/set_35/main_safe/leftBlue\GB_LB_2.xlsx
63	main_safe	True	0.0	347	0	2.0	2.0	0.0	1	left	2.0	1.0	1.0	0	-0.08	blockFiles/set_35/main_safe/leftBlue\GB_LB_2.xlsx
64	main_safe	True	0.0	347	0	2.0	2.0	0.0	1	left	2.0	1.0	1.0	0	-0.08	blockFiles/set_35/main_safe/leftBlue\GB_LB_2.xlsx
65	main_safe	True	0.0	347	0	2.0	2.0	0.0	1	left	2.0	1.0	1.0	0	-0.08	blockFiles/set_35/main_safe/leftBlue\GB_LB_2.xlsx
66	main_safe	True	0.0	347	0	2.0	2.0	0.0	1	left	2.0	1.0	1.0	0	-0.08	blockFiles/set_35/main_safe/leftBlue\GB_LB_2.xlsx
67	main_safe	True	0.0	347	0	2.0	2.0	1.0	1	right	1.0	0.0	1.0	1	0.08	blockFiles/set_35/main_safe/leftBlue\GB_LB_2.xlsx
68	main_safe	True	0.0	347	0	2.0	2.0	1.0	1	right	1.0	1.0	1.0	1	0.08	blockFiles/set_35/main_safe/leftBlue\GB_LB_2.xlsx
69	main_safe	True	0.0	347	0	2.0	2.0	1.0	1	right	1.0	1.0	1.0	1	0.08	blockFiles/set_35/main_safe/leftBlue\GB_LB_2.xlsx
70	main_safe	True	0.0	347	0	2.0	2.0	1.0	1	right	1.0	0.0	1.0	1	0.08	blockFiles/set_35/main_safe/leftBlue\GB_LB_2.xlsx
71	main_safe	True	0.0	347	0	2.0	2.0	0.0	1	left	2.0	1.0	1.0	0	-0.08	blockFiles/set_35/main_safe/leftBlue\GB_LB_2.xlsx
72	main_safe	True	0.0	347	0	2.0	2.0	1.0	1	right	1.0	1.0	1.0	1	0.08	blockFiles/set_35/main_safe/leftBlue\GB_LB_2.xlsx
73	main_safe	True	0.0	347	0	2.0	2.0	0.0	1	left	2.0	1.0	1.0	0	-0.08	blockFiles/set_35/main_safe/leftBlue\GB_LB_2.xlsx
74	main_safe	True	0.0	347	0	2.0	2.0	1.0	1	right	1.0	1.0	1.0	1	0.08	blockFiles/set_35/main_safe/leftBlue\GB_LB_2.xlsx
75	main_safe	True	0.0	347	0	2.0	2.0	0.0	1	left	2.0	1.0	1.0	0	-0.08	blockFiles/set_35/main_safe/leftBlue\GB_LB_2.xlsx
76	main_safe	True	0.0	347	0	2.0	2.0	0.0	1	left	2.0	0.0	1.0	0	-0.08	blockFiles/set_35/main_safe/leftBlue\GB_LB_2.xlsx
77	main_safe	True	0.0	347	0	3.0	3.0	1.0	1	right	1.0	1.0	1.0	1	0.08	blockFiles/set_35/main_safe/leftBlue\GB_LB_3.xlsx
78	main_safe	True	0.0	347	0	3.0	3.0	0.0	1	left	2.0	1.0	1.0	0	-0.08	blockFiles/set_35/main_safe/leftBlue\GB_LB_3.xlsx
79	main_safe	True	0.0	347	0	3.0	3.0	1.0	1	right	1.0	1.0	1.0	1	0.08	blockFiles/set_35/main_safe/leftBlue\GB_LB_3.xlsx
80	main_safe	True	0.0	347	0	3.0	3.0	0.0	1	left	2.0	0.0	1.0	0	-0.08	blockFiles/set_35/main_safe/leftBlue\GB_LB_3.xlsx
81	main_safe	True	0.0	347	0	3.0	3.0	0.0	1	left	2.0	1.0	1.0	0	-0.08	blockFiles/set_35/main_safe/leftBlue\GB_LB_3.xlsx
82	main_safe	True	0.0	347	0	3.0	3.0	0.0	1	left	2.0	1.0	1.0	0	-0.08	blockFiles/set_35/main_safe/leftBlue\GB_LB_3.xlsx
83	main_safe	True	0.0	347	0	3.0	3.0	1.0	1	right	1.0	1.0	1.0	1	0.08	blockFiles/set_35/main_safe/leftBlue\GB_LB_3.xlsx
84	main_safe	True	0.0	347	0	3.0	3.0	0.0	1	left	2.0	1.0	1.0	0	-0.08	blockFiles/set_35/main_safe/leftBlue\GB_LB_3.xlsx
85	main_safe	True	0.0	347	0	3.0	3.0	1.0	1	right	1.0	0.0	1.0	1	0.08	blockFiles/set_35/main_safe/leftBlue\GB_LB_3.xlsx
86	main_safe	True	0.0	347	0	3.0	3.0	0.0	1	left	2.0	1.0	1.0	0	-0.08	blockFiles/set_35/main_safe/leftBlue\GB_LB_3.xlsx
87	main_safe	True	0.0	347	0	3.0	3.0	0.0	1	left	2.0	0.0	1.0	0	-0.08	blockFiles/set_35/main_safe/leftBlue\GB_LB_3.xlsx
88	main_safe	True	0.0	347	0	3.0	3.0	1.0	1	right	1.0	1.0	1.0	1	0.08	blockFiles/set_35/main_safe/leftBlue\GB_LB_3.xlsx
89	main_safe	True	1.0	347	0	3.0	3.0	1.0	1	right	n/a	0.0	n/a	1	0.08	blockFiles/set_35/main_safe/leftBlue\GB_LB_3.xlsx
90	main_safe	True	0.0	347	0	3.0	3.0	1.0	1	right	1.0	1.0	1.0	1	0.08	blockFiles/set_35/main_safe/leftBlue\GB_LB_3.xlsx
91	main_safe	True	0.0	347	0	3.0	3.0	1.0	1	right	1.0	1.0	1.0	1	0.08	blockFiles/set_35/main_safe/leftBlue\GB_LB_3.xlsx
92	main_safe	True	0.0	347	0	3.0	3.0	1.0	1	right	1.0	1.0	1.0	1	0.08	blockFiles/set_35/main_safe/leftBlue\GB_LB_3.xlsx
93	main_safe	True	0.0	347	0	3.0	3.0	0.0	1	left	2.0	1.0	1.0	0	-0.08	blockFiles/set_35/main_safe/leftBlue\GB_LB_3.xlsx
94	main_safe	True	0.0	347	0	3.0	3.0	0.0	1	left	2.0	1.0	1.0	0	-0.08	blockFiles/set_35/main_safe/leftBlue\GB_LB_3.xlsx
95	main_safe	True	0.0	347	0	3.0	3.0	1.0	1	right	1.0	0.0	1.0	1	0.08	blockFiles/set_35/main_safe/leftBlue\GB_LB_3.xlsx
96	main_safe	True	0.0	347	0	3.0	3.0	1.0	1	right	1.0	1.0	1.0	1	0.08	blockFiles/set_35/main_safe/leftBlue\GB_LB_3.xlsx
97	main_safe	True	0.0	347	0	3.0	3.0	1.0	1	right	1.0	1.0	1.0	1	0.08	blockFiles/set_35/main_safe/leftBlue\GB_LB_3.xlsx
98	main_safe	True	0.0	347	0	3.0	3.0	0.0	1	left	2.0	1.0	1.0	0	-0.08	blockFiles/set_35/main_safe/leftBlue\GB_LB_3.xlsx
99	main_safe	True	0.0	347	0	3.0	3.0	1.0	1	right	1.0	1.0	1.0	1	0.08	blockFiles/set_35/main_safe/leftBlue\GB_LB_3.xlsx
100	main_safe	True	0.0	347	0	3.0	3.0	0.0	1	left	2.0	1.0	1.0	0	-0.08	blockFiles/set_35/main_safe/leftBlue\GB_LB_3.xlsx
101	main_safe	True	0.0	347	0	3.0	3.0	0.0	1	left	2.0	1.0	1.0	0	-0.08	blockFiles/set_35/main_safe/leftBlue\GB_LB_3.xlsx
102	main_safe	True	0.0	347	0	3.0	3.0	1.0	1	right	1.0	1.0	1.0	1	0.08	blockFiles/set_35/main_safe/leftBlue\GB_LB_3.xlsx
103	main_safe	True	0.0	347	0	4.0	4.0	1.0	1	right	2.0	1.0	1.0	1	0.08	blockFiles/set_35/main_safe/rightBlue\GB_RB_2.xlsx
104	main_safe	True	0.0	347	0	4.0	4.0	1.0	1	right	2.0	1.0	1.0	1	0.08	blockFiles/set_35/main_safe/rightBlue\GB_RB_2.xlsx
105	main_safe	True	0.0	347	0	4.0	4.0	0.0	1	left	1.0	1.0	1.0	0	-0.08	blockFiles/set_35/main_safe/rightBlue\GB_RB_2.xlsx
106	main_safe	True	0.0	347	0	4.0	4.0	1.0	1	right	2.0	1.0	1.0	1	0.08	blockFiles/set_35/main_safe/rightBlue\GB_RB_2.xlsx
107	main_safe	True	0.0	347	0	4.0	4.0	0.0	1	left	1.0	1.0	1.0	0	-0.08	blockFiles/set_35/main_safe/rightBlue\GB_RB_2.xlsx
108	main_safe	True	0.0	347	0	4.0	4.0	0.0	1	left	1.0	1.0	1.0	0	-0.08	blockFiles/set_35/main_safe/rightBlue\GB_RB_2.xlsx
109	main_safe	True	0.0	347	0	4.0	4.0	1.0	1	right	2.0	0.0	1.0	1	0.08	blockFiles/set_35/main_safe/rightBlue\GB_RB_2.xlsx
110	main_safe	True	0.0	347	0	4.0	4.0	1.0	1	right	2.0	1.0	1.0	1	0.08	blockFiles/set_35/main_safe/rightBlue\GB_RB_2.xlsx
111	main_safe	True	0.0	347	0	4.0	4.0	1.0	1	right	2.0	1.0	1.0	1	0.08	blockFiles/set_35/main_safe/rightBlue\GB_RB_2.xlsx
112	main_safe	True	0.0	347	0	4.0	4.0	1.0	1	right	2.0	1.0	1.0	1	0.08	blockFiles/set_35/main_safe/rightBlue\GB_RB_2.xlsx
113	main_safe	True	0.0	347	0	4.0	4.0	0.0	1	left	1.0	1.0	1.0	0	-0.08	blockFiles/set_35/main_safe/rightBlue\GB_RB_2.xlsx
114	main_safe	True	0.0	347	0	4.0	4.0	0.0	1	left	1.0	1.0	1.0	0	-0.08	blockFiles/set_35/main_safe/rightBlue\GB_RB_2.xlsx
115	main_safe	True	0.0	347	0	4.0	4.0	1.0	1	right	2.0	1.0	1.0	1	0.08	blockFiles/set_35/main_safe/rightBlue\GB_RB_2.xlsx
116	main_safe	True	0.0	347	0	4.0	4.0	1.0	1	right	2.0	1.0	1.0	1	0.08	blockFiles/set_35/main_safe/rightBlue\GB_RB_2.xlsx
117	main_safe	True	0.0	347	0	4.0	4.0	0.0	1	left	1.0	0.0	1.0	0	-0.08	blockFiles/set_35/main_safe/rightBlue\GB_RB_2.xlsx
118	main_safe	True	0.0	347	0	4.0	4.0	0.0	1	left	1.0	1.0	1.0	0	-0.08	blockFiles/set_35/main_safe/rightBlue\GB_RB_2.xlsx
119	main_safe	True	0.0	347	0	4.0	4.0	1.0	1	right	2.0	1.0	1.0	1	0.08	blockFiles/set_35/main_safe/rightBlue\GB_RB_2.xlsx
120	main_safe	True	0.0	347	0	4.0	4.0	0.0	1	left	1.0	0.0	1.0	0	-0.08	blockFiles/set_35/main_safe/rightBlue\GB_RB_2.xlsx
121	main_safe	True	0.0	347	0	4.0	4.0	0.0	1	left	1.0	1.0	1.0	0	-0.08	blockFiles/set_35/main_safe/rightBlue\GB_RB_2.xlsx
122	main_safe	True	0.0	347	0	4.0	4.0	1.0	1	right	2.0	1.0	1.0	1	0.08	blockFiles/set_35/main_safe/rightBlue\GB_RB_2.xlsx
123	main_safe	True	0.0	347	0	4.0	4.0	1.0	1	right	2.0	1.0	1.0	1	0.08	blockFiles/set_35/main_safe/rightBlue\GB_RB_2.xlsx
124	main_safe	True	0.0	347	0	4.0	4.0	1.0	1	right	2.0	1.0	1.0	1	0.08	blockFiles/set_35/main_safe/rightBlue\GB_RB_2.xlsx
125	main_safe	True	0.0	347	0	4.0	4.0	0.0	1	left	1.0	1.0	1.0	0	-0.08	blockFiles/set_35/main_safe/rightBlue\GB_RB_2.xlsx
126	main_safe	True	0.0	347	0	4.0	4.0	1.0	1	right	2.0	1.0	1.0	1	0.08	blockFiles/set_35/main_safe/rightBlue\GB_RB_2.xlsx
127	main_safe	True	0.0	347	0	4.0	4.0	0.0	1	left	1.0	1.0	1.0	0	-0.08	blockFiles/set_35/main_safe/rightBlue\GB_RB_2.xlsx
128	main_safe	True	0.0	347	0	5.0	5.0	1.0	1	right	1.0	0.0	0.0	1	0.08	blockFiles/set_35/main_safe/rightBlue\GB_RB_3.xlsx
129	main_safe	True	0.0	347	0	5.0	5.0	0.0	1	left	2.0	1.0	0.0	0	-0.08	blockFiles/set_35/main_safe/rightBlue\GB_RB_3.xlsx
130	main_safe	True	0.0	347	0	5.0	5.0	1.0	1	right	1.0	0.0	0.0	1	0.08	blockFiles/set_35/main_safe/rightBlue\GB_RB_3.xlsx
131	main_safe	True	0.0	347	0	5.0	5.0	0.0	1	left	2.0	0.0	0.0	0	-0.08	blockFiles/set_35/main_safe/rightBlue\GB_RB_3.xlsx
132	main_safe	True	0.0	347	0	5.0	5.0	0.0	1	left	1.0	1.0	1.0	0	-0.08	blockFiles/set_35/main_safe/rightBlue\GB_RB_3.xlsx
133	main_safe	True	0.0	347	0	5.0	5.0	1.0	1	right	2.0	1.0	1.0	1	0.08	blockFiles/set_35/main_safe/rightBlue\GB_RB_3.xlsx
134	main_safe	True	0.0	347	0	5.0	5.0	0.0	1	left	1.0	0.0	1.0	0	-0.08	blockFiles/set_35/main_safe/rightBlue\GB_RB_3.xlsx
135	main_safe	True	0.0	347	0	5.0	5.0	0.0	1	left	1.0	1.0	1.0	0	-0.08	blockFiles/set_35/main_safe/rightBlue\GB_RB_3.xlsx
136	main_safe	True	0.0	347	0	5.0	5.0	0.0	1	left	1.0	0.0	1.0	0	-0.08	blockFiles/set_35/main_safe/rightBlue\GB_RB_3.xlsx
137	main_safe	True	0.0	347	0	5.0	5.0	1.0	1	right	2.0	0.0	1.0	1	0.08	blockFiles/set_35/main_safe/rightBlue\GB_RB_3.xlsx
138	main_safe	True	0.0	347	0	5.0	5.0	0.0	1	left	1.0	1.0	1.0	0	-0.08	blockFiles/set_35/main_safe/rightBlue\GB_RB_3.xlsx
139	main_safe	True	0.0	347	0	5.0	5.0	1.0	1	right	2.0	0.0	1.0	1	0.08	blockFiles/set_35/main_safe/rightBlue\GB_RB_3.xlsx
140	main_safe	True	0.0	347	0	5.0	5.0	1.0	1	right	1.0	0.0	0.0	1	0.08	blockFiles/set_35/main_safe/rightBlue\GB_RB_3.xlsx
141	main_safe	True	0.0	347	0	5.0	5.0	1.0	1	right	2.0	1.0	1.0	1	0.08	blockFiles/set_35/main_safe/rightBlue\GB_RB_3.xlsx
142	main_safe	True	0.0	347	0	5.0	5.0	1.0	1	right	2.0	1.0	1.0	1	0.08	blockFiles/set_35/main_safe/rightBlue\GB_RB_3.xlsx
143	main_safe	True	1.0	347	0	5.0	5.0	n/a	0	None	n/a	0.0	n/a	0	-0.08	blockFiles/set_35/main_safe/rightBlue\GB_RB_3.xlsx
144	main_safe	True	0.0	347	0	5.0	5.0	1.0	1	right	2.0	1.0	1.0	1	0.08	blockFiles/set_35/main_safe/rightBlue\GB_RB_3.xlsx
145	main_safe	True	0.0	347	0	5.0	5.0	0.0	1	left	1.0	1.0	1.0	0	-0.08	blockFiles/set_35/main_safe/rightBlue\GB_RB_3.xlsx
146	main_safe	True	0.0	347	0	5.0	5.0	0.0	1	left	1.0	1.0	1.0	0	-0.08	blockFiles/set_35/main_safe/rightBlue\GB_RB_3.xlsx
147	main_safe	True	0.0	347	0	5.0	5.0	1.0	1	right	2.0	1.0	1.0	1	0.08	blockFiles/set_35/main_safe/rightBlue\GB_RB_3.xlsx
148	main_safe	True	0.0	347	0	5.0	5.0	1.0	1	right	2.0	1.0	1.0	1	0.08	blockFiles/set_35/main_safe/rightBlue\GB_RB_3.xlsx
149	main_safe	True	0.0	347	0	5.0	5.0	0.0	1	left	1.0	1.0	1.0	0	-0.08	blockFiles/set_35/main_safe/rightBlue\GB_RB_3.xlsx
150	main_safe	True	0.0	347	0	5.0	5.0	0.0	1	left	1.0	1.0	1.0	0	-0.08	blockFiles/set_35/main_safe/rightBlue\GB_RB_3.xlsx
151	main_safe	True	0.0	347	0	5.0	5.0	0.0	1	left	1.0	1.0	1.0	0	-0.08	blockFiles/set_35/main_safe/rightBlue\GB_RB_3.xlsx
152	main_safe	True	0.0	347	0	5.0	5.0	1.0	1	right	2.0	1.0	1.0	1	0.08	blockFiles/set_35/main_safe/rightBlue\GB_RB_3.xlsx
153	main_safe	True	0.0	347	0	5.0	5.0	0.0	1	left	1.0	0.0	1.0	0	-0.08	blockFiles/set_35/main_safe/rightBlue\GB_RB_3.xlsx
154	patches	True	n/a	347	0	n/a	n/a	0.0	1	left	n/a	n/a	n/a	0	-0.079365473073	blockFiles/set_35/main_PD/GB_runPatches1.xlsx
155	patches	True	n/a	347	0	n/a	n/a	1.0	0	right	n/a	n/a	n/a	0	-0.0189156296104	blockFiles/set_35/main_PD/GB_runPatches1.xlsx
156	patches	True	n/a	347	0	n/a	n/a	1.0	1	right	n/a	n/a	n/a	1	0.05358956635	blockFiles/set_35/main_PD/GB_runPatches1.xlsx
157	patches	True	n/a	347	0	n/a	n/a	1.0	1	right	n/a	n/a	n/a	1	0.038009886983800006	blockFiles/set_35/main_PD/GB_runPatches1.xlsx
158	patches	True	n/a	347	0	n/a	n/a	1.0	1	right	n/a	n/a	n/a	1	0.06409882133830001	blockFiles/set_35/main_PD/GB_runPatches1.xlsx
159	patches	True	n/a	347	0	n/a	n/a	0.0	1	left	n/a	n/a	n/a	0	-0.046778356451500004	blockFiles/set_35/main_PD/GB_runPatches1.xlsx
160	patches	True	n/a	347	0	n/a	n/a	0.0	1	left	n/a	n/a	n/a	0	-0.030779949538400003	blockFiles/set_35/main_PD/GB_runPatches1.xlsx
161	patches	True	n/a	347	0	n/a	n/a	1.0	0	right	n/a	n/a	n/a	0	-0.0167962218076	blockFiles/set_35/main_PD/GB_runPatches1.xlsx
162	patches	True	n/a	347	0	n/a	n/a	1.0	1	right	n/a	n/a	n/a	1	0.0571031859517	blockFiles/set_35/main_PD/GB_runPatches1.xlsx
163	patches	True	n/a	347	0	n/a	n/a	0.0	1	left	n/a	n/a	n/a	0	-0.0335638352856	blockFiles/set_35/main_PD/GB_runPatches1.xlsx
164	patches	True	n/a	347	0	n/a	n/a	0.0	1	left	n/a	n/a	n/a	0	-0.040551931913900004	blockFiles/set_35/main_PD/GB_runPatches1.xlsx
165	patches	True	n/a	347	0	n/a	n/a	1.0	1	right	n/a	n/a	n/a	1	0.0733272808976	blockFiles/set_35/main_PD/GB_runPatches1.xlsx
166	patches	True	n/a	347	0	n/a	n/a	0.0	1	left	n/a	n/a	n/a	0	-0.0316089147329	blockFiles/set_35/main_PD/GB_runPatches1.xlsx
167	patches	True	n/a	347	0	n/a	n/a	0.0	1	left	n/a	n/a	n/a	0	-0.0365954083577	blockFiles/set_35/main_PD/GB_runPatches1.xlsx
168	patches	True	n/a	347	0	n/a	n/a	0.0	1	left	n/a	n/a	n/a	0	-0.029985373020200004	blockFiles/set_35/main_PD/GB_runPatches1.xlsx
169	patches	True	n/a	347	0	n/a	n/a	0.0	1	left	n/a	n/a	n/a	0	-0.011246030461	blockFiles/set_35/main_PD/GB_runPatches1.xlsx
170	patches	True	n/a	347	0	n/a	n/a	1.0	0	right	n/a	n/a	n/a	0	-0.0324246672541	blockFiles/set_35/main_PD/GB_runPatches1.xlsx
171	patches	True	n/a	347	0	n/a	n/a	1.0	1	right	n/a	n/a	n/a	1	0.05606358386580001	blockFiles/set_35/main_PD/GB_runPatches1.xlsx
172	patches	True	n/a	347	0	n/a	n/a	1.0	1	right	n/a	n/a	n/a	1	0.058357977811199994	blockFiles/set_35/main_PD/GB_runPatches1.xlsx
173	patches	True	n/a	347	0	n/a	n/a	1.0	1	right	n/a	n/a	n/a	1	0.06029920993369999	blockFiles/set_35/main_PD/GB_runPatches1.xlsx
174	patches	True	n/a	347	0	n/a	n/a	1.0	1	right	n/a	n/a	n/a	1	0.0512133327499	blockFiles/set_35/main_PD/GB_runPatches1.xlsx
175	patches	True	n/a	347	0	n/a	n/a	1.0	1	right	n/a	n/a	n/a	1	0.037797171156900004	blockFiles/set_35/main_PD/GB_runPatches1.xlsx
176	patches	True	n/a	347	0	n/a	n/a	0.0	0	left	n/a	n/a	n/a	1	0.0213727903739	blockFiles/set_35/main_PD/GB_runPatches1.xlsx
177	patches	True	n/a	347	0	n/a	n/a	0.0	1	left	n/a	n/a	n/a	0	-0.00816818453372	blockFiles/set_35/main_PD/GB_runPatches1.xlsx
178	patches	True	n/a	347	0	n/a	n/a	0.0	1	left	n/a	n/a	n/a	0	-0.0632917876169	blockFiles/set_35/main_PD/GB_runPatches1.xlsx
179	patches	True	n/a	347	0	n/a	n/a	0.0	1	left	n/a	n/a	n/a	0	-0.0038102203980100004	blockFiles/set_35/main_PD/GB_runPatches1.xlsx
180	patches	True	n/a	347	0	n/a	n/a	0.0	1	left	n/a	n/a	n/a	0	-0.0658358847164	blockFiles/set_35/main_PD/GB_runPatches1.xlsx
181	patches	True	n/a	347	0	n/a	n/a	1.0	1	right	n/a	n/a	n/a	1	0.0717892353982	blockFiles/set_35/main_PD/GB_runPatches1.xlsx
182	patches	True	n/a	347	0	n/a	n/a	1.0	1	right	n/a	n/a	n/a	1	0.0156319013797	blockFiles/set_35/main_PD/GB_runPatches1.xlsx
183	patches	True	n/a	347	0	n/a	n/a	0.0	1	left	n/a	n/a	n/a	0	-0.0730182566307	blockFiles/set_35/main_PD/GB_runPatches1.xlsx
184	patches	True	n/a	347	0	n/a	n/a	1.0	1	right	n/a	n/a	n/a	1	0.059027633424800004	blockFiles/set_35/main_PD/GB_runPatches1.xlsx
185	patches	True	n/a	347	0	n/a	n/a	1.0	1	right	n/a	n/a	n/a	1	0.0189267238602	blockFiles/set_35/main_PD/GB_runPatches1.xlsx
186	patches	True	n/a	347	0	n/a	n/a	1.0	1	right	n/a	n/a	n/a	1	0.0168003737368	blockFiles/set_35/main_PD/GB_runPatches1.xlsx
187	patches	True	n/a	347	0	n/a	n/a	0.0	1	left	n/a	n/a	n/a	0	-0.06118227640169999	blockFiles/set_35/main_PD/GB_runPatches1.xlsx
188	patches	True	n/a	347	0	n/a	n/a	0.0	1	left	n/a	n/a	n/a	0	-0.0779539405182	blockFiles/set_35/main_PD/GB_runPatches1.xlsx
189	patches	True	n/a	347	0	n/a	n/a	0.0	1	left	n/a	n/a	n/a	0	-0.053381666913599995	blockFiles/set_35/main_PD/GB_runPatches1.xlsx
190	patches	True	n/a	347	0	n/a	n/a	1.0	0	right	n/a	n/a	n/a	0	-0.0238488804922	blockFiles/set_35/main_PD/GB_runPatches1.xlsx
191	patches	True	n/a	347	0	n/a	n/a	1.0	1	right	n/a	n/a	n/a	1	0.0548698300123	blockFiles/set_35/main_PD/GB_runPatches1.xlsx
192	patches	True	n/a	347	0	n/a	n/a	1.0	1	right	n/a	n/a	n/a	1	0.0451205330156	blockFiles/set_35/main_PD/GB_runPatches1.xlsx
193	patches	True	n/a	347	0	n/a	n/a	1.0	1	right	n/a	n/a	n/a	1	0.0035887043364299996	blockFiles/set_35/main_PD/GB_runPatches1.xlsx
194	patches	True	n/a	347	0	n/a	n/a	0.0	1	left	n/a	n/a	n/a	0	-0.030308913253200002	blockFiles/set_35/main_PD/GB_runPatches1.xlsx
195	patches	True	n/a	347	0	n/a	n/a	1.0	1	right	n/a	n/a	n/a	1	0.0576400479488	blockFiles/set_35/main_PD/GB_runPatches1.xlsx
196	patches	True	n/a	347	0	n/a	n/a	0.0	0	left	n/a	n/a	n/a	1	0.0254921455681	blockFiles/set_35/main_PD/GB_runPatches1.xlsx
197	patches	True	n/a	347	0	n/a	n/a	0.0	1	left	n/a	n/a	n/a	0	-0.044193919319699994	blockFiles/set_35/main_PD/GB_runPatches1.xlsx
198	patches	True	n/a	347	0	n/a	n/a	0.0	1	left	n/a	n/a	n/a	0	-0.0442466270924	blockFiles/set_35/main_PD/GB_runPatches1.xlsx
199	patches	True	n/a	347	0	n/a	n/a	0.0	1	left	n/a	n/a	n/a	0	-0.061998201943899996	blockFiles/set_35/main_PD/GB_runPatches1.xlsx
200	patches	True	n/a	347	0	n/a	n/a	1.0	1	right	n/a	n/a	n/a	1	0.0155471940711	blockFiles/set_35/main_PD/GB_runPatches1.xlsx
201	patches	True	n/a	347	0	n/a	n/a	0.0	1	left	n/a	n/a	n/a	0	-0.0627710963413	blockFiles/set_35/main_PD/GB_runPatches1.xlsx
202	patches	True	n/a	347	0	n/a	n/a	0.0	1	left	n/a	n/a	n/a	0	-0.013110378682600001	blockFiles/set_35/main_PD/GB_runPatches1.xlsx
203	patches	True	n/a	347	0	n/a	n/a	1.0	1	right	n/a	n/a	n/a	1	0.022813712041799997	blockFiles/set_35/main_PD/GB_runPatches1.xlsx
204	patches	True	n/a	347	0	n/a	n/a	1.0	1	right	n/a	n/a	n/a	1	0.038742792625	blockFiles/set_35/main_PD/GB_runPatches1.xlsx
205	patches	True	n/a	347	0	n/a	n/a	1.0	1	right	n/a	n/a	n/a	1	0.0468098697253	blockFiles/set_35/main_PD/GB_runPatches1.xlsx
206	patches	True	n/a	347	0	n/a	n/a	1.0	1	right	n/a	n/a	n/a	1	0.061676900293699995	blockFiles/set_35/main_PD/GB_runPatches1.xlsx
207	patches	True	n/a	347	0	n/a	n/a	0.0	1	left	n/a	n/a	n/a	0	-0.05457674318919999	blockFiles/set_35/main_PD/GB_runPatches1.xlsx
208	patches	True	n/a	347	0	n/a	n/a	1.0	1	right	n/a	n/a	n/a	1	0.0439366041124	blockFiles/set_35/main_PD/GB_runPatches1.xlsx
209	patches	True	n/a	347	0	n/a	n/a	1.0	1	right	n/a	n/a	n/a	1	0.0773693824559	blockFiles/set_35/main_PD/GB_runPatches1.xlsx
210	patches	True	n/a	347	0	n/a	n/a	0.0	0	left	n/a	n/a	n/a	1	0.004726847819979999	blockFiles/set_35/main_PD/GB_runPatches1.xlsx
211	patches	True	n/a	347	0	n/a	n/a	0.0	0	left	n/a	n/a	n/a	1	0.006270256936550001	blockFiles/set_35/main_PD/GB_runPatches1.xlsx
212	patches	True	n/a	347	0	n/a	n/a	0.0	1	left	n/a	n/a	n/a	0	-0.0555316658504	blockFiles/set_35/main_PD/GB_runPatches1.xlsx
213	patches	True	n/a	347	0	n/a	n/a	0.0	1	left	n/a	n/a	n/a	0	-0.058156052026899996	blockFiles/set_35/main_PD/GB_runPatches1.xlsx
214	patches	True	n/a	347	0	n/a	n/a	1.0	0	right	n/a	n/a	n/a	0	-0.0143384555168	blockFiles/set_35/main_PD/GB_runPatches1.xlsx
215	patches	True	n/a	347	0	n/a	n/a	0.0	1	left	n/a	n/a	n/a	0	-0.06529359690849999	blockFiles/set_35/main_PD/GB_runPatches1.xlsx
216	patches	True	n/a	347	0	n/a	n/a	1.0	1	right	n/a	n/a	n/a	1	0.00418010110036	blockFiles/set_35/main_PD/GB_runPatches1.xlsx
217	patches	True	n/a	347	0	n/a	n/a	0.0	1	left	n/a	n/a	n/a	0	-0.0771840178221	blockFiles/set_35/main_PD/GB_runPatches1.xlsx
218	patches	True	n/a	347	0	n/a	n/a	1.0	0	right	n/a	n/a	n/a	0	-0.00736856617033	blockFiles/set_35/main_PD/GB_runPatches1.xlsx
219	patches	True	n/a	347	0	n/a	n/a	1.0	1	right	n/a	n/a	n/a	1	0.07805981811139999	blockFiles/set_35/main_PD/GB_runPatches1.xlsx
220	patches	True	n/a	347	0	n/a	n/a	0.0	1	left	n/a	n/a	n/a	0	-0.0171996209584	blockFiles/set_35/main_PD/GB_runPatches1.xlsx
221	patches	True	n/a	347	0	n/a	n/a	1.0	1	right	n/a	n/a	n/a	1	0.027435550373	blockFiles/set_35/main_PD/GB_runPatches1.xlsx
222	patches	True	n/a	347	0	n/a	n/a	0.0	1	left	n/a	n/a	n/a	0	-0.060462396461500006	blockFiles/set_35/main_PD/GB_runPatches1.xlsx
223	patches	True	n/a	347	0	n/a	n/a	1.0	0	right	n/a	n/a	n/a	0	-0.0437950708158	blockFiles/set_35/main_PD/GB_runPatches1.xlsx
224	patches	True	n/a	347	0	n/a	n/a	1.0	1	right	n/a	n/a	n/a	1	0.0350820910558	blockFiles/set_35/main_PD/GB_runPatches1.xlsx
225	patches	True	n/a	347	0	n/a	n/a	0.0	1	left	n/a	n/a	n/a	0	-0.030928805992	blockFiles/set_35/main_PD/GB_runPatches1.xlsx
226	patches	True	n/a	347	0	n/a	n/a	1.0	1	right	n/a	n/a	n/a	1	0.0629571154155	blockFiles/set_35/main_PD/GB_runPatches1.xlsx
227	patches	True	n/a	347	0	n/a	n/a	1.0	1	right	n/a	n/a	n/a	1	0.0510343319923	blockFiles/set_35/main_PD/GB_runPatches1.xlsx
228	patches	True	n/a	347	0	n/a	n/a	0.0	1	left	n/a	n/a	n/a	0	-0.06299065720290001	blockFiles/set_35/main_PD/GB_runPatches1.xlsx
229	patches	True	n/a	347	0	n/a	n/a	0.0	1	left	n/a	n/a	n/a	0	-0.0318915393203	blockFiles/set_35/main_PD/GB_runPatches1.xlsx
230	patches	True	n/a	347	0	n/a	n/a	1.0	1	right	n/a	n/a	n/a	1	0.035134106092199996	blockFiles/set_35/main_PD/GB_runPatches1.xlsx
231	patches	True	n/a	347	0	n/a	n/a	0.0	1	left	n/a	n/a	n/a	0	-0.0221169411391	blockFiles/set_35/main_PD/GB_runPatches1.xlsx
232	patches	True	n/a	347	0	n/a	n/a	1.0	1	right	n/a	n/a	n/a	1	0.0033174813725100004	blockFiles/set_35/main_PD/GB_runPatches1.xlsx
233	patches	True	n/a	347	0	n/a	n/a	1.0	1	right	n/a	n/a	n/a	1	0.0716714434698	blockFiles/set_35/main_PD/GB_runPatches1.xlsx
234	patches	True	n/a	347	0	n/a	n/a	0.0	0	left	n/a	n/a	n/a	1	0.014695843495399999	blockFiles/set_35/main_PD/GB_runPatches1.xlsx
235	patches	True	n/a	347	0	n/a	n/a	1.0	1	right	n/a	n/a	n/a	1	0.0230603468232	blockFiles/set_35/main_PD/GB_runPatches1.xlsx
236	patches	True	n/a	347	0	n/a	n/a	0.0	1	left	n/a	n/a	n/a	0	-0.0553988368623	blockFiles/set_35/main_PD/GB_runPatches1.xlsx
237	patches	True	n/a	347	0	n/a	n/a	1.0	1	right	n/a	n/a	n/a	1	0.0599213200435	blockFiles/set_35/main_PD/GB_runPatches1.xlsx
238	patches	True	n/a	347	0	n/a	n/a	1.0	1	right	n/a	n/a	n/a	1	0.0588825415075	blockFiles/set_35/main_PD/GB_runPatches1.xlsx
239	patches	True	n/a	347	0	n/a	n/a	1.0	1	right	n/a	n/a	n/a	1	0.0211188268848	blockFiles/set_35/main_PD/GB_runPatches1.xlsx
240	patches	True	n/a	347	0	n/a	n/a	0.0	1	left	n/a	n/a	n/a	0	-0.055735350251199994	blockFiles/set_35/main_PD/GB_runPatches1.xlsx
241	patches	True	n/a	347	0	n/a	n/a	0.0	1	left	n/a	n/a	n/a	0	-0.0071668558381500005	blockFiles/set_35/main_PD/GB_runPatches1.xlsx
242	patches	True	n/a	347	0	n/a	n/a	1.0	0	right	n/a	n/a	n/a	0	-0.0246705177799	blockFiles/set_35/main_PD/GB_runPatches1.xlsx
243	patches	True	n/a	347	0	n/a	n/a	0.0	1	left	n/a	n/a	n/a	0	-0.00731591852382	blockFiles/set_35/main_PD/GB_runPatches1.xlsx
244	patches	True	n/a	347	0	n/a	n/a	0.0	1	left	n/a	n/a	n/a	0	-0.0735021013953	blockFiles/set_35/main_PD/GB_runPatches1.xlsx
245	patches	True	n/a	347	0	n/a	n/a	1.0	1	right	n/a	n/a	n/a	1	0.013888898287	blockFiles/set_35/main_PD/GB_runPatches1.xlsx
246	patches	True	n/a	347	0	n/a	n/a	1.0	1	right	n/a	n/a	n/a	1	0.056205486729699994	blockFiles/set_35/main_PD/GB_runPatches1.xlsx
247	patches	True	n/a	347	0	n/a	n/a	0.0	0	left	n/a	n/a	n/a	1	0.00278517454863	blockFiles/set_35/main_PD/GB_runPatches1.xlsx
248	patches	True	n/a	347	0	n/a	n/a	0.0	1	left	n/a	n/a	n/a	0	-0.0630409240723	blockFiles/set_35/main_PD/GB_runPatches1.xlsx
249	patches	True	n/a	347	0	n/a	n/a	0.0	1	left	n/a	n/a	n/a	0	-0.0597672307864	blockFiles/set_35/main_PD/GB_runPatches1.xlsx
250	patches	True	n/a	347	0	n/a	n/a	1.0	1	right	n/a	n/a	n/a	1	0.0473620931804	blockFiles/set_35/main_PD/GB_runPatches1.xlsx
251	patches	True	n/a	347	0	n/a	n/a	1.0	1	right	n/a	n/a	n/a	1	0.0707930269279	blockFiles/set_35/main_PD/GB_runPatches1.xlsx
252	patches	True	n/a	347	0	n/a	n/a	0.0	1	left	n/a	n/a	n/a	0	-0.022489686552400003	blockFiles/set_35/main_PD/GB_runPatches1.xlsx
253	patches	True	n/a	347	0	n/a	n/a	1.0	1	right	n/a	n/a	n/a	1	0.06292206369339999	blockFiles/set_35/main_PD/GB_runPatches1.xlsx
254	main_unc	True	0.0	347	0	0.0	0.0	0.0	1	left	1.0	1.0	0.0	0	-0.005681870300319999	blockFiles/set_35/main_unc/leftBlue\GB_LB_6.xlsx
255	main_unc	True	0.0	347	0	0.0	0.0	0.0	1	left	1.0	0.0	0.0	0	-0.0563086192869	blockFiles/set_35/main_unc/leftBlue\GB_LB_6.xlsx
256	main_unc	True	0.0	347	0	0.0	0.0	0.0	1	left	1.0	1.0	0.0	0	-0.0594789308682	blockFiles/set_35/main_unc/leftBlue\GB_LB_6.xlsx
257	main_unc	True	0.0	347	0	0.0	0.0	1.0	0	right	2.0	1.0	1.0	0	-0.0111728227325	blockFiles/set_35/main_unc/leftBlue\GB_LB_6.xlsx
258	main_unc	True	0.0	347	0	0.0	0.0	0.0	1	left	1.0	0.0	0.0	0	-0.0799713460542	blockFiles/set_35/main_unc/leftBlue\GB_LB_6.xlsx
259	main_unc	True	0.0	347	0	0.0	0.0	1.0	1	right	2.0	0.0	0.0	1	0.0315492157638	blockFiles/set_35/main_unc/leftBlue\GB_LB_6.xlsx
260	main_unc	True	0.0	347	0	0.0	0.0	0.0	1	left	1.0	1.0	0.0	0	-0.0316291168705	blockFiles/set_35/main_unc/leftBlue\GB_LB_6.xlsx
261	main_unc	True	0.0	347	0	0.0	0.0	0.0	1	left	1.0	1.0	0.0	0	-0.0402258347906	blockFiles/set_35/main_unc/leftBlue\GB_LB_6.xlsx
262	main_unc	True	0.0	347	0	0.0	0.0	0.0	0	left	1.0	1.0	1.0	1	0.00395408898592	blockFiles/set_35/main_unc/leftBlue\GB_LB_6.xlsx
263	main_unc	True	0.0	347	0	0.0	0.0	1.0	1	right	2.0	0.0	0.0	1	0.0412902920321	blockFiles/set_35/main_unc/leftBlue\GB_LB_6.xlsx
264	main_unc	True	0.0	347	0	0.0	0.0	1.0	1	right	2.0	0.0	0.0	1	0.0603349574842	blockFiles/set_35/main_unc/leftBlue\GB_LB_6.xlsx
265	main_unc	True	0.0	347	0	0.0	0.0	1.0	1	right	2.0	1.0	0.0	1	0.044686602391300005	blockFiles/set_35/main_unc/leftBlue\GB_LB_6.xlsx
266	main_unc	True	0.0	347	0	0.0	0.0	0.0	1	left	1.0	0.0	0.0	0	-0.0587044199742	blockFiles/set_35/main_unc/leftBlue\GB_LB_6.xlsx
267	main_unc	True	0.0	347	0	0.0	0.0	0.0	1	left	1.0	0.0	0.0	0	-0.047453461941300006	blockFiles/set_35/main_unc/leftBlue\GB_LB_6.xlsx
268	main_unc	True	0.0	347	0	0.0	0.0	1.0	1	right	2.0	0.0	0.0	1	0.027101925537	blockFiles/set_35/main_unc/leftBlue\GB_LB_6.xlsx
269	main_unc	True	0.0	347	0	0.0	0.0	0.0	0	left	1.0	1.0	1.0	1	0.012617114968600001	blockFiles/set_35/main_unc/leftBlue\GB_LB_6.xlsx
270	main_unc	True	0.0	347	0	0.0	0.0	1.0	1	right	2.0	0.0	0.0	1	0.0577341221645	blockFiles/set_35/main_unc/leftBlue\GB_LB_6.xlsx
271	main_unc	True	0.0	347	0	0.0	0.0	1.0	1	right	2.0	1.0	0.0	1	0.0274822475761	blockFiles/set_35/main_unc/leftBlue\GB_LB_6.xlsx
272	main_unc	True	0.0	347	0	0.0	0.0	1.0	1	right	2.0	0.0	0.0	1	0.0669419135898	blockFiles/set_35/main_unc/leftBlue\GB_LB_6.xlsx
273	main_unc	True	0.0	347	0	0.0	0.0	0.0	1	left	1.0	0.0	0.0	0	-0.014464578926600002	blockFiles/set_35/main_unc/leftBlue\GB_LB_6.xlsx
274	main_unc	True	0.0	347	0	0.0	0.0	0.0	1	left	1.0	0.0	0.0	0	-0.07719948470589999	blockFiles/set_35/main_unc/leftBlue\GB_LB_6.xlsx
275	main_unc	True	0.0	347	0	0.0	0.0	0.0	1	left	1.0	0.0	0.0	0	-0.0207695231773	blockFiles/set_35/main_unc/leftBlue\GB_LB_6.xlsx
276	main_unc	True	0.0	347	0	0.0	0.0	0.0	1	left	2.0	1.0	1.0	0	-0.0391133956425	blockFiles/set_35/main_unc/leftBlue\GB_LB_6.xlsx
277	main_unc	True	0.0	347	0	0.0	0.0	1.0	1	right	1.0	1.0	1.0	1	0.0662076702714	blockFiles/set_35/main_unc/leftBlue\GB_LB_6.xlsx
278	main_unc	True	0.0	347	0	0.0	0.0	0.0	0	left	2.0	0.0	0.0	1	0.00191887130961	blockFiles/set_35/main_unc/leftBlue\GB_LB_6.xlsx
279	main_unc	True	0.0	347	0	1.0	1.0	0.0	1	left	1.0	0.0	0.0	0	-0.06798642952	blockFiles/set_35/main_unc/leftBlue\GB_LB_5.xlsx
280	main_unc	True	0.0	347	0	1.0	1.0	0.0	1	left	1.0	0.0	0.0	0	-0.0254080581665	blockFiles/set_35/main_unc/leftBlue\GB_LB_5.xlsx
281	main_unc	True	0.0	347	0	1.0	1.0	1.0	1	right	1.0	1.0	1.0	1	0.06775844533	blockFiles/set_35/main_unc/leftBlue\GB_LB_5.xlsx
282	main_unc	True	0.0	347	0	1.0	1.0	0.0	1	left	2.0	0.0	1.0	0	-0.0127206797153	blockFiles/set_35/main_unc/leftBlue\GB_LB_5.xlsx
283	main_unc	True	0.0	347	0	1.0	1.0	1.0	1	right	1.0	1.0	1.0	1	0.03830586684869999	blockFiles/set_35/main_unc/leftBlue\GB_LB_5.xlsx
284	main_unc	True	0.0	347	0	1.0	1.0	0.0	1	left	2.0	1.0	1.0	0	-0.040675553418699995	blockFiles/set_35/main_unc/leftBlue\GB_LB_5.xlsx
285	main_unc	True	0.0	347	0	1.0	1.0	0.0	1	left	2.0	1.0	1.0	0	-0.007490592300890001	blockFiles/set_35/main_unc/leftBlue\GB_LB_5.xlsx
286	main_unc	True	0.0	347	0	1.0	1.0	0.0	1	left	2.0	1.0	1.0	0	-0.0162270409055	blockFiles/set_35/main_unc/leftBlue\GB_LB_5.xlsx
287	main_unc	True	0.0	347	0	1.0	1.0	0.0	1	left	2.0	1.0	1.0	0	-0.0744851927459	blockFiles/set_35/main_unc/leftBlue\GB_LB_5.xlsx
288	main_unc	True	0.0	347	0	1.0	1.0	1.0	1	right	1.0	1.0	1.0	1	0.017697327826200003	blockFiles/set_35/main_unc/leftBlue\GB_LB_5.xlsx
289	main_unc	True	0.0	347	0	1.0	1.0	1.0	1	right	1.0	1.0	1.0	1	0.0408959243074	blockFiles/set_35/main_unc/leftBlue\GB_LB_5.xlsx
290	main_unc	True	0.0	347	0	1.0	1.0	0.0	1	left	2.0	1.0	1.0	0	-0.0756672123447	blockFiles/set_35/main_unc/leftBlue\GB_LB_5.xlsx
291	main_unc	True	0.0	347	0	1.0	1.0	0.0	1	left	2.0	1.0	1.0	0	-0.030324243735500002	blockFiles/set_35/main_unc/leftBlue\GB_LB_5.xlsx
292	main_unc	True	0.0	347	0	1.0	1.0	1.0	1	right	1.0	0.0	1.0	1	0.045800074264400005	blockFiles/set_35/main_unc/leftBlue\GB_LB_5.xlsx
293	main_unc	True	0.0	347	0	1.0	1.0	1.0	1	right	1.0	1.0	1.0	1	0.0166735242121	blockFiles/set_35/main_unc/leftBlue\GB_LB_5.xlsx
294	main_unc	True	0.0	347	0	1.0	1.0	1.0	1	right	1.0	0.0	1.0	1	0.0242358549498	blockFiles/set_35/main_unc/leftBlue\GB_LB_5.xlsx
295	main_unc	True	0.0	347	0	1.0	1.0	1.0	1	right	1.0	1.0	1.0	1	0.0366099984385	blockFiles/set_35/main_unc/leftBlue\GB_LB_5.xlsx
296	main_unc	True	0.0	347	0	1.0	1.0	0.0	1	left	2.0	0.0	1.0	0	-0.0529919729196	blockFiles/set_35/main_unc/leftBlue\GB_LB_5.xlsx
297	main_unc	True	0.0	347	0	1.0	1.0	1.0	1	right	1.0	0.0	1.0	1	0.00532641692087	blockFiles/set_35/main_unc/leftBlue\GB_LB_5.xlsx
298	main_unc	True	0.0	347	0	1.0	1.0	0.0	1	left	2.0	1.0	1.0	0	-0.0617332959734	blockFiles/set_35/main_unc/leftBlue\GB_LB_5.xlsx
299	main_unc	True	0.0	347	0	1.0	1.0	0.0	1	left	2.0	1.0	1.0	0	-0.07313479050989999	blockFiles/set_35/main_unc/leftBlue\GB_LB_5.xlsx
300	main_unc	True	0.0	347	0	1.0	1.0	0.0	1	left	2.0	1.0	1.0	0	-0.07607308093460001	blockFiles/set_35/main_unc/leftBlue\GB_LB_5.xlsx
301	main_unc	True	0.0	347	0	1.0	1.0	1.0	1	right	1.0	1.0	1.0	1	0.041108701843800007	blockFiles/set_35/main_unc/leftBlue\GB_LB_5.xlsx
302	main_unc	True	0.0	347	0	1.0	1.0	1.0	1	right	1.0	1.0	1.0	1	0.027646511718599998	blockFiles/set_35/main_unc/leftBlue\GB_LB_5.xlsx
303	main_unc	True	0.0	347	0	1.0	1.0	1.0	1	right	1.0	1.0	1.0	1	0.016750711370299997	blockFiles/set_35/main_unc/leftBlue\GB_LB_5.xlsx
304	main_unc	True	0.0	347	0	2.0	2.0	1.0	1	right	1.0	0.0	1.0	1	0.0325945424102	blockFiles/set_35/main_unc/leftBlue\GB_LB_1.xlsx
305	main_unc	True	0.0	347	0	2.0	2.0	0.0	1	left	1.0	1.0	0.0	0	-0.059441569782800005	blockFiles/set_35/main_unc/leftBlue\GB_LB_1.xlsx
306	main_unc	True	0.0	347	0	2.0	2.0	0.0	1	left	1.0	0.0	0.0	0	-0.030808264073	blockFiles/set_35/main_unc/leftBlue\GB_LB_1.xlsx
307	main_unc	True	0.0	347	0	2.0	2.0	1.0	1	right	2.0	0.0	0.0	1	0.008845218531790001	blockFiles/set_35/main_unc/leftBlue\GB_LB_1.xlsx
308	main_unc	True	0.0	347	0	2.0	2.0	1.0	1	right	2.0	0.0	0.0	1	0.0557357965969	blockFiles/set_35/main_unc/leftBlue\GB_LB_1.xlsx
309	main_unc	True	0.0	347	0	2.0	2.0	0.0	1	left	1.0	0.0	0.0	0	-0.0545242215507	blockFiles/set_35/main_unc/leftBlue\GB_LB_1.xlsx
310	main_unc	True	0.0	347	0	2.0	2.0	1.0	1	right	2.0	0.0	0.0	1	0.0776586986706	blockFiles/set_35/main_unc/leftBlue\GB_LB_1.xlsx
311	main_unc	True	0.0	347	0	2.0	2.0	0.0	1	left	1.0	0.0	0.0	0	-0.035331755988300004	blockFiles/set_35/main_unc/leftBlue\GB_LB_1.xlsx
312	main_unc	True	0.0	347	0	2.0	2.0	0.0	1	left	2.0	1.0	1.0	0	-0.0408464271575	blockFiles/set_35/main_unc/leftBlue\GB_LB_1.xlsx
313	main_unc	True	0.0	347	0	2.0	2.0	0.0	1	left	2.0	0.0	1.0	0	-0.025864841211599997	blockFiles/set_35/main_unc/leftBlue\GB_LB_1.xlsx
314	main_unc	True	0.0	347	0	2.0	2.0	0.0	1	left	2.0	1.0	1.0	0	-0.019054147061	blockFiles/set_35/main_unc/leftBlue\GB_LB_1.xlsx
315	main_unc	True	0.0	347	0	2.0	2.0	1.0	0	right	1.0	0.0	0.0	0	-0.000871244017035	blockFiles/set_35/main_unc/leftBlue\GB_LB_1.xlsx
316	main_unc	True	0.0	347	0	2.0	2.0	0.0	1	left	2.0	0.0	1.0	0	-0.0294332152978	blockFiles/set_35/main_unc/leftBlue\GB_LB_1.xlsx
317	main_unc	True	0.0	347	0	2.0	2.0	1.0	1	right	1.0	1.0	1.0	1	0.06708271589130001	blockFiles/set_35/main_unc/leftBlue\GB_LB_1.xlsx
318	main_unc	True	0.0	347	0	2.0	2.0	1.0	1	right	1.0	1.0	1.0	1	0.058924746736900006	blockFiles/set_35/main_unc/leftBlue\GB_LB_1.xlsx
319	main_unc	True	0.0	347	0	2.0	2.0	1.0	1	right	1.0	0.0	1.0	1	0.0101160258427	blockFiles/set_35/main_unc/leftBlue\GB_LB_1.xlsx
320	main_unc	True	0.0	347	0	2.0	2.0	1.0	1	right	1.0	1.0	1.0	1	0.0571666650474	blockFiles/set_35/main_unc/leftBlue\GB_LB_1.xlsx
321	main_unc	True	0.0	347	0	2.0	2.0	0.0	1	left	2.0	1.0	1.0	0	-0.0164640111849	blockFiles/set_35/main_unc/leftBlue\GB_LB_1.xlsx
322	main_unc	True	0.0	347	0	2.0	2.0	0.0	1	left	2.0	1.0	1.0	0	-0.018581184689	blockFiles/set_35/main_unc/leftBlue\GB_LB_1.xlsx
323	main_unc	True	0.0	347	0	2.0	2.0	0.0	1	left	2.0	1.0	1.0	0	-0.0320886772685	blockFiles/set_35/main_unc/leftBlue\GB_LB_1.xlsx
324	main_unc	True	0.0	347	0	2.0	2.0	1.0	1	right	1.0	1.0	1.0	1	0.0775042691827	blockFiles/set_35/main_unc/leftBlue\GB_LB_1.xlsx
325	main_unc	True	0.0	347	0	2.0	2.0	0.0	1	left	2.0	1.0	1.0	0	-0.0225521400757	blockFiles/set_35/main_unc/leftBlue\GB_LB_1.xlsx
326	main_unc	True	0.0	347	0	2.0	2.0	0.0	1	left	2.0	1.0	1.0	0	-0.06649140555409999	blockFiles/set_35/main_unc/leftBlue\GB_LB_1.xlsx
327	main_unc	True	0.0	347	0	2.0	2.0	0.0	0	left	1.0	1.0	1.0	1	0.0364187318273	blockFiles/set_35/main_unc/leftBlue\GB_LB_1.xlsx
328	main_unc	True	0.0	347	0	2.0	2.0	0.0	0	left	1.0	1.0	1.0	1	0.0233980193548	blockFiles/set_35/main_unc/leftBlue\GB_LB_1.xlsx
329	main_unc	True	0.0	347	0	3.0	3.0	1.0	0	right	1.0	1.0	1.0	0	-0.010752038359600001	blockFiles/set_35/main_unc/rightBlue\GB_RB_6.xlsx
330	main_unc	True	0.0	347	0	3.0	3.0	1.0	1	right	1.0	0.0	0.0	1	0.0669861640967	blockFiles/set_35/main_unc/rightBlue\GB_RB_6.xlsx
331	main_unc	True	0.0	347	0	3.0	3.0	0.0	1	left	2.0	0.0	0.0	0	-0.079708816316	blockFiles/set_35/main_unc/rightBlue\GB_RB_6.xlsx
332	main_unc	True	0.0	347	0	3.0	3.0	0.0	1	left	2.0	0.0	0.0	0	-0.022240995951	blockFiles/set_35/main_unc/rightBlue\GB_RB_6.xlsx
333	main_unc	True	0.0	347	0	3.0	3.0	0.0	1	left	1.0	1.0	1.0	0	-0.059914904143699994	blockFiles/set_35/main_unc/rightBlue\GB_RB_6.xlsx
334	main_unc	True	0.0	347	0	3.0	3.0	1.0	1	right	2.0	1.0	1.0	1	0.046705081462900006	blockFiles/set_35/main_unc/rightBlue\GB_RB_6.xlsx
335	main_unc	True	0.0	347	0	3.0	3.0	0.0	0	left	1.0	0.0	0.0	1	0.00787844825536	blockFiles/set_35/main_unc/rightBlue\GB_RB_6.xlsx
336	main_unc	True	0.0	347	0	3.0	3.0	1.0	1	right	2.0	1.0	1.0	1	0.066339393612	blockFiles/set_35/main_unc/rightBlue\GB_RB_6.xlsx
337	main_unc	True	0.0	347	0	3.0	3.0	0.0	1	left	1.0	1.0	1.0	0	-0.00233938269317	blockFiles/set_35/main_unc/rightBlue\GB_RB_6.xlsx
338	main_unc	True	0.0	347	0	3.0	3.0	1.0	1	right	2.0	0.0	1.0	1	0.0746665591002	blockFiles/set_35/main_unc/rightBlue\GB_RB_6.xlsx
339	main_unc	True	0.0	347	0	3.0	3.0	0.0	1	left	1.0	1.0	1.0	0	-0.0341818138398	blockFiles/set_35/main_unc/rightBlue\GB_RB_6.xlsx
340	main_unc	True	0.0	347	0	3.0	3.0	0.0	1	left	1.0	1.0	1.0	0	-0.043969951272	blockFiles/set_35/main_unc/rightBlue\GB_RB_6.xlsx
341	main_unc	True	0.0	347	0	3.0	3.0	1.0	1	right	2.0	1.0	1.0	1	0.0565223318152	blockFiles/set_35/main_unc/rightBlue\GB_RB_6.xlsx
342	main_unc	True	1.0	347	0	3.0	3.0	1.0	1	right	n/a	0.0	n/a	1	0.0311303105392	blockFiles/set_35/main_unc/rightBlue\GB_RB_6.xlsx
343	main_unc	True	0.0	347	0	3.0	3.0	0.0	1	left	1.0	1.0	1.0	0	-0.0604121828265	blockFiles/set_35/main_unc/rightBlue\GB_RB_6.xlsx
344	main_unc	True	0.0	347	0	3.0	3.0	1.0	1	right	2.0	0.0	1.0	1	0.0587950947136	blockFiles/set_35/main_unc/rightBlue\GB_RB_6.xlsx
345	main_unc	True	0.0	347	0	3.0	3.0	0.0	0	left	1.0	0.0	0.0	1	0.031900667324700004	blockFiles/set_35/main_unc/rightBlue\GB_RB_6.xlsx
346	main_unc	True	0.0	347	0	3.0	3.0	0.0	0	left	1.0	0.0	0.0	1	0.014226026125299999	blockFiles/set_35/main_unc/rightBlue\GB_RB_6.xlsx
347	main_unc	True	0.0	347	0	3.0	3.0	1.0	1	right	2.0	1.0	1.0	1	0.040628546942	blockFiles/set_35/main_unc/rightBlue\GB_RB_6.xlsx
348	main_unc	True	0.0	347	0	3.0	3.0	0.0	1	left	1.0	1.0	1.0	0	-0.026279804650699998	blockFiles/set_35/main_unc/rightBlue\GB_RB_6.xlsx
349	main_unc	True	0.0	347	0	3.0	3.0	0.0	0	left	1.0	0.0	0.0	1	0.009820936284959999	blockFiles/set_35/main_unc/rightBlue\GB_RB_6.xlsx
350	main_unc	True	0.0	347	0	3.0	3.0	0.0	1	left	1.0	0.0	1.0	0	-0.07611255124210001	blockFiles/set_35/main_unc/rightBlue\GB_RB_6.xlsx
351	main_unc	True	0.0	347	0	3.0	3.0	0.0	1	left	1.0	1.0	1.0	0	-0.0602083929069	blockFiles/set_35/main_unc/rightBlue\GB_RB_6.xlsx
352	main_unc	True	0.0	347	0	3.0	3.0	0.0	1	left	1.0	1.0	1.0	0	-0.0326450862363	blockFiles/set_35/main_unc/rightBlue\GB_RB_6.xlsx
353	main_unc	True	0.0	347	0	3.0	3.0	0.0	1	left	1.0	1.0	1.0	0	-0.052060364391700004	blockFiles/set_35/main_unc/rightBlue\GB_RB_6.xlsx
354	main_unc	True	0.0	347	0	3.0	3.0	0.0	0	left	2.0	0.0	1.0	1	0.0311303105392	blockFiles/set_35/main_unc/rightBlue\GB_RB_6.xlsx
355	main_unc	True	0.0	347	0	4.0	4.0	1.0	1	right	2.0	0.0	0.0	1	0.0408596799336	blockFiles/set_35/main_unc/leftBlue\GB_LB_4.xlsx
356	main_unc	True	0.0	347	0	4.0	4.0	0.0	1	left	1.0	0.0	0.0	0	-0.0694381734543	blockFiles/set_35/main_unc/leftBlue\GB_LB_4.xlsx
357	main_unc	True	0.0	347	0	4.0	4.0	0.0	0	left	2.0	0.0	0.0	1	0.00434000186622	blockFiles/set_35/main_unc/leftBlue\GB_LB_4.xlsx
358	main_unc	True	0.0	347	0	4.0	4.0	1.0	1	right	1.0	1.0	1.0	1	0.0524317299388	blockFiles/set_35/main_unc/leftBlue\GB_LB_4.xlsx
359	main_unc	True	0.0	347	0	4.0	4.0	0.0	1	left	2.0	1.0	1.0	0	-0.0160457380675	blockFiles/set_35/main_unc/leftBlue\GB_LB_4.xlsx
360	main_unc	True	0.0	347	0	4.0	4.0	1.0	1	right	1.0	0.0	1.0	1	0.0380640338175	blockFiles/set_35/main_unc/leftBlue\GB_LB_4.xlsx
361	main_unc	True	0.0	347	0	4.0	4.0	1.0	1	right	1.0	1.0	1.0	1	0.0645296778157	blockFiles/set_35/main_unc/leftBlue\GB_LB_4.xlsx
362	main_unc	True	0.0	347	0	4.0	4.0	1.0	1	right	1.0	1.0	1.0	1	0.0540579684451	blockFiles/set_35/main_unc/leftBlue\GB_LB_4.xlsx
363	main_unc	True	0.0	347	0	4.0	4.0	0.0	0	left	2.0	1.0	0.0	1	0.0212434133328	blockFiles/set_35/main_unc/leftBlue\GB_LB_4.xlsx
364	main_unc	True	0.0	347	0	4.0	4.0	1.0	1	right	1.0	1.0	1.0	1	0.06279303936290001	blockFiles/set_35/main_unc/leftBlue\GB_LB_4.xlsx
365	main_unc	True	0.0	347	0	4.0	4.0	0.0	1	left	2.0	0.0	1.0	0	-0.022007425334299998	blockFiles/set_35/main_unc/leftBlue\GB_LB_4.xlsx
366	main_unc	True	0.0	347	0	4.0	4.0	0.0	1	left	2.0	0.0	1.0	0	-0.061694872546899995	blockFiles/set_35/main_unc/leftBlue\GB_LB_4.xlsx
367	main_unc	True	0.0	347	0	4.0	4.0	1.0	1	right	1.0	1.0	1.0	1	0.0534988094121	blockFiles/set_35/main_unc/leftBlue\GB_LB_4.xlsx
368	main_unc	True	0.0	347	0	4.0	4.0	0.0	1	left	2.0	1.0	1.0	0	-0.022982256952700002	blockFiles/set_35/main_unc/leftBlue\GB_LB_4.xlsx
369	main_unc	True	0.0	347	0	4.0	4.0	0.0	1	left	2.0	1.0	1.0	0	-0.0133280862123	blockFiles/set_35/main_unc/leftBlue\GB_LB_4.xlsx
370	main_unc	True	0.0	347	0	4.0	4.0	0.0	1	left	2.0	1.0	1.0	0	-0.0369033442065	blockFiles/set_35/main_unc/leftBlue\GB_LB_4.xlsx
371	main_unc	True	0.0	347	0	4.0	4.0	1.0	1	right	1.0	1.0	1.0	1	0.0377098363079	blockFiles/set_35/main_unc/leftBlue\GB_LB_4.xlsx
372	main_unc	True	0.0	347	0	4.0	4.0	0.0	1	left	2.0	1.0	1.0	0	-0.0388194062933	blockFiles/set_35/main_unc/leftBlue\GB_LB_4.xlsx
373	main_unc	True	0.0	347	0	4.0	4.0	0.0	1	left	2.0	1.0	1.0	0	-0.06672047322619999	blockFiles/set_35/main_unc/leftBlue\GB_LB_4.xlsx
374	main_unc	True	0.0	347	0	4.0	4.0	0.0	1	left	2.0	1.0	1.0	0	-0.0248761944473	blockFiles/set_35/main_unc/leftBlue\GB_LB_4.xlsx
375	main_unc	True	0.0	347	0	4.0	4.0	0.0	1	left	2.0	1.0	1.0	0	-0.00963244464248	blockFiles/set_35/main_unc/leftBlue\GB_LB_4.xlsx
376	main_unc	True	0.0	347	0	4.0	4.0	1.0	1	right	1.0	1.0	1.0	1	0.04496473804119999	blockFiles/set_35/main_unc/leftBlue\GB_LB_4.xlsx
377	main_unc	True	0.0	347	0	4.0	4.0	1.0	1	right	1.0	1.0	1.0	1	0.0720778869092	blockFiles/set_35/main_unc/leftBlue\GB_LB_4.xlsx
378	main_unc	True	0.0	347	0	4.0	4.0	0.0	1	left	2.0	0.0	1.0	0	-0.041725476533199995	blockFiles/set_35/main_unc/leftBlue\GB_LB_4.xlsx
379	main_unc	True	0.0	347	0	4.0	4.0	0.0	1	left	2.0	1.0	1.0	0	-0.07088830035180001	blockFiles/set_35/main_unc/leftBlue\GB_LB_4.xlsx
380	main_unc	True	0.0	347	0	5.0	5.0	1.0	1	right	1.0	0.0	0.0	1	0.0472458476759	blockFiles/set_35/main_unc/rightBlue\GB_RB_3.xlsx
381	main_unc	True	0.0	347	0	5.0	5.0	0.0	1	left	2.0	0.0	0.0	0	-0.0144625052996	blockFiles/set_35/main_unc/rightBlue\GB_RB_3.xlsx
382	main_unc	True	0.0	347	0	5.0	5.0	0.0	0	left	1.0	0.0	0.0	1	0.00809803120792	blockFiles/set_35/main_unc/rightBlue\GB_RB_3.xlsx
383	main_unc	True	0.0	347	0	5.0	5.0	0.0	1	left	1.0	1.0	1.0	0	-0.0133082115836	blockFiles/set_35/main_unc/rightBlue\GB_RB_3.xlsx
384	main_unc	True	0.0	347	0	5.0	5.0	0.0	1	left	1.0	1.0	1.0	0	-0.0315254203789	blockFiles/set_35/main_unc/rightBlue\GB_RB_3.xlsx
385	main_unc	True	0.0	347	0	5.0	5.0	0.0	1	left	1.0	1.0	1.0	0	-0.0589107979089	blockFiles/set_35/main_unc/rightBlue\GB_RB_3.xlsx
386	main_unc	True	0.0	347	0	5.0	5.0	0.0	1	left	2.0	0.0	0.0	0	-0.021162449009700005	blockFiles/set_35/main_unc/rightBlue\GB_RB_3.xlsx
387	main_unc	True	0.0	347	0	5.0	5.0	0.0	1	left	1.0	1.0	1.0	0	-0.0634008214064	blockFiles/set_35/main_unc/rightBlue\GB_RB_3.xlsx
388	main_unc	True	0.0	347	0	5.0	5.0	1.0	1	right	2.0	1.0	1.0	1	0.0354480785131	blockFiles/set_35/main_unc/rightBlue\GB_RB_3.xlsx
389	main_unc	True	0.0	347	0	5.0	5.0	0.0	1	left	1.0	1.0	1.0	0	-0.0625283551402	blockFiles/set_35/main_unc/rightBlue\GB_RB_3.xlsx
390	main_unc	True	0.0	347	0	5.0	5.0	0.0	1	left	1.0	0.0	1.0	0	-0.04273767698559999	blockFiles/set_35/main_unc/rightBlue\GB_RB_3.xlsx
391	main_unc	True	0.0	347	0	5.0	5.0	0.0	1	left	1.0	0.0	1.0	0	-0.047590797636699995	blockFiles/set_35/main_unc/rightBlue\GB_RB_3.xlsx
392	main_unc	True	0.0	347	0	5.0	5.0	1.0	1	right	2.0	1.0	1.0	1	0.030000402499	blockFiles/set_35/main_unc/rightBlue\GB_RB_3.xlsx
393	main_unc	True	0.0	347	0	5.0	5.0	0.0	1	left	1.0	1.0	1.0	0	-0.0074190248548999995	blockFiles/set_35/main_unc/rightBlue\GB_RB_3.xlsx
394	main_unc	True	0.0	347	0	5.0	5.0	1.0	1	right	2.0	1.0	1.0	1	0.058712168093800005	blockFiles/set_35/main_unc/rightBlue\GB_RB_3.xlsx
395	main_unc	True	0.0	347	0	5.0	5.0	1.0	1	right	2.0	1.0	1.0	1	0.06980227582160001	blockFiles/set_35/main_unc/rightBlue\GB_RB_3.xlsx
396	main_unc	True	0.0	347	0	5.0	5.0	1.0	1	right	2.0	1.0	1.0	1	0.0217756049521	blockFiles/set_35/main_unc/rightBlue\GB_RB_3.xlsx
397	main_unc	True	0.0	347	0	5.0	5.0	1.0	1	right	2.0	0.0	1.0	1	0.0772529806942	blockFiles/set_35/main_unc/rightBlue\GB_RB_3.xlsx
398	main_unc	True	0.0	347	0	5.0	5.0	1.0	1	right	2.0	1.0	1.0	1	0.00351174611598	blockFiles/set_35/main_unc/rightBlue\GB_RB_3.xlsx
399	main_unc	True	0.0	347	0	5.0	5.0	0.0	1	left	1.0	1.0	1.0	0	-0.0582059556805	blockFiles/set_35/main_unc/rightBlue\GB_RB_3.xlsx
400	main_unc	True	0.0	347	0	5.0	5.0	1.0	1	right	2.0	1.0	1.0	1	0.0486507198773	blockFiles/set_35/main_unc/rightBlue\GB_RB_3.xlsx
401	main_unc	True	0.0	347	0	5.0	5.0	0.0	1	left	1.0	1.0	1.0	0	-0.0559104526229	blockFiles/set_35/main_unc/rightBlue\GB_RB_3.xlsx
402	main_unc	True	0.0	347	0	5.0	5.0	1.0	1	right	2.0	0.0	1.0	1	0.0627791119181	blockFiles/set_35/main_unc/rightBlue\GB_RB_3.xlsx
403	main_unc	True	0.0	347	0	5.0	5.0	0.0	1	left	1.0	1.0	1.0	0	-0.0269768999889	blockFiles/set_35/main_unc/rightBlue\GB_RB_3.xlsx
404	main_unc	True	0.0	347	0	5.0	5.0	0.0	1	left	1.0	0.0	1.0	0	-0.0401558945142	blockFiles/set_35/main_unc/rightBlue\GB_RB_3.xlsx
405	main_unc	True	0.0	347	0	6.0	6.0	0.0	1	left	1.0	0.0	0.0	0	-0.0728652786836	blockFiles/set_35/main_unc/leftBlue\GB_LB_2.xlsx
406	main_unc	True	0.0	347	0	6.0	6.0	1.0	1	right	2.0	1.0	0.0	1	0.035517903417300004	blockFiles/set_35/main_unc/leftBlue\GB_LB_2.xlsx
407	main_unc	True	0.0	347	0	6.0	6.0	0.0	0	left	1.0	1.0	1.0	1	0.0113507515937	blockFiles/set_35/main_unc/leftBlue\GB_LB_2.xlsx
408	main_unc	True	0.0	347	0	6.0	6.0	0.0	1	left	1.0	0.0	0.0	0	-0.0341542204283	blockFiles/set_35/main_unc/leftBlue\GB_LB_2.xlsx
409	main_unc	True	0.0	347	0	6.0	6.0	0.0	1	left	1.0	1.0	0.0	0	-0.0573762024567	blockFiles/set_35/main_unc/leftBlue\GB_LB_2.xlsx
410	main_unc	True	0.0	347	0	6.0	6.0	0.0	1	left	1.0	0.0	0.0	0	-0.0722915246524	blockFiles/set_35/main_unc/leftBlue\GB_LB_2.xlsx
411	main_unc	True	0.0	347	0	6.0	6.0	0.0	1	left	1.0	0.0	0.0	0	-0.0561443046853	blockFiles/set_35/main_unc/leftBlue\GB_LB_2.xlsx
412	main_unc	True	0.0	347	0	6.0	6.0	1.0	1	right	2.0	0.0	0.0	1	0.00446284016594	blockFiles/set_35/main_unc/leftBlue\GB_LB_2.xlsx
413	main_unc	True	0.0	347	0	6.0	6.0	0.0	0	left	2.0	1.0	0.0	1	0.0111996832304	blockFiles/set_35/main_unc/leftBlue\GB_LB_2.xlsx
414	main_unc	True	0.0	347	0	6.0	6.0	0.0	0	left	1.0	1.0	1.0	1	0.0007168890535830001	blockFiles/set_35/main_unc/leftBlue\GB_LB_2.xlsx
415	main_unc	True	0.0	347	0	6.0	6.0	0.0	1	left	1.0	0.0	0.0	0	-0.0185197843984	blockFiles/set_35/main_unc/leftBlue\GB_LB_2.xlsx
416	main_unc	True	0.0	347	0	6.0	6.0	0.0	1	left	1.0	0.0	0.0	0	-0.0552768656984	blockFiles/set_35/main_unc/leftBlue\GB_LB_2.xlsx
417	main_unc	True	0.0	347	0	6.0	6.0	0.0	1	left	1.0	0.0	0.0	0	-0.0241544741578	blockFiles/set_35/main_unc/leftBlue\GB_LB_2.xlsx
418	main_unc	True	0.0	347	0	6.0	6.0	1.0	1	right	1.0	1.0	1.0	1	0.07275557007639999	blockFiles/set_35/main_unc/leftBlue\GB_LB_2.xlsx
419	main_unc	True	0.0	347	0	6.0	6.0	0.0	1	left	2.0	1.0	1.0	0	-0.054699684288400004	blockFiles/set_35/main_unc/leftBlue\GB_LB_2.xlsx
420	main_unc	True	0.0	347	0	6.0	6.0	1.0	1	right	1.0	1.0	1.0	1	0.0597226423398	blockFiles/set_35/main_unc/leftBlue\GB_LB_2.xlsx
421	main_unc	True	0.0	347	0	6.0	6.0	0.0	1	left	2.0	0.0	1.0	0	-0.0453881952539	blockFiles/set_35/main_unc/leftBlue\GB_LB_2.xlsx
422	main_unc	True	0.0	347	0	6.0	6.0	0.0	1	left	2.0	0.0	1.0	0	-0.0032617330364899996	blockFiles/set_35/main_unc/leftBlue\GB_LB_2.xlsx
423	main_unc	True	0.0	347	0	6.0	6.0	0.0	1	left	2.0	1.0	1.0	0	-0.052221471760400005	blockFiles/set_35/main_unc/leftBlue\GB_LB_2.xlsx
424	main_unc	True	0.0	347	0	6.0	6.0	1.0	1	right	1.0	1.0	1.0	1	0.00717551903799	blockFiles/set_35/main_unc/leftBlue\GB_LB_2.xlsx
425	main_unc	True	0.0	347	0	6.0	6.0	1.0	1	right	1.0	0.0	1.0	1	0.032279905490599996	blockFiles/set_35/main_unc/leftBlue\GB_LB_2.xlsx
426	main_unc	True	0.0	347	0	6.0	6.0	1.0	1	right	1.0	1.0	1.0	1	0.0586726743542	blockFiles/set_35/main_unc/leftBlue\GB_LB_2.xlsx
427	main_unc	True	0.0	347	0	6.0	6.0	1.0	1	right	1.0	1.0	1.0	1	0.0727474448085	blockFiles/set_35/main_unc/leftBlue\GB_LB_2.xlsx
428	main_unc	True	0.0	347	0	6.0	6.0	0.0	1	left	2.0	1.0	1.0	0	-0.0540938112326	blockFiles/set_35/main_unc/leftBlue\GB_LB_2.xlsx
429	main_unc	True	0.0	347	0	6.0	6.0	0.0	1	left	2.0	1.0	1.0	0	-0.0401531114429	blockFiles/set_35/main_unc/leftBlue\GB_LB_2.xlsx
430	main_unc	True	0.0	347	0	7.0	7.0	0.0	0	left	2.0	1.0	1.0	1	0.00582963261753	blockFiles/set_35/main_unc/rightBlue\GB_RB_2.xlsx
431	main_unc	True	0.0	347	0	7.0	7.0	0.0	1	left	1.0	1.0	1.0	0	-0.0746775029972	blockFiles/set_35/main_unc/rightBlue\GB_RB_2.xlsx
432	main_unc	True	0.0	347	0	7.0	7.0	1.0	1	right	2.0	1.0	1.0	1	0.030184201169799998	blockFiles/set_35/main_unc/rightBlue\GB_RB_2.xlsx
433	main_unc	True	0.0	347	0	7.0	7.0	1.0	1	right	2.0	0.0	1.0	1	0.023981172535599997	blockFiles/set_35/main_unc/rightBlue\GB_RB_2.xlsx
434	main_unc	True	0.0	347	0	7.0	7.0	0.0	1	left	1.0	1.0	1.0	0	-0.0584202635847	blockFiles/set_35/main_unc/rightBlue\GB_RB_2.xlsx
435	main_unc	True	0.0	347	0	7.0	7.0	1.0	0	right	2.0	0.0	0.0	0	-0.010645744632899998	blockFiles/set_35/main_unc/rightBlue\GB_RB_2.xlsx
436	main_unc	True	0.0	347	0	7.0	7.0	0.0	1	left	1.0	1.0	1.0	0	-0.04544633470480001	blockFiles/set_35/main_unc/rightBlue\GB_RB_2.xlsx
437	main_unc	True	0.0	347	0	7.0	7.0	0.0	1	left	1.0	1.0	1.0	0	-0.0690416529216	blockFiles/set_35/main_unc/rightBlue\GB_RB_2.xlsx
438	main_unc	True	0.0	347	0	7.0	7.0	1.0	0	right	2.0	0.0	0.0	0	-0.00242963615805	blockFiles/set_35/main_unc/rightBlue\GB_RB_2.xlsx
439	main_unc	True	0.0	347	0	7.0	7.0	0.0	1	left	1.0	1.0	1.0	0	-0.0417912684754	blockFiles/set_35/main_unc/rightBlue\GB_RB_2.xlsx
440	main_unc	True	0.0	347	0	7.0	7.0	0.0	1	left	1.0	1.0	1.0	0	-0.0268404951692	blockFiles/set_35/main_unc/rightBlue\GB_RB_2.xlsx
441	main_unc	True	0.0	347	0	7.0	7.0	0.0	1	left	1.0	0.0	1.0	0	-0.024027602188300003	blockFiles/set_35/main_unc/rightBlue\GB_RB_2.xlsx
442	main_unc	True	0.0	347	0	7.0	7.0	1.0	1	right	2.0	1.0	1.0	1	0.05785683540630001	blockFiles/set_35/main_unc/rightBlue\GB_RB_2.xlsx
443	main_unc	True	0.0	347	0	7.0	7.0	1.0	1	right	2.0	1.0	1.0	1	0.0211467808671	blockFiles/set_35/main_unc/rightBlue\GB_RB_2.xlsx
444	main_unc	True	0.0	347	0	7.0	7.0	0.0	1	left	1.0	0.0	1.0	0	-0.014421073626700002	blockFiles/set_35/main_unc/rightBlue\GB_RB_2.xlsx
445	main_unc	True	0.0	347	0	7.0	7.0	1.0	1	right	2.0	1.0	1.0	1	0.0700019008853	blockFiles/set_35/main_unc/rightBlue\GB_RB_2.xlsx
446	main_unc	True	0.0	347	0	7.0	7.0	0.0	1	left	1.0	1.0	1.0	0	-0.00695176646113	blockFiles/set_35/main_unc/rightBlue\GB_RB_2.xlsx
447	main_unc	True	0.0	347	0	7.0	7.0	1.0	1	right	2.0	1.0	1.0	1	0.022535876817999997	blockFiles/set_35/main_unc/rightBlue\GB_RB_2.xlsx
448	main_unc	True	0.0	347	0	7.0	7.0	0.0	1	left	1.0	1.0	1.0	0	-0.060136999953500005	blockFiles/set_35/main_unc/rightBlue\GB_RB_2.xlsx
449	main_unc	True	0.0	347	0	7.0	7.0	1.0	1	right	2.0	1.0	1.0	1	0.027918806895599998	blockFiles/set_35/main_unc/rightBlue\GB_RB_2.xlsx
450	main_unc	True	0.0	347	0	7.0	7.0	1.0	1	right	2.0	1.0	1.0	1	0.0634137939848	blockFiles/set_35/main_unc/rightBlue\GB_RB_2.xlsx
451	main_unc	True	0.0	347	0	7.0	7.0	1.0	1	right	2.0	0.0	1.0	1	0.04941781267519999	blockFiles/set_35/main_unc/rightBlue\GB_RB_2.xlsx
452	main_unc	True	0.0	347	0	7.0	7.0	1.0	1	right	2.0	1.0	1.0	1	0.0471391719393	blockFiles/set_35/main_unc/rightBlue\GB_RB_2.xlsx
453	main_unc	True	0.0	347	0	7.0	7.0	1.0	1	right	2.0	1.0	1.0	1	0.0555021259375	blockFiles/set_35/main_unc/rightBlue\GB_RB_2.xlsx
454	main_unc	True	0.0	347	0	7.0	7.0	0.0	1	left	1.0	1.0	1.0	0	-0.039577868823000004	blockFiles/set_35/main_unc/rightBlue\GB_RB_2.xlsx
455	main_unc	True	0.0	347	0	8.0	8.0	1.0	1	right	1.0	0.0	0.0	1	0.0786999847554	blockFiles/set_35/main_unc/rightBlue\GB_RB_5.xlsx
456	main_unc	True	0.0	347	0	8.0	8.0	0.0	1	left	2.0	1.0	0.0	0	-0.05734010363	blockFiles/set_35/main_unc/rightBlue\GB_RB_5.xlsx
457	main_unc	True	0.0	347	0	8.0	8.0	0.0	1	left	2.0	0.0	0.0	0	-0.0662906471081	blockFiles/set_35/main_unc/rightBlue\GB_RB_5.xlsx
458	main_unc	True	0.0	347	0	8.0	8.0	0.0	1	left	1.0	1.0	1.0	0	-0.019042108375599998	blockFiles/set_35/main_unc/rightBlue\GB_RB_5.xlsx
459	main_unc	True	0.0	347	0	8.0	8.0	1.0	1	right	2.0	0.0	1.0	1	0.0141755001806	blockFiles/set_35/main_unc/rightBlue\GB_RB_5.xlsx
460	main_unc	True	0.0	347	0	8.0	8.0	1.0	1	right	2.0	1.0	1.0	1	0.0126340929791	blockFiles/set_35/main_unc/rightBlue\GB_RB_5.xlsx
461	main_unc	True	0.0	347	0	8.0	8.0	1.0	1	right	2.0	1.0	1.0	1	0.0630870952085	blockFiles/set_35/main_unc/rightBlue\GB_RB_5.xlsx
462	main_unc	True	0.0	347	0	8.0	8.0	0.0	1	left	1.0	1.0	1.0	0	-0.0280904811993	blockFiles/set_35/main_unc/rightBlue\GB_RB_5.xlsx
463	main_unc	True	0.0	347	0	8.0	8.0	0.0	1	left	1.0	1.0	1.0	0	-0.0179097809829	blockFiles/set_35/main_unc/rightBlue\GB_RB_5.xlsx
464	main_unc	True	0.0	347	0	8.0	8.0	1.0	1	right	2.0	1.0	1.0	1	0.0652661783062	blockFiles/set_35/main_unc/rightBlue\GB_RB_5.xlsx
465	main_unc	True	0.0	347	0	8.0	8.0	1.0	1	right	2.0	1.0	1.0	1	0.0710668302886	blockFiles/set_35/main_unc/rightBlue\GB_RB_5.xlsx
466	main_unc	True	0.0	347	0	8.0	8.0	0.0	0	left	1.0	0.0	0.0	1	0.015191367398899999	blockFiles/set_35/main_unc/rightBlue\GB_RB_5.xlsx
467	main_unc	True	0.0	347	0	8.0	8.0	0.0	1	left	1.0	0.0	1.0	0	-0.023366624750200002	blockFiles/set_35/main_unc/rightBlue\GB_RB_5.xlsx
468	main_unc	True	0.0	347	0	8.0	8.0	0.0	1	left	1.0	1.0	1.0	0	-0.060238866079599995	blockFiles/set_35/main_unc/rightBlue\GB_RB_5.xlsx
469	main_unc	True	0.0	347	0	8.0	8.0	1.0	1	right	2.0	1.0	1.0	1	0.06564002942290001	blockFiles/set_35/main_unc/rightBlue\GB_RB_5.xlsx
470	main_unc	True	0.0	347	0	8.0	8.0	1.0	1	right	2.0	1.0	1.0	1	0.0280084389448	blockFiles/set_35/main_unc/rightBlue\GB_RB_5.xlsx
471	main_unc	True	0.0	347	0	8.0	8.0	0.0	1	left	1.0	1.0	1.0	0	-0.0683617880382	blockFiles/set_35/main_unc/rightBlue\GB_RB_5.xlsx
472	main_unc	True	0.0	347	0	8.0	8.0	1.0	1	right	2.0	0.0	1.0	1	0.023858967423400004	blockFiles/set_35/main_unc/rightBlue\GB_RB_5.xlsx
473	main_unc	True	0.0	347	0	8.0	8.0	0.0	0	left	1.0	1.0	0.0	1	0.00197348311543	blockFiles/set_35/main_unc/rightBlue\GB_RB_5.xlsx
474	main_unc	True	0.0	347	0	8.0	8.0	0.0	1	left	1.0	1.0	1.0	0	-0.0187589370832	blockFiles/set_35/main_unc/rightBlue\GB_RB_5.xlsx
475	main_unc	True	0.0	347	0	8.0	8.0	0.0	1	left	1.0	1.0	1.0	0	-0.0312483888492	blockFiles/set_35/main_unc/rightBlue\GB_RB_5.xlsx
476	main_unc	True	0.0	347	0	8.0	8.0	0.0	1	left	1.0	1.0	1.0	0	-0.0660802120529	blockFiles/set_35/main_unc/rightBlue\GB_RB_5.xlsx
477	main_unc	True	0.0	347	0	8.0	8.0	1.0	1	right	2.0	1.0	1.0	1	0.071912785247	blockFiles/set_35/main_unc/rightBlue\GB_RB_5.xlsx
478	main_unc	True	0.0	347	0	8.0	8.0	0.0	0	left	2.0	1.0	1.0	1	0.00474160933867	blockFiles/set_35/main_unc/rightBlue\GB_RB_5.xlsx
479	main_unc	True	0.0	347	0	8.0	8.0	0.0	1	left	1.0	1.0	1.0	0	-0.035479918494800006	blockFiles/set_35/main_unc/rightBlue\GB_RB_5.xlsx
480	main_unc	True	0.0	347	0	9.0	9.0	0.0	1	left	2.0	0.0	0.0	0	-0.0241325975023	blockFiles/set_35/main_unc/rightBlue\GB_RB_4.xlsx
481	main_unc	True	0.0	347	0	9.0	9.0	1.0	1	right	1.0	0.0	0.0	1	0.00835253855214	blockFiles/set_35/main_unc/rightBlue\GB_RB_4.xlsx
482	main_unc	True	0.0	347	0	9.0	9.0	1.0	1	right	1.0	0.0	0.0	1	0.0715876952745	blockFiles/set_35/main_unc/rightBlue\GB_RB_4.xlsx
483	main_unc	True	0.0	347	0	9.0	9.0	1.0	1	right	2.0	0.0	1.0	1	0.04751618592069999	blockFiles/set_35/main_unc/rightBlue\GB_RB_4.xlsx
484	main_unc	True	0.0	347	0	9.0	9.0	0.0	1	left	1.0	1.0	1.0	0	-0.0190167364292	blockFiles/set_35/main_unc/rightBlue\GB_RB_4.xlsx
485	main_unc	True	0.0	347	0	9.0	9.0	0.0	1	left	1.0	1.0	1.0	0	-0.0544795975834	blockFiles/set_35/main_unc/rightBlue\GB_RB_4.xlsx
486	main_unc	True	0.0	347	0	9.0	9.0	1.0	0	right	1.0	0.0	1.0	0	-0.0151226574369	blockFiles/set_35/main_unc/rightBlue\GB_RB_4.xlsx
487	main_unc	True	0.0	347	0	9.0	9.0	0.0	1	left	1.0	1.0	1.0	0	-0.059082925226499994	blockFiles/set_35/main_unc/rightBlue\GB_RB_4.xlsx
488	main_unc	True	0.0	347	0	9.0	9.0	1.0	0	right	2.0	0.0	0.0	0	-0.00178600542247	blockFiles/set_35/main_unc/rightBlue\GB_RB_4.xlsx
489	main_unc	True	0.0	347	0	9.0	9.0	1.0	1	right	2.0	1.0	1.0	1	0.014910245426	blockFiles/set_35/main_unc/rightBlue\GB_RB_4.xlsx
490	main_unc	True	0.0	347	0	9.0	9.0	0.0	1	left	1.0	1.0	1.0	0	-0.0428935920075	blockFiles/set_35/main_unc/rightBlue\GB_RB_4.xlsx
491	main_unc	True	0.0	347	0	9.0	9.0	1.0	1	right	2.0	1.0	1.0	1	0.07134066004310001	blockFiles/set_35/main_unc/rightBlue\GB_RB_4.xlsx
492	main_unc	True	0.0	347	0	9.0	9.0	1.0	1	right	2.0	0.0	1.0	1	0.0177884948812	blockFiles/set_35/main_unc/rightBlue\GB_RB_4.xlsx
493	main_unc	True	0.0	347	0	9.0	9.0	1.0	1	right	2.0	0.0	1.0	1	0.0197554543242	blockFiles/set_35/main_unc/rightBlue\GB_RB_4.xlsx
494	main_unc	True	0.0	347	0	9.0	9.0	1.0	1	right	2.0	1.0	1.0	1	0.06650393698359999	blockFiles/set_35/main_unc/rightBlue\GB_RB_4.xlsx
495	main_unc	True	0.0	347	0	9.0	9.0	0.0	1	left	1.0	1.0	1.0	0	-0.0778214238957	blockFiles/set_35/main_unc/rightBlue\GB_RB_4.xlsx
496	main_unc	True	0.0	347	0	9.0	9.0	0.0	1	left	1.0	0.0	1.0	0	-0.00175563326105	blockFiles/set_35/main_unc/rightBlue\GB_RB_4.xlsx
497	main_unc	True	0.0	347	0	9.0	9.0	1.0	1	right	2.0	1.0	1.0	1	0.044860469922400004	blockFiles/set_35/main_unc/rightBlue\GB_RB_4.xlsx
498	main_unc	True	0.0	347	0	9.0	9.0	1.0	1	right	2.0	1.0	1.0	1	0.048045943044099995	blockFiles/set_35/main_unc/rightBlue\GB_RB_4.xlsx
499	main_unc	True	0.0	347	0	9.0	9.0	0.0	1	left	1.0	1.0	1.0	0	-0.0690835252963	blockFiles/set_35/main_unc/rightBlue\GB_RB_4.xlsx
500	main_unc	True	0.0	347	0	9.0	9.0	0.0	0	left	1.0	0.0	0.0	1	0.006820256542409999	blockFiles/set_35/main_unc/rightBlue\GB_RB_4.xlsx
501	main_unc	True	0.0	347	0	9.0	9.0	0.0	1	left	1.0	1.0	1.0	0	-0.0654366112128	blockFiles/set_35/main_unc/rightBlue\GB_RB_4.xlsx
502	main_unc	True	0.0	347	0	9.0	9.0	0.0	1	left	1.0	1.0	1.0	0	-0.0653787983954	blockFiles/set_35/main_unc/rightBlue\GB_RB_4.xlsx
503	main_unc	True	0.0	347	0	9.0	9.0	1.0	1	right	2.0	1.0	1.0	1	0.021992736943099996	blockFiles/set_35/main_unc/rightBlue\GB_RB_4.xlsx
504	main_unc	True	0.0	347	0	9.0	9.0	1.0	1	right	2.0	1.0	1.0	1	0.0431822023354	blockFiles/set_35/main_unc/rightBlue\GB_RB_4.xlsx
505	main_unc	True	0.0	347	0	10.0	10.0	1.0	1	right	1.0	0.0	0.0	1	0.0364141841792	blockFiles/set_35/main_unc/rightBlue\GB_RB_1.xlsx
506	main_unc	True	0.0	347	0	10.0	10.0	0.0	1	left	2.0	0.0	0.0	0	-0.039900414850599995	blockFiles/set_35/main_unc/rightBlue\GB_RB_1.xlsx
507	main_unc	True	0.0	347	0	10.0	10.0	0.0	1	left	2.0	0.0	0.0	0	-0.06289257681	blockFiles/set_35/main_unc/rightBlue\GB_RB_1.xlsx
508	main_unc	True	0.0	347	0	10.0	10.0	0.0	1	left	1.0	1.0	1.0	0	-0.05272163454440001	blockFiles/set_35/main_unc/rightBlue\GB_RB_1.xlsx
509	main_unc	True	0.0	347	0	10.0	10.0	1.0	1	right	2.0	1.0	1.0	1	0.025930415839	blockFiles/set_35/main_unc/rightBlue\GB_RB_1.xlsx
510	main_unc	True	0.0	347	0	10.0	10.0	0.0	1	left	1.0	0.0	1.0	0	-0.0531664620154	blockFiles/set_35/main_unc/rightBlue\GB_RB_1.xlsx
511	main_unc	True	0.0	347	0	10.0	10.0	0.0	1	left	1.0	1.0	1.0	0	-0.038284048549800005	blockFiles/set_35/main_unc/rightBlue\GB_RB_1.xlsx
512	main_unc	True	0.0	347	0	10.0	10.0	0.0	1	left	1.0	0.0	1.0	0	-0.0168221849389	blockFiles/set_35/main_unc/rightBlue\GB_RB_1.xlsx
513	main_unc	True	0.0	347	0	10.0	10.0	0.0	1	left	1.0	1.0	1.0	0	-0.0715747240186	blockFiles/set_35/main_unc/rightBlue\GB_RB_1.xlsx
514	main_unc	True	0.0	347	0	10.0	10.0	1.0	1	right	1.0	0.0	0.0	1	0.0034581496194000002	blockFiles/set_35/main_unc/rightBlue\GB_RB_1.xlsx
515	main_unc	True	0.0	347	0	10.0	10.0	1.0	1	right	2.0	1.0	1.0	1	0.0753089714423	blockFiles/set_35/main_unc/rightBlue\GB_RB_1.xlsx
516	main_unc	True	0.0	347	0	10.0	10.0	1.0	1	right	2.0	0.0	1.0	1	0.056045728419000004	blockFiles/set_35/main_unc/rightBlue\GB_RB_1.xlsx
517	main_unc	True	0.0	347	0	10.0	10.0	1.0	1	right	2.0	0.0	1.0	1	0.014523035399599999	blockFiles/set_35/main_unc/rightBlue\GB_RB_1.xlsx
518	main_unc	True	0.0	347	0	10.0	10.0	0.0	0	left	1.0	0.0	0.0	1	0.00601527851075	blockFiles/set_35/main_unc/rightBlue\GB_RB_1.xlsx
519	main_unc	True	0.0	347	0	10.0	10.0	1.0	1	right	2.0	1.0	1.0	1	0.013425023388100001	blockFiles/set_35/main_unc/rightBlue\GB_RB_1.xlsx
520	main_unc	True	0.0	347	0	10.0	10.0	0.0	1	left	1.0	1.0	1.0	0	-0.0593360177986	blockFiles/set_35/main_unc/rightBlue\GB_RB_1.xlsx
521	main_unc	True	0.0	347	0	10.0	10.0	0.0	1	left	1.0	0.0	1.0	0	-0.070634326227	blockFiles/set_35/main_unc/rightBlue\GB_RB_1.xlsx
522	main_unc	True	0.0	347	0	10.0	10.0	1.0	0	right	2.0	0.0	0.0	0	-0.0179735133983	blockFiles/set_35/main_unc/rightBlue\GB_RB_1.xlsx
523	main_unc	True	0.0	347	0	10.0	10.0	1.0	1	right	2.0	1.0	1.0	1	0.067182784453	blockFiles/set_35/main_unc/rightBlue\GB_RB_1.xlsx
524	main_unc	True	0.0	347	0	10.0	10.0	0.0	1	left	1.0	1.0	1.0	0	-0.0636719194986	blockFiles/set_35/main_unc/rightBlue\GB_RB_1.xlsx
525	main_unc	True	0.0	347	0	10.0	10.0	1.0	1	right	2.0	1.0	1.0	1	0.0600043553859	blockFiles/set_35/main_unc/rightBlue\GB_RB_1.xlsx
526	main_unc	True	0.0	347	0	10.0	10.0	0.0	0	left	1.0	0.0	0.0	1	0.00864364465699	blockFiles/set_35/main_unc/rightBlue\GB_RB_1.xlsx
527	main_unc	True	0.0	347	0	10.0	10.0	0.0	1	left	1.0	1.0	1.0	0	-0.0435078354925	blockFiles/set_35/main_unc/rightBlue\GB_RB_1.xlsx
528	main_unc	True	0.0	347	0	10.0	10.0	0.0	1	left	1.0	1.0	1.0	0	-0.042697165664300006	blockFiles/set_35/main_unc/rightBlue\GB_RB_1.xlsx
529	main_unc	True	0.0	347	0	10.0	10.0	1.0	1	right	2.0	1.0	1.0	1	0.015692924615	blockFiles/set_35/main_unc/rightBlue\GB_RB_1.xlsx
530	main_unc	True	0.0	347	0	11.0	11.0	1.0	1	right	1.0	1.0	1.0	1	0.0347700996883	blockFiles/set_35/main_unc/leftBlue\GB_LB_3.xlsx
531	main_unc	True	0.0	347	0	11.0	11.0	0.0	1	left	2.0	1.0	1.0	0	-0.0198399263807	blockFiles/set_35/main_unc/leftBlue\GB_LB_3.xlsx
532	main_unc	True	0.0	347	0	11.0	11.0	0.0	0	left	2.0	0.0	0.0	1	0.0238442432694	blockFiles/set_35/main_unc/leftBlue\GB_LB_3.xlsx
533	main_unc	True	0.0	347	0	11.0	11.0	1.0	1	right	1.0	0.0	1.0	1	0.050841874368500004	blockFiles/set_35/main_unc/leftBlue\GB_LB_3.xlsx
534	main_unc	True	0.0	347	0	11.0	11.0	0.0	1	left	2.0	1.0	1.0	0	-0.0435777763277	blockFiles/set_35/main_unc/leftBlue\GB_LB_3.xlsx
535	main_unc	True	0.0	347	0	11.0	11.0	0.0	1	left	2.0	0.0	1.0	0	-0.07982426716010001	blockFiles/set_35/main_unc/leftBlue\GB_LB_3.xlsx
536	main_unc	True	0.0	347	0	11.0	11.0	0.0	1	left	2.0	1.0	1.0	0	-0.041008099895000004	blockFiles/set_35/main_unc/leftBlue\GB_LB_3.xlsx
537	main_unc	True	0.0	347	0	11.0	11.0	0.0	0	left	1.0	0.0	1.0	1	0.018762293364900002	blockFiles/set_35/main_unc/leftBlue\GB_LB_3.xlsx
538	main_unc	True	0.0	347	0	11.0	11.0	0.0	0	left	2.0	0.0	0.0	1	0.00248433822766	blockFiles/set_35/main_unc/leftBlue\GB_LB_3.xlsx
539	main_unc	True	0.0	347	0	11.0	11.0	0.0	1	left	2.0	0.0	1.0	0	-0.054878454171099995	blockFiles/set_35/main_unc/leftBlue\GB_LB_3.xlsx
540	main_unc	True	0.0	347	0	11.0	11.0	0.0	1	left	2.0	1.0	1.0	0	-0.0436198620498	blockFiles/set_35/main_unc/leftBlue\GB_LB_3.xlsx
541	main_unc	True	0.0	347	0	11.0	11.0	0.0	1	left	2.0	1.0	1.0	0	-0.07119605781510001	blockFiles/set_35/main_unc/leftBlue\GB_LB_3.xlsx
542	main_unc	True	0.0	347	0	11.0	11.0	1.0	1	right	1.0	1.0	1.0	1	0.05215399431059999	blockFiles/set_35/main_unc/leftBlue\GB_LB_3.xlsx
543	main_unc	True	0.0	347	0	11.0	11.0	1.0	1	right	1.0	1.0	1.0	1	0.0743640218489	blockFiles/set_35/main_unc/leftBlue\GB_LB_3.xlsx
544	main_unc	True	0.0	347	0	11.0	11.0	0.0	1	left	2.0	1.0	1.0	0	-0.0211355603114	blockFiles/set_35/main_unc/leftBlue\GB_LB_3.xlsx
545	main_unc	True	0.0	347	0	11.0	11.0	0.0	1	left	2.0	1.0	1.0	0	-0.04492203207690001	blockFiles/set_35/main_unc/leftBlue\GB_LB_3.xlsx
546	main_unc	True	0.0	347	0	11.0	11.0	0.0	0	left	2.0	0.0	0.0	1	0.00381595425308	blockFiles/set_35/main_unc/leftBlue\GB_LB_3.xlsx
547	main_unc	True	0.0	347	0	11.0	11.0	0.0	1	left	2.0	1.0	1.0	0	-0.0343620304391	blockFiles/set_35/main_unc/leftBlue\GB_LB_3.xlsx
548	main_unc	True	0.0	347	0	11.0	11.0	0.0	1	left	2.0	1.0	1.0	0	-0.0745547063276	blockFiles/set_35/main_unc/leftBlue\GB_LB_3.xlsx
549	main_unc	True	0.0	347	0	11.0	11.0	1.0	1	right	1.0	1.0	1.0	1	0.0521980129555	blockFiles/set_35/main_unc/leftBlue\GB_LB_3.xlsx
550	main_unc	True	0.0	347	0	11.0	11.0	0.0	1	left	2.0	0.0	1.0	0	-0.0468575678952	blockFiles/set_35/main_unc/leftBlue\GB_LB_3.xlsx
551	main_unc	True	0.0	347	0	11.0	11.0	1.0	1	right	1.0	0.0	1.0	1	0.0203411774337	blockFiles/set_35/main_unc/leftBlue\GB_LB_3.xlsx
552	main_unc	True	0.0	347	0	11.0	11.0	1.0	1	right	1.0	1.0	1.0	1	0.0536013590358	blockFiles/set_35/main_unc/leftBlue\GB_LB_3.xlsx
553	main_unc	True	0.0	347	0	11.0	11.0	0.0	1	left	2.0	1.0	1.0	0	-0.047975390628000006	blockFiles/set_35/main_unc/leftBlue\GB_LB_3.xlsx
554	main_unc	True	0.0	347	0	11.0	11.0	0.0	1	left	2.0	1.0	1.0	0	-0.021467707883599998	blockFiles/set_35/main_unc/leftBlue\GB_LB_3.xlsx
