	trial_type	complete	missIndex	participant	id	blockNumber	b_t	d_t	decision1.corr	decision1.keys	a_t	r_t	decision2.corr	s_t	u_t	block_file
0	main_safe	True	0.0	243	0	0.0	0.0	0.0	1	left	1.0	0.0	0.0	0	-0.08	blockFiles/set_1/main_safe/leftBlue\GB_LB_3.xlsx
1	main_safe	True	0.0	243	0	0.0	0.0	1.0	1	right	2.0	0.0	0.0	1	0.08	blockFiles/set_1/main_safe/leftBlue\GB_LB_3.xlsx
2	main_safe	True	0.0	243	0	0.0	0.0	0.0	1	left	2.0	1.0	1.0	0	-0.08	blockFiles/set_1/main_safe/leftBlue\GB_LB_3.xlsx
3	main_safe	True	0.0	243	0	0.0	0.0	1.0	1	right	1.0	1.0	1.0	1	0.08	blockFiles/set_1/main_safe/leftBlue\GB_LB_3.xlsx
4	main_safe	True	0.0	243	0	0.0	0.0	1.0	1	right	1.0	0.0	1.0	1	0.08	blockFiles/set_1/main_safe/leftBlue\GB_LB_3.xlsx
5	main_safe	True	0.0	243	0	0.0	0.0	0.0	1	left	2.0	1.0	1.0	0	-0.08	blockFiles/set_1/main_safe/leftBlue\GB_LB_3.xlsx
6	main_safe	True	0.0	243	0	0.0	0.0	1.0	1	right	1.0	1.0	1.0	1	0.08	blockFiles/set_1/main_safe/leftBlue\GB_LB_3.xlsx
7	main_safe	True	0.0	243	0	0.0	0.0	0.0	1	left	2.0	1.0	1.0	0	-0.08	blockFiles/set_1/main_safe/leftBlue\GB_LB_3.xlsx
8	main_safe	True	0.0	243	0	0.0	0.0	0.0	1	left	2.0	1.0	1.0	0	-0.08	blockFiles/set_1/main_safe/leftBlue\GB_LB_3.xlsx
9	main_safe	True	0.0	243	0	0.0	0.0	1.0	1	right	1.0	1.0	1.0	1	0.08	blockFiles/set_1/main_safe/leftBlue\GB_LB_3.xlsx
10	main_safe	True	0.0	243	0	0.0	0.0	1.0	1	right	1.0	1.0	1.0	1	0.08	blockFiles/set_1/main_safe/leftBlue\GB_LB_3.xlsx
11	main_safe	True	0.0	243	0	0.0	0.0	1.0	1	right	1.0	1.0	1.0	1	0.08	blockFiles/set_1/main_safe/leftBlue\GB_LB_3.xlsx
12	main_safe	True	0.0	243	0	0.0	0.0	1.0	1	right	1.0	1.0	1.0	1	0.08	blockFiles/set_1/main_safe/leftBlue\GB_LB_3.xlsx
13	main_safe	True	0.0	243	0	0.0	0.0	1.0	1	right	1.0	1.0	1.0	1	0.08	blockFiles/set_1/main_safe/leftBlue\GB_LB_3.xlsx
14	main_safe	True	0.0	243	0	0.0	0.0	0.0	1	left	2.0	1.0	1.0	0	-0.08	blockFiles/set_1/main_safe/leftBlue\GB_LB_3.xlsx
15	main_safe	True	0.0	243	0	0.0	0.0	0.0	1	left	2.0	0.0	1.0	0	-0.08	blockFiles/set_1/main_safe/leftBlue\GB_LB_3.xlsx
16	main_safe	True	0.0	243	0	0.0	0.0	0.0	1	left	2.0	1.0	1.0	0	-0.08	blockFiles/set_1/main_safe/leftBlue\GB_LB_3.xlsx
17	main_safe	True	0.0	243	0	0.0	0.0	0.0	1	left	2.0	1.0	1.0	0	-0.08	blockFiles/set_1/main_safe/leftBlue\GB_LB_3.xlsx
18	main_safe	True	0.0	243	0	0.0	0.0	0.0	1	left	2.0	1.0	1.0	0	-0.08	blockFiles/set_1/main_safe/leftBlue\GB_LB_3.xlsx
19	main_safe	True	0.0	243	0	0.0	0.0	1.0	1	right	1.0	0.0	1.0	1	0.08	blockFiles/set_1/main_safe/leftBlue\GB_LB_3.xlsx
20	main_safe	True	0.0	243	0	0.0	0.0	0.0	1	left	2.0	0.0	1.0	0	-0.08	blockFiles/set_1/main_safe/leftBlue\GB_LB_3.xlsx
21	main_safe	True	0.0	243	0	0.0	0.0	1.0	1	right	1.0	1.0	1.0	1	0.08	blockFiles/set_1/main_safe/leftBlue\GB_LB_3.xlsx
22	main_safe	True	0.0	243	0	0.0	0.0	0.0	1	left	2.0	0.0	1.0	0	-0.08	blockFiles/set_1/main_safe/leftBlue\GB_LB_3.xlsx
23	main_safe	True	0.0	243	0	0.0	0.0	1.0	1	right	1.0	1.0	1.0	1	0.08	blockFiles/set_1/main_safe/leftBlue\GB_LB_3.xlsx
24	main_safe	True	0.0	243	0	0.0	0.0	0.0	1	left	2.0	1.0	1.0	0	-0.08	blockFiles/set_1/main_safe/leftBlue\GB_LB_3.xlsx
25	main_safe	True	1.0	243	0	1.0	1.0	n/a	0	None	n/a	0.0	n/a	1	0.08	blockFiles/set_1/main_safe/rightBlue\GB_RB_2.xlsx
26	main_safe	True	0.0	243	0	1.0	1.0	0.0	1	left	1.0	1.0	1.0	0	-0.08	blockFiles/set_1/main_safe/rightBlue\GB_RB_2.xlsx
27	main_safe	True	0.0	243	0	1.0	1.0	0.0	1	left	1.0	1.0	1.0	0	-0.08	blockFiles/set_1/main_safe/rightBlue\GB_RB_2.xlsx
28	main_safe	True	0.0	243	0	1.0	1.0	1.0	1	right	2.0	1.0	1.0	1	0.08	blockFiles/set_1/main_safe/rightBlue\GB_RB_2.xlsx
29	main_safe	True	0.0	243	0	1.0	1.0	0.0	1	left	1.0	0.0	1.0	0	-0.08	blockFiles/set_1/main_safe/rightBlue\GB_RB_2.xlsx
30	main_safe	True	0.0	243	0	1.0	1.0	0.0	1	left	1.0	1.0	1.0	0	-0.08	blockFiles/set_1/main_safe/rightBlue\GB_RB_2.xlsx
31	main_safe	True	0.0	243	0	1.0	1.0	1.0	1	right	2.0	0.0	1.0	1	0.08	blockFiles/set_1/main_safe/rightBlue\GB_RB_2.xlsx
32	main_safe	True	0.0	243	0	1.0	1.0	0.0	1	left	1.0	1.0	1.0	0	-0.08	blockFiles/set_1/main_safe/rightBlue\GB_RB_2.xlsx
33	main_safe	True	0.0	243	0	1.0	1.0	1.0	1	right	2.0	1.0	1.0	1	0.08	blockFiles/set_1/main_safe/rightBlue\GB_RB_2.xlsx
34	main_safe	True	0.0	243	0	1.0	1.0	1.0	1	right	2.0	1.0	1.0	1	0.08	blockFiles/set_1/main_safe/rightBlue\GB_RB_2.xlsx
35	main_safe	True	0.0	243	0	1.0	1.0	1.0	1	right	2.0	0.0	1.0	1	0.08	blockFiles/set_1/main_safe/rightBlue\GB_RB_2.xlsx
36	main_safe	True	0.0	243	0	1.0	1.0	1.0	1	right	2.0	1.0	1.0	1	0.08	blockFiles/set_1/main_safe/rightBlue\GB_RB_2.xlsx
37	main_safe	True	0.0	243	0	1.0	1.0	0.0	1	left	1.0	1.0	1.0	0	-0.08	blockFiles/set_1/main_safe/rightBlue\GB_RB_2.xlsx
38	main_safe	True	0.0	243	0	1.0	1.0	0.0	1	left	1.0	1.0	1.0	0	-0.08	blockFiles/set_1/main_safe/rightBlue\GB_RB_2.xlsx
39	main_safe	True	0.0	243	0	1.0	1.0	0.0	1	left	1.0	1.0	1.0	0	-0.08	blockFiles/set_1/main_safe/rightBlue\GB_RB_2.xlsx
40	main_safe	True	0.0	243	0	1.0	1.0	0.0	1	left	1.0	1.0	1.0	0	-0.08	blockFiles/set_1/main_safe/rightBlue\GB_RB_2.xlsx
41	main_safe	True	0.0	243	0	1.0	1.0	1.0	1	right	2.0	1.0	1.0	1	0.08	blockFiles/set_1/main_safe/rightBlue\GB_RB_2.xlsx
42	main_safe	True	0.0	243	0	1.0	1.0	0.0	1	left	1.0	0.0	1.0	0	-0.08	blockFiles/set_1/main_safe/rightBlue\GB_RB_2.xlsx
43	main_safe	True	0.0	243	0	1.0	1.0	0.0	1	left	1.0	1.0	1.0	0	-0.08	blockFiles/set_1/main_safe/rightBlue\GB_RB_2.xlsx
44	main_safe	True	0.0	243	0	1.0	1.0	0.0	1	left	1.0	1.0	1.0	0	-0.08	blockFiles/set_1/main_safe/rightBlue\GB_RB_2.xlsx
45	main_safe	True	0.0	243	0	1.0	1.0	0.0	1	left	1.0	1.0	1.0	0	-0.08	blockFiles/set_1/main_safe/rightBlue\GB_RB_2.xlsx
46	main_safe	True	0.0	243	0	1.0	1.0	1.0	1	right	2.0	1.0	1.0	1	0.08	blockFiles/set_1/main_safe/rightBlue\GB_RB_2.xlsx
47	main_safe	True	0.0	243	0	1.0	1.0	1.0	1	right	2.0	1.0	1.0	1	0.08	blockFiles/set_1/main_safe/rightBlue\GB_RB_2.xlsx
48	main_safe	True	0.0	243	0	1.0	1.0	1.0	1	right	2.0	1.0	1.0	1	0.08	blockFiles/set_1/main_safe/rightBlue\GB_RB_2.xlsx
49	main_safe	True	0.0	243	0	1.0	1.0	1.0	1	right	2.0	0.0	1.0	1	0.08	blockFiles/set_1/main_safe/rightBlue\GB_RB_2.xlsx
50	main_safe	True	0.0	243	0	1.0	1.0	1.0	1	right	2.0	1.0	1.0	1	0.08	blockFiles/set_1/main_safe/rightBlue\GB_RB_2.xlsx
51	main_safe	True	0.0	243	0	2.0	2.0	1.0	0	right	1.0	0.0	0.0	0	-0.08	blockFiles/set_1/main_safe/leftBlue\GB_LB_1.xlsx
52	main_safe	True	0.0	243	0	2.0	2.0	1.0	1	right	1.0	1.0	1.0	1	0.08	blockFiles/set_1/main_safe/leftBlue\GB_LB_1.xlsx
53	main_safe	True	0.0	243	0	2.0	2.0	0.0	1	left	2.0	0.0	1.0	0	-0.08	blockFiles/set_1/main_safe/leftBlue\GB_LB_1.xlsx
54	main_safe	True	0.0	243	0	2.0	2.0	0.0	1	left	2.0	1.0	1.0	0	-0.08	blockFiles/set_1/main_safe/leftBlue\GB_LB_1.xlsx
55	main_safe	True	0.0	243	0	2.0	2.0	1.0	1	right	1.0	1.0	1.0	1	0.08	blockFiles/set_1/main_safe/leftBlue\GB_LB_1.xlsx
56	main_safe	True	0.0	243	0	2.0	2.0	0.0	1	left	2.0	1.0	1.0	0	-0.08	blockFiles/set_1/main_safe/leftBlue\GB_LB_1.xlsx
57	main_safe	True	0.0	243	0	2.0	2.0	1.0	1	right	1.0	1.0	1.0	1	0.08	blockFiles/set_1/main_safe/leftBlue\GB_LB_1.xlsx
58	main_safe	True	0.0	243	0	2.0	2.0	1.0	1	right	2.0	0.0	0.0	1	0.08	blockFiles/set_1/main_safe/leftBlue\GB_LB_1.xlsx
59	main_safe	True	0.0	243	0	2.0	2.0	0.0	1	left	2.0	0.0	1.0	0	-0.08	blockFiles/set_1/main_safe/leftBlue\GB_LB_1.xlsx
60	main_safe	True	0.0	243	0	2.0	2.0	0.0	1	left	2.0	1.0	1.0	0	-0.08	blockFiles/set_1/main_safe/leftBlue\GB_LB_1.xlsx
61	main_safe	True	1.0	243	0	2.0	2.0	n/a	0	None	n/a	0.0	n/a	1	0.08	blockFiles/set_1/main_safe/leftBlue\GB_LB_1.xlsx
62	main_safe	True	0.0	243	0	2.0	2.0	0.0	1	left	2.0	1.0	1.0	0	-0.08	blockFiles/set_1/main_safe/leftBlue\GB_LB_1.xlsx
63	main_safe	True	0.0	243	0	2.0	2.0	1.0	1	right	1.0	0.0	1.0	1	0.08	blockFiles/set_1/main_safe/leftBlue\GB_LB_1.xlsx
64	main_safe	True	0.0	243	0	2.0	2.0	1.0	1	right	1.0	1.0	1.0	1	0.08	blockFiles/set_1/main_safe/leftBlue\GB_LB_1.xlsx
65	main_safe	True	0.0	243	0	2.0	2.0	1.0	1	right	1.0	1.0	1.0	1	0.08	blockFiles/set_1/main_safe/leftBlue\GB_LB_1.xlsx
66	main_safe	True	0.0	243	0	2.0	2.0	1.0	1	right	1.0	1.0	1.0	1	0.08	blockFiles/set_1/main_safe/leftBlue\GB_LB_1.xlsx
67	main_safe	True	1.0	243	0	2.0	2.0	0.0	1	left	n/a	0.0	n/a	0	-0.08	blockFiles/set_1/main_safe/leftBlue\GB_LB_1.xlsx
68	main_safe	True	0.0	243	0	2.0	2.0	0.0	1	left	2.0	0.0	1.0	0	-0.08	blockFiles/set_1/main_safe/leftBlue\GB_LB_1.xlsx
69	main_safe	True	0.0	243	0	2.0	2.0	0.0	1	left	2.0	1.0	1.0	0	-0.08	blockFiles/set_1/main_safe/leftBlue\GB_LB_1.xlsx
70	main_safe	True	0.0	243	0	2.0	2.0	1.0	1	right	1.0	1.0	1.0	1	0.08	blockFiles/set_1/main_safe/leftBlue\GB_LB_1.xlsx
71	main_safe	True	0.0	243	0	2.0	2.0	1.0	1	right	1.0	1.0	1.0	1	0.08	blockFiles/set_1/main_safe/leftBlue\GB_LB_1.xlsx
72	main_safe	True	0.0	243	0	2.0	2.0	0.0	1	left	2.0	1.0	1.0	0	-0.08	blockFiles/set_1/main_safe/leftBlue\GB_LB_1.xlsx
73	main_safe	True	0.0	243	0	2.0	2.0	1.0	1	right	1.0	0.0	1.0	1	0.08	blockFiles/set_1/main_safe/leftBlue\GB_LB_1.xlsx
74	main_safe	True	0.0	243	0	2.0	2.0	0.0	1	left	2.0	1.0	1.0	0	-0.08	blockFiles/set_1/main_safe/leftBlue\GB_LB_1.xlsx
75	main_safe	True	0.0	243	0	2.0	2.0	0.0	1	left	2.0	1.0	1.0	0	-0.08	blockFiles/set_1/main_safe/leftBlue\GB_LB_1.xlsx
76	main_safe	True	0.0	243	0	2.0	2.0	1.0	1	right	1.0	1.0	1.0	1	0.08	blockFiles/set_1/main_safe/leftBlue\GB_LB_1.xlsx
77	main_safe	True	0.0	243	0	2.0	2.0	0.0	1	left	2.0	1.0	1.0	0	-0.08	blockFiles/set_1/main_safe/leftBlue\GB_LB_1.xlsx
78	main_safe	True	0.0	243	0	3.0	3.0	0.0	1	left	1.0	1.0	1.0	0	-0.08	blockFiles/set_1/main_safe/rightBlue\GB_RB_1.xlsx
79	main_safe	True	0.0	243	0	3.0	3.0	0.0	1	left	1.0	1.0	1.0	0	-0.08	blockFiles/set_1/main_safe/rightBlue\GB_RB_1.xlsx
80	main_safe	True	0.0	243	0	3.0	3.0	1.0	1	right	2.0	1.0	1.0	1	0.08	blockFiles/set_1/main_safe/rightBlue\GB_RB_1.xlsx
81	main_safe	True	0.0	243	0	3.0	3.0	1.0	1	right	2.0	1.0	1.0	1	0.08	blockFiles/set_1/main_safe/rightBlue\GB_RB_1.xlsx
82	main_safe	True	0.0	243	0	3.0	3.0	0.0	1	left	1.0	1.0	1.0	0	-0.08	blockFiles/set_1/main_safe/rightBlue\GB_RB_1.xlsx
83	main_safe	True	0.0	243	0	3.0	3.0	0.0	1	left	1.0	1.0	1.0	0	-0.08	blockFiles/set_1/main_safe/rightBlue\GB_RB_1.xlsx
84	main_safe	True	0.0	243	0	3.0	3.0	1.0	1	right	2.0	0.0	1.0	1	0.08	blockFiles/set_1/main_safe/rightBlue\GB_RB_1.xlsx
85	main_safe	True	0.0	243	0	3.0	3.0	0.0	1	left	1.0	1.0	1.0	0	-0.08	blockFiles/set_1/main_safe/rightBlue\GB_RB_1.xlsx
86	main_safe	True	0.0	243	0	3.0	3.0	0.0	1	left	1.0	1.0	1.0	0	-0.08	blockFiles/set_1/main_safe/rightBlue\GB_RB_1.xlsx
87	main_safe	True	0.0	243	0	3.0	3.0	0.0	1	left	1.0	1.0	1.0	0	-0.08	blockFiles/set_1/main_safe/rightBlue\GB_RB_1.xlsx
88	main_safe	True	0.0	243	0	3.0	3.0	0.0	1	left	1.0	1.0	1.0	0	-0.08	blockFiles/set_1/main_safe/rightBlue\GB_RB_1.xlsx
89	main_safe	True	0.0	243	0	3.0	3.0	0.0	1	left	1.0	1.0	1.0	0	-0.08	blockFiles/set_1/main_safe/rightBlue\GB_RB_1.xlsx
90	main_safe	True	0.0	243	0	3.0	3.0	0.0	1	left	1.0	1.0	1.0	0	-0.08	blockFiles/set_1/main_safe/rightBlue\GB_RB_1.xlsx
91	main_safe	True	0.0	243	0	3.0	3.0	1.0	1	right	2.0	0.0	1.0	1	0.08	blockFiles/set_1/main_safe/rightBlue\GB_RB_1.xlsx
92	main_safe	True	0.0	243	0	3.0	3.0	1.0	1	right	2.0	1.0	1.0	1	0.08	blockFiles/set_1/main_safe/rightBlue\GB_RB_1.xlsx
93	main_safe	True	0.0	243	0	3.0	3.0	1.0	1	right	2.0	1.0	1.0	1	0.08	blockFiles/set_1/main_safe/rightBlue\GB_RB_1.xlsx
94	main_safe	True	0.0	243	0	3.0	3.0	0.0	1	left	1.0	0.0	1.0	0	-0.08	blockFiles/set_1/main_safe/rightBlue\GB_RB_1.xlsx
95	main_safe	True	0.0	243	0	3.0	3.0	0.0	1	left	1.0	1.0	1.0	0	-0.08	blockFiles/set_1/main_safe/rightBlue\GB_RB_1.xlsx
96	main_safe	True	0.0	243	0	3.0	3.0	1.0	1	right	2.0	1.0	1.0	1	0.08	blockFiles/set_1/main_safe/rightBlue\GB_RB_1.xlsx
97	main_safe	True	0.0	243	0	3.0	3.0	1.0	1	right	2.0	1.0	1.0	1	0.08	blockFiles/set_1/main_safe/rightBlue\GB_RB_1.xlsx
98	main_safe	True	0.0	243	0	3.0	3.0	1.0	1	right	2.0	0.0	1.0	1	0.08	blockFiles/set_1/main_safe/rightBlue\GB_RB_1.xlsx
99	main_safe	True	0.0	243	0	3.0	3.0	0.0	1	left	1.0	1.0	1.0	0	-0.08	blockFiles/set_1/main_safe/rightBlue\GB_RB_1.xlsx
100	main_safe	True	0.0	243	0	3.0	3.0	0.0	1	left	1.0	1.0	1.0	0	-0.08	blockFiles/set_1/main_safe/rightBlue\GB_RB_1.xlsx
101	main_safe	True	0.0	243	0	3.0	3.0	1.0	1	right	2.0	0.0	1.0	1	0.08	blockFiles/set_1/main_safe/rightBlue\GB_RB_1.xlsx
102	main_safe	True	0.0	243	0	3.0	3.0	1.0	1	right	2.0	1.0	1.0	1	0.08	blockFiles/set_1/main_safe/rightBlue\GB_RB_1.xlsx
103	main_safe	True	0.0	243	0	4.0	4.0	1.0	1	right	2.0	1.0	1.0	1	0.08	blockFiles/set_1/main_safe/rightBlue\GB_RB_3.xlsx
104	main_safe	True	0.0	243	0	4.0	4.0	0.0	1	left	1.0	0.0	1.0	0	-0.08	blockFiles/set_1/main_safe/rightBlue\GB_RB_3.xlsx
105	main_safe	True	0.0	243	0	4.0	4.0	1.0	1	right	2.0	1.0	1.0	1	0.08	blockFiles/set_1/main_safe/rightBlue\GB_RB_3.xlsx
106	main_safe	True	0.0	243	0	4.0	4.0	0.0	1	left	1.0	1.0	1.0	0	-0.08	blockFiles/set_1/main_safe/rightBlue\GB_RB_3.xlsx
107	main_safe	True	0.0	243	0	4.0	4.0	1.0	1	right	2.0	0.0	1.0	1	0.08	blockFiles/set_1/main_safe/rightBlue\GB_RB_3.xlsx
108	main_safe	True	0.0	243	0	4.0	4.0	1.0	1	right	2.0	1.0	1.0	1	0.08	blockFiles/set_1/main_safe/rightBlue\GB_RB_3.xlsx
109	main_safe	True	0.0	243	0	4.0	4.0	0.0	1	left	1.0	1.0	1.0	0	-0.08	blockFiles/set_1/main_safe/rightBlue\GB_RB_3.xlsx
110	main_safe	True	0.0	243	0	4.0	4.0	1.0	1	right	2.0	1.0	1.0	1	0.08	blockFiles/set_1/main_safe/rightBlue\GB_RB_3.xlsx
111	main_safe	True	0.0	243	0	4.0	4.0	1.0	1	right	2.0	0.0	1.0	1	0.08	blockFiles/set_1/main_safe/rightBlue\GB_RB_3.xlsx
112	main_safe	True	0.0	243	0	4.0	4.0	0.0	1	left	1.0	1.0	1.0	0	-0.08	blockFiles/set_1/main_safe/rightBlue\GB_RB_3.xlsx
113	main_safe	True	0.0	243	0	4.0	4.0	0.0	1	left	1.0	1.0	1.0	0	-0.08	blockFiles/set_1/main_safe/rightBlue\GB_RB_3.xlsx
114	main_safe	True	0.0	243	0	4.0	4.0	1.0	1	right	2.0	0.0	1.0	1	0.08	blockFiles/set_1/main_safe/rightBlue\GB_RB_3.xlsx
115	main_safe	True	0.0	243	0	4.0	4.0	0.0	1	left	1.0	1.0	1.0	0	-0.08	blockFiles/set_1/main_safe/rightBlue\GB_RB_3.xlsx
116	main_safe	True	0.0	243	0	4.0	4.0	1.0	1	right	2.0	1.0	1.0	1	0.08	blockFiles/set_1/main_safe/rightBlue\GB_RB_3.xlsx
117	main_safe	True	0.0	243	0	4.0	4.0	1.0	1	right	2.0	1.0	1.0	1	0.08	blockFiles/set_1/main_safe/rightBlue\GB_RB_3.xlsx
118	main_safe	True	0.0	243	0	4.0	4.0	1.0	1	right	2.0	1.0	1.0	1	0.08	blockFiles/set_1/main_safe/rightBlue\GB_RB_3.xlsx
119	main_safe	True	0.0	243	0	4.0	4.0	0.0	1	left	1.0	1.0	1.0	0	-0.08	blockFiles/set_1/main_safe/rightBlue\GB_RB_3.xlsx
120	main_safe	True	0.0	243	0	4.0	4.0	0.0	1	left	1.0	1.0	1.0	0	-0.08	blockFiles/set_1/main_safe/rightBlue\GB_RB_3.xlsx
121	main_safe	True	0.0	243	0	4.0	4.0	1.0	1	right	2.0	1.0	1.0	1	0.08	blockFiles/set_1/main_safe/rightBlue\GB_RB_3.xlsx
122	main_safe	True	0.0	243	0	4.0	4.0	0.0	1	left	1.0	1.0	1.0	0	-0.08	blockFiles/set_1/main_safe/rightBlue\GB_RB_3.xlsx
123	main_safe	True	0.0	243	0	4.0	4.0	0.0	1	left	1.0	1.0	1.0	0	-0.08	blockFiles/set_1/main_safe/rightBlue\GB_RB_3.xlsx
124	main_safe	True	0.0	243	0	4.0	4.0	0.0	1	left	1.0	1.0	1.0	0	-0.08	blockFiles/set_1/main_safe/rightBlue\GB_RB_3.xlsx
125	main_safe	True	0.0	243	0	4.0	4.0	0.0	1	left	1.0	1.0	1.0	0	-0.08	blockFiles/set_1/main_safe/rightBlue\GB_RB_3.xlsx
126	main_safe	True	0.0	243	0	4.0	4.0	0.0	1	left	1.0	1.0	1.0	0	-0.08	blockFiles/set_1/main_safe/rightBlue\GB_RB_3.xlsx
127	main_safe	True	0.0	243	0	4.0	4.0	0.0	1	left	1.0	0.0	1.0	0	-0.08	blockFiles/set_1/main_safe/rightBlue\GB_RB_3.xlsx
128	main_safe	True	0.0	243	0	5.0	5.0	0.0	1	left	1.0	0.0	0.0	0	-0.08	blockFiles/set_1/main_safe/leftBlue\GB_LB_2.xlsx
129	main_safe	True	0.0	243	0	5.0	5.0	0.0	1	left	1.0	1.0	0.0	0	-0.08	blockFiles/set_1/main_safe/leftBlue\GB_LB_2.xlsx
130	main_safe	True	0.0	243	0	5.0	5.0	1.0	1	right	2.0	0.0	0.0	1	0.08	blockFiles/set_1/main_safe/leftBlue\GB_LB_2.xlsx
131	main_safe	True	0.0	243	0	5.0	5.0	0.0	1	left	2.0	0.0	1.0	0	-0.08	blockFiles/set_1/main_safe/leftBlue\GB_LB_2.xlsx
132	main_safe	True	0.0	243	0	5.0	5.0	1.0	1	right	1.0	1.0	1.0	1	0.08	blockFiles/set_1/main_safe/leftBlue\GB_LB_2.xlsx
133	main_safe	True	0.0	243	0	5.0	5.0	0.0	1	left	2.0	1.0	1.0	0	-0.08	blockFiles/set_1/main_safe/leftBlue\GB_LB_2.xlsx
134	main_safe	True	0.0	243	0	5.0	5.0	0.0	1	left	2.0	1.0	1.0	0	-0.08	blockFiles/set_1/main_safe/leftBlue\GB_LB_2.xlsx
135	main_safe	True	0.0	243	0	5.0	5.0	0.0	1	left	2.0	1.0	1.0	0	-0.08	blockFiles/set_1/main_safe/leftBlue\GB_LB_2.xlsx
136	main_safe	True	0.0	243	0	5.0	5.0	1.0	1	right	1.0	1.0	1.0	1	0.08	blockFiles/set_1/main_safe/leftBlue\GB_LB_2.xlsx
137	main_safe	True	0.0	243	0	5.0	5.0	0.0	1	left	2.0	1.0	1.0	0	-0.08	blockFiles/set_1/main_safe/leftBlue\GB_LB_2.xlsx
138	main_safe	True	0.0	243	0	5.0	5.0	1.0	1	right	1.0	1.0	1.0	1	0.08	blockFiles/set_1/main_safe/leftBlue\GB_LB_2.xlsx
139	main_safe	True	0.0	243	0	5.0	5.0	0.0	1	left	2.0	1.0	1.0	0	-0.08	blockFiles/set_1/main_safe/leftBlue\GB_LB_2.xlsx
140	main_safe	True	0.0	243	0	5.0	5.0	1.0	1	right	1.0	1.0	1.0	1	0.08	blockFiles/set_1/main_safe/leftBlue\GB_LB_2.xlsx
141	main_safe	True	0.0	243	0	5.0	5.0	0.0	1	left	2.0	1.0	1.0	0	-0.08	blockFiles/set_1/main_safe/leftBlue\GB_LB_2.xlsx
142	main_safe	True	0.0	243	0	5.0	5.0	1.0	1	right	1.0	0.0	1.0	1	0.08	blockFiles/set_1/main_safe/leftBlue\GB_LB_2.xlsx
143	main_safe	True	1.0	243	0	5.0	5.0	1.0	1	right	n/a	0.0	n/a	1	0.08	blockFiles/set_1/main_safe/leftBlue\GB_LB_2.xlsx
144	main_safe	True	0.0	243	0	5.0	5.0	1.0	1	right	1.0	1.0	1.0	1	0.08	blockFiles/set_1/main_safe/leftBlue\GB_LB_2.xlsx
145	main_safe	True	0.0	243	0	5.0	5.0	0.0	1	left	2.0	1.0	1.0	0	-0.08	blockFiles/set_1/main_safe/leftBlue\GB_LB_2.xlsx
146	main_safe	True	0.0	243	0	5.0	5.0	0.0	1	left	2.0	1.0	1.0	0	-0.08	blockFiles/set_1/main_safe/leftBlue\GB_LB_2.xlsx
147	main_safe	True	0.0	243	0	5.0	5.0	0.0	1	left	2.0	1.0	1.0	0	-0.08	blockFiles/set_1/main_safe/leftBlue\GB_LB_2.xlsx
148	main_safe	True	0.0	243	0	5.0	5.0	1.0	1	right	1.0	1.0	1.0	1	0.08	blockFiles/set_1/main_safe/leftBlue\GB_LB_2.xlsx
149	main_safe	True	0.0	243	0	5.0	5.0	1.0	1	right	1.0	1.0	1.0	1	0.08	blockFiles/set_1/main_safe/leftBlue\GB_LB_2.xlsx
150	main_safe	True	0.0	243	0	5.0	5.0	1.0	1	right	1.0	0.0	1.0	1	0.08	blockFiles/set_1/main_safe/leftBlue\GB_LB_2.xlsx
151	main_safe	True	0.0	243	0	5.0	5.0	1.0	1	right	1.0	0.0	1.0	1	0.08	blockFiles/set_1/main_safe/leftBlue\GB_LB_2.xlsx
152	main_safe	True	0.0	243	0	5.0	5.0	1.0	1	right	1.0	1.0	1.0	1	0.08	blockFiles/set_1/main_safe/leftBlue\GB_LB_2.xlsx
153	main_safe	True	0.0	243	0	5.0	5.0	1.0	1	right	1.0	1.0	1.0	1	0.08	blockFiles/set_1/main_safe/leftBlue\GB_LB_2.xlsx
154	patches	True	n/a	243	0	n/a	n/a	1.0	1	right	n/a	n/a	n/a	1	0.0379891977087	blockFiles/set_1/main_PD/GB_runPatches1.xlsx
155	patches	True	n/a	243	0	n/a	n/a	n/a	0	None	n/a	n/a	n/a	1	0.00754055965692	blockFiles/set_1/main_PD/GB_runPatches1.xlsx
156	patches	True	n/a	243	0	n/a	n/a	0.0	1	left	n/a	n/a	n/a	0	-0.00953533312306	blockFiles/set_1/main_PD/GB_runPatches1.xlsx
157	patches	True	n/a	243	0	n/a	n/a	1.0	1	right	n/a	n/a	n/a	1	0.054278924800500006	blockFiles/set_1/main_PD/GB_runPatches1.xlsx
158	patches	True	n/a	243	0	n/a	n/a	0.0	1	left	n/a	n/a	n/a	0	-0.0568183150887	blockFiles/set_1/main_PD/GB_runPatches1.xlsx
159	patches	True	n/a	243	0	n/a	n/a	1.0	1	right	n/a	n/a	n/a	1	0.0483499651961	blockFiles/set_1/main_PD/GB_runPatches1.xlsx
160	patches	True	n/a	243	0	n/a	n/a	0.0	1	left	n/a	n/a	n/a	0	-0.056213503815199996	blockFiles/set_1/main_PD/GB_runPatches1.xlsx
161	patches	True	n/a	243	0	n/a	n/a	0.0	1	left	n/a	n/a	n/a	0	-0.045453556906399996	blockFiles/set_1/main_PD/GB_runPatches1.xlsx
162	patches	True	n/a	243	0	n/a	n/a	0.0	1	left	n/a	n/a	n/a	0	-0.0770899711736	blockFiles/set_1/main_PD/GB_runPatches1.xlsx
163	patches	True	n/a	243	0	n/a	n/a	0.0	1	left	n/a	n/a	n/a	0	-0.005777362566439999	blockFiles/set_1/main_PD/GB_runPatches1.xlsx
164	patches	True	n/a	243	0	n/a	n/a	0.0	0	left	n/a	n/a	n/a	1	0.032542591672400006	blockFiles/set_1/main_PD/GB_runPatches1.xlsx
165	patches	True	n/a	243	0	n/a	n/a	0.0	1	left	n/a	n/a	n/a	0	-0.0711186276563	blockFiles/set_1/main_PD/GB_runPatches1.xlsx
166	patches	True	n/a	243	0	n/a	n/a	0.0	1	left	n/a	n/a	n/a	0	-0.023816253673299998	blockFiles/set_1/main_PD/GB_runPatches1.xlsx
167	patches	True	n/a	243	0	n/a	n/a	0.0	0	left	n/a	n/a	n/a	1	0.035985497143099995	blockFiles/set_1/main_PD/GB_runPatches1.xlsx
168	patches	True	n/a	243	0	n/a	n/a	0.0	1	left	n/a	n/a	n/a	0	-0.0739483962767	blockFiles/set_1/main_PD/GB_runPatches1.xlsx
169	patches	True	n/a	243	0	n/a	n/a	1.0	1	right	n/a	n/a	n/a	1	0.0661500513926	blockFiles/set_1/main_PD/GB_runPatches1.xlsx
170	patches	True	n/a	243	0	n/a	n/a	0.0	0	left	n/a	n/a	n/a	1	0.0261283976398	blockFiles/set_1/main_PD/GB_runPatches1.xlsx
171	patches	True	n/a	243	0	n/a	n/a	0.0	1	left	n/a	n/a	n/a	0	-0.015239789933	blockFiles/set_1/main_PD/GB_runPatches1.xlsx
172	patches	True	n/a	243	0	n/a	n/a	0.0	1	left	n/a	n/a	n/a	0	-0.026023326162200003	blockFiles/set_1/main_PD/GB_runPatches1.xlsx
173	patches	True	n/a	243	0	n/a	n/a	0.0	1	left	n/a	n/a	n/a	0	-0.0346173324063	blockFiles/set_1/main_PD/GB_runPatches1.xlsx
174	patches	True	n/a	243	0	n/a	n/a	n/a	0	None	n/a	n/a	n/a	1	0.0259515581653	blockFiles/set_1/main_PD/GB_runPatches1.xlsx
175	patches	True	n/a	243	0	n/a	n/a	0.0	0	left	n/a	n/a	n/a	1	0.0335958192125	blockFiles/set_1/main_PD/GB_runPatches1.xlsx
176	patches	True	n/a	243	0	n/a	n/a	0.0	1	left	n/a	n/a	n/a	0	-0.042138268332900006	blockFiles/set_1/main_PD/GB_runPatches1.xlsx
177	patches	True	n/a	243	0	n/a	n/a	0.0	1	left	n/a	n/a	n/a	0	-0.070061192438	blockFiles/set_1/main_PD/GB_runPatches1.xlsx
178	patches	True	n/a	243	0	n/a	n/a	1.0	1	right	n/a	n/a	n/a	1	0.05404822332780001	blockFiles/set_1/main_PD/GB_runPatches1.xlsx
179	patches	True	n/a	243	0	n/a	n/a	n/a	0	None	n/a	n/a	n/a	1	0.029662092998599995	blockFiles/set_1/main_PD/GB_runPatches1.xlsx
180	patches	True	n/a	243	0	n/a	n/a	0.0	0	left	n/a	n/a	n/a	1	0.00631860587746	blockFiles/set_1/main_PD/GB_runPatches1.xlsx
181	patches	True	n/a	243	0	n/a	n/a	0.0	1	left	n/a	n/a	n/a	0	-0.07816355794669999	blockFiles/set_1/main_PD/GB_runPatches1.xlsx
182	patches	True	n/a	243	0	n/a	n/a	0.0	0	left	n/a	n/a	n/a	1	0.0242304117605	blockFiles/set_1/main_PD/GB_runPatches1.xlsx
183	patches	True	n/a	243	0	n/a	n/a	0.0	1	left	n/a	n/a	n/a	0	-0.07275296328589999	blockFiles/set_1/main_PD/GB_runPatches1.xlsx
184	patches	True	n/a	243	0	n/a	n/a	0.0	1	left	n/a	n/a	n/a	0	-0.0626622883044	blockFiles/set_1/main_PD/GB_runPatches1.xlsx
185	patches	True	n/a	243	0	n/a	n/a	0.0	1	left	n/a	n/a	n/a	0	-0.0289352523535	blockFiles/set_1/main_PD/GB_runPatches1.xlsx
186	patches	True	n/a	243	0	n/a	n/a	0.0	1	left	n/a	n/a	n/a	0	-0.00901177627966	blockFiles/set_1/main_PD/GB_runPatches1.xlsx
187	patches	True	n/a	243	0	n/a	n/a	0.0	1	left	n/a	n/a	n/a	0	-0.0546378591098	blockFiles/set_1/main_PD/GB_runPatches1.xlsx
188	patches	True	n/a	243	0	n/a	n/a	0.0	1	left	n/a	n/a	n/a	0	-0.051028201896699994	blockFiles/set_1/main_PD/GB_runPatches1.xlsx
189	patches	True	n/a	243	0	n/a	n/a	0.0	1	left	n/a	n/a	n/a	0	-0.0106140014343	blockFiles/set_1/main_PD/GB_runPatches1.xlsx
190	patches	True	n/a	243	0	n/a	n/a	0.0	1	left	n/a	n/a	n/a	0	-0.0031810028106	blockFiles/set_1/main_PD/GB_runPatches1.xlsx
191	patches	True	n/a	243	0	n/a	n/a	1.0	1	right	n/a	n/a	n/a	1	0.040766981318599994	blockFiles/set_1/main_PD/GB_runPatches1.xlsx
192	patches	True	n/a	243	0	n/a	n/a	0.0	0	left	n/a	n/a	n/a	1	0.049490234982199996	blockFiles/set_1/main_PD/GB_runPatches1.xlsx
193	patches	True	n/a	243	0	n/a	n/a	1.0	1	right	n/a	n/a	n/a	1	0.0460364355706	blockFiles/set_1/main_PD/GB_runPatches1.xlsx
194	patches	True	n/a	243	0	n/a	n/a	0.0	0	left	n/a	n/a	n/a	1	0.000942951980978	blockFiles/set_1/main_PD/GB_runPatches1.xlsx
195	patches	True	n/a	243	0	n/a	n/a	1.0	1	right	n/a	n/a	n/a	1	0.0496453609131	blockFiles/set_1/main_PD/GB_runPatches1.xlsx
196	patches	True	n/a	243	0	n/a	n/a	0.0	1	left	n/a	n/a	n/a	0	-0.0785319937021	blockFiles/set_1/main_PD/GB_runPatches1.xlsx
197	patches	True	n/a	243	0	n/a	n/a	0.0	0	left	n/a	n/a	n/a	1	0.009360602423549998	blockFiles/set_1/main_PD/GB_runPatches1.xlsx
198	patches	True	n/a	243	0	n/a	n/a	0.0	0	left	n/a	n/a	n/a	1	0.0164540628716	blockFiles/set_1/main_PD/GB_runPatches1.xlsx
199	patches	True	n/a	243	0	n/a	n/a	1.0	1	right	n/a	n/a	n/a	1	0.0528245853074	blockFiles/set_1/main_PD/GB_runPatches1.xlsx
200	patches	True	n/a	243	0	n/a	n/a	0.0	1	left	n/a	n/a	n/a	0	-0.06900920072569999	blockFiles/set_1/main_PD/GB_runPatches1.xlsx
201	patches	True	n/a	243	0	n/a	n/a	1.0	1	right	n/a	n/a	n/a	1	0.0475045951828	blockFiles/set_1/main_PD/GB_runPatches1.xlsx
202	patches	True	n/a	243	0	n/a	n/a	0.0	0	left	n/a	n/a	n/a	1	0.019672241546200002	blockFiles/set_1/main_PD/GB_runPatches1.xlsx
203	patches	True	n/a	243	0	n/a	n/a	0.0	0	left	n/a	n/a	n/a	1	0.0156088798866	blockFiles/set_1/main_PD/GB_runPatches1.xlsx
204	patches	True	n/a	243	0	n/a	n/a	0.0	1	left	n/a	n/a	n/a	0	-0.0312199326232	blockFiles/set_1/main_PD/GB_runPatches1.xlsx
205	patches	True	n/a	243	0	n/a	n/a	1.0	1	right	n/a	n/a	n/a	1	0.0171578558162	blockFiles/set_1/main_PD/GB_runPatches1.xlsx
206	patches	True	n/a	243	0	n/a	n/a	0.0	1	left	n/a	n/a	n/a	0	-0.0287634486705	blockFiles/set_1/main_PD/GB_runPatches1.xlsx
207	patches	True	n/a	243	0	n/a	n/a	1.0	1	right	n/a	n/a	n/a	1	0.031777511779200004	blockFiles/set_1/main_PD/GB_runPatches1.xlsx
208	patches	True	n/a	243	0	n/a	n/a	1.0	1	right	n/a	n/a	n/a	1	0.0589564430155	blockFiles/set_1/main_PD/GB_runPatches1.xlsx
209	patches	True	n/a	243	0	n/a	n/a	1.0	1	right	n/a	n/a	n/a	1	0.0640543835051	blockFiles/set_1/main_PD/GB_runPatches1.xlsx
210	patches	True	n/a	243	0	n/a	n/a	0.0	1	left	n/a	n/a	n/a	0	-0.028220299202900003	blockFiles/set_1/main_PD/GB_runPatches1.xlsx
211	patches	True	n/a	243	0	n/a	n/a	0.0	1	left	n/a	n/a	n/a	0	-0.0445100571401	blockFiles/set_1/main_PD/GB_runPatches1.xlsx
212	patches	True	n/a	243	0	n/a	n/a	1.0	1	right	n/a	n/a	n/a	1	0.0333419920132	blockFiles/set_1/main_PD/GB_runPatches1.xlsx
213	patches	True	n/a	243	0	n/a	n/a	0.0	1	left	n/a	n/a	n/a	0	-0.0514465067349	blockFiles/set_1/main_PD/GB_runPatches1.xlsx
214	patches	True	n/a	243	0	n/a	n/a	0.0	1	left	n/a	n/a	n/a	0	-0.0505290655419	blockFiles/set_1/main_PD/GB_runPatches1.xlsx
215	patches	True	n/a	243	0	n/a	n/a	1.0	1	right	n/a	n/a	n/a	1	0.0651858134009	blockFiles/set_1/main_PD/GB_runPatches1.xlsx
216	patches	True	n/a	243	0	n/a	n/a	0.0	1	left	n/a	n/a	n/a	0	-0.0570846201852	blockFiles/set_1/main_PD/GB_runPatches1.xlsx
217	patches	True	n/a	243	0	n/a	n/a	0.0	1	left	n/a	n/a	n/a	0	-0.0367040293664	blockFiles/set_1/main_PD/GB_runPatches1.xlsx
218	patches	True	n/a	243	0	n/a	n/a	n/a	0	None	n/a	n/a	n/a	1	0.014305817056400001	blockFiles/set_1/main_PD/GB_runPatches1.xlsx
219	patches	True	n/a	243	0	n/a	n/a	1.0	1	right	n/a	n/a	n/a	1	0.060395931918199995	blockFiles/set_1/main_PD/GB_runPatches1.xlsx
220	patches	True	n/a	243	0	n/a	n/a	0.0	1	left	n/a	n/a	n/a	0	-0.00973604476079	blockFiles/set_1/main_PD/GB_runPatches1.xlsx
221	patches	True	n/a	243	0	n/a	n/a	1.0	1	right	n/a	n/a	n/a	1	0.027758574727900002	blockFiles/set_1/main_PD/GB_runPatches1.xlsx
222	patches	True	n/a	243	0	n/a	n/a	1.0	1	right	n/a	n/a	n/a	1	0.0679329788499	blockFiles/set_1/main_PD/GB_runPatches1.xlsx
223	patches	True	n/a	243	0	n/a	n/a	0.0	1	left	n/a	n/a	n/a	0	-0.0209997114912	blockFiles/set_1/main_PD/GB_runPatches1.xlsx
224	patches	True	n/a	243	0	n/a	n/a	1.0	1	right	n/a	n/a	n/a	1	0.0394104610011	blockFiles/set_1/main_PD/GB_runPatches1.xlsx
225	patches	True	n/a	243	0	n/a	n/a	0.0	1	left	n/a	n/a	n/a	0	-0.0264119931683	blockFiles/set_1/main_PD/GB_runPatches1.xlsx
226	patches	True	n/a	243	0	n/a	n/a	0.0	1	left	n/a	n/a	n/a	0	-0.020428479407	blockFiles/set_1/main_PD/GB_runPatches1.xlsx
227	patches	True	n/a	243	0	n/a	n/a	0.0	0	left	n/a	n/a	n/a	1	0.047985725756699994	blockFiles/set_1/main_PD/GB_runPatches1.xlsx
228	patches	True	n/a	243	0	n/a	n/a	0.0	1	left	n/a	n/a	n/a	0	-0.0652245067433	blockFiles/set_1/main_PD/GB_runPatches1.xlsx
229	patches	True	n/a	243	0	n/a	n/a	1.0	1	right	n/a	n/a	n/a	1	0.06296350622550001	blockFiles/set_1/main_PD/GB_runPatches1.xlsx
230	patches	True	n/a	243	0	n/a	n/a	1.0	1	right	n/a	n/a	n/a	1	0.0689881388843	blockFiles/set_1/main_PD/GB_runPatches1.xlsx
231	patches	True	n/a	243	0	n/a	n/a	0.0	1	left	n/a	n/a	n/a	0	-0.0353112127259	blockFiles/set_1/main_PD/GB_runPatches1.xlsx
232	patches	True	n/a	243	0	n/a	n/a	0.0	1	left	n/a	n/a	n/a	0	-0.00340332429856	blockFiles/set_1/main_PD/GB_runPatches1.xlsx
233	patches	True	n/a	243	0	n/a	n/a	0.0	1	left	n/a	n/a	n/a	0	-0.06084634557369999	blockFiles/set_1/main_PD/GB_runPatches1.xlsx
234	patches	True	n/a	243	0	n/a	n/a	0.0	1	left	n/a	n/a	n/a	0	-0.052488306444100005	blockFiles/set_1/main_PD/GB_runPatches1.xlsx
235	patches	True	n/a	243	0	n/a	n/a	0.0	1	left	n/a	n/a	n/a	0	-0.0351104598679	blockFiles/set_1/main_PD/GB_runPatches1.xlsx
236	patches	True	n/a	243	0	n/a	n/a	n/a	0	None	n/a	n/a	n/a	1	0.024482835065599996	blockFiles/set_1/main_PD/GB_runPatches1.xlsx
237	patches	True	n/a	243	0	n/a	n/a	0.0	0	left	n/a	n/a	n/a	1	0.048599204979800005	blockFiles/set_1/main_PD/GB_runPatches1.xlsx
238	patches	True	n/a	243	0	n/a	n/a	0.0	0	left	n/a	n/a	n/a	1	0.023987789433400002	blockFiles/set_1/main_PD/GB_runPatches1.xlsx
239	patches	True	n/a	243	0	n/a	n/a	0.0	0	left	n/a	n/a	n/a	1	0.0428532189317	blockFiles/set_1/main_PD/GB_runPatches1.xlsx
240	patches	True	n/a	243	0	n/a	n/a	1.0	1	right	n/a	n/a	n/a	1	0.045178917516	blockFiles/set_1/main_PD/GB_runPatches1.xlsx
241	patches	True	n/a	243	0	n/a	n/a	0.0	1	left	n/a	n/a	n/a	0	-0.0574700019881	blockFiles/set_1/main_PD/GB_runPatches1.xlsx
242	patches	True	n/a	243	0	n/a	n/a	0.0	1	left	n/a	n/a	n/a	0	-0.0140370275453	blockFiles/set_1/main_PD/GB_runPatches1.xlsx
243	patches	True	n/a	243	0	n/a	n/a	0.0	1	left	n/a	n/a	n/a	0	-0.038677551765	blockFiles/set_1/main_PD/GB_runPatches1.xlsx
244	patches	True	n/a	243	0	n/a	n/a	1.0	1	right	n/a	n/a	n/a	1	0.0489986395463	blockFiles/set_1/main_PD/GB_runPatches1.xlsx
245	patches	True	n/a	243	0	n/a	n/a	0.0	1	left	n/a	n/a	n/a	0	-0.018625468853900002	blockFiles/set_1/main_PD/GB_runPatches1.xlsx
246	patches	True	n/a	243	0	n/a	n/a	0.0	1	left	n/a	n/a	n/a	0	-0.043806905504300005	blockFiles/set_1/main_PD/GB_runPatches1.xlsx
247	patches	True	n/a	243	0	n/a	n/a	1.0	1	right	n/a	n/a	n/a	1	0.06823865905399999	blockFiles/set_1/main_PD/GB_runPatches1.xlsx
248	patches	True	n/a	243	0	n/a	n/a	n/a	0	None	n/a	n/a	n/a	1	0.0710316559672	blockFiles/set_1/main_PD/GB_runPatches1.xlsx
249	patches	True	n/a	243	0	n/a	n/a	0.0	1	left	n/a	n/a	n/a	0	-0.025570921301799998	blockFiles/set_1/main_PD/GB_runPatches1.xlsx
250	patches	True	n/a	243	0	n/a	n/a	0.0	1	left	n/a	n/a	n/a	0	-0.0692797863856	blockFiles/set_1/main_PD/GB_runPatches1.xlsx
251	patches	True	n/a	243	0	n/a	n/a	0.0	0	left	n/a	n/a	n/a	1	0.000554107055068	blockFiles/set_1/main_PD/GB_runPatches1.xlsx
252	patches	True	n/a	243	0	n/a	n/a	1.0	1	right	n/a	n/a	n/a	1	0.0704875176959	blockFiles/set_1/main_PD/GB_runPatches1.xlsx
253	patches	True	n/a	243	0	n/a	n/a	0.0	0	left	n/a	n/a	n/a	1	0.027048802804200002	blockFiles/set_1/main_PD/GB_runPatches1.xlsx
254	main_unc	True	1.0	243	0	0.0	0.0	n/a	0	None	n/a	0.0	n/a	1	0.0104904729314	blockFiles/set_1/main_unc/leftBlue\GB_LB_2.xlsx
255	main_unc	True	0.0	243	0	0.0	0.0	0.0	1	left	1.0	1.0	0.0	0	-0.054897853098800006	blockFiles/set_1/main_unc/leftBlue\GB_LB_2.xlsx
256	main_unc	True	0.0	243	0	0.0	0.0	1.0	1	right	2.0	0.0	0.0	1	0.023906928785099996	blockFiles/set_1/main_unc/leftBlue\GB_LB_2.xlsx
257	main_unc	True	0.0	243	0	0.0	0.0	0.0	1	left	1.0	0.0	0.0	0	-0.0250972082838	blockFiles/set_1/main_unc/leftBlue\GB_LB_2.xlsx
258	main_unc	True	0.0	243	0	0.0	0.0	1.0	1	right	1.0	0.0	1.0	1	0.0537271796353	blockFiles/set_1/main_unc/leftBlue\GB_LB_2.xlsx
259	main_unc	True	0.0	243	0	0.0	0.0	1.0	1	right	1.0	1.0	1.0	1	0.05496723370630001	blockFiles/set_1/main_unc/leftBlue\GB_LB_2.xlsx
260	main_unc	True	0.0	243	0	0.0	0.0	0.0	1	left	2.0	0.0	1.0	0	-0.07150396697219999	blockFiles/set_1/main_unc/leftBlue\GB_LB_2.xlsx
261	main_unc	True	0.0	243	0	0.0	0.0	0.0	1	left	2.0	1.0	1.0	0	-0.048367644790599996	blockFiles/set_1/main_unc/leftBlue\GB_LB_2.xlsx
262	main_unc	True	0.0	243	0	0.0	0.0	0.0	1	left	2.0	1.0	1.0	0	-0.0294842943549	blockFiles/set_1/main_unc/leftBlue\GB_LB_2.xlsx
263	main_unc	True	0.0	243	0	0.0	0.0	0.0	1	left	2.0	1.0	1.0	0	-0.0626234722324	blockFiles/set_1/main_unc/leftBlue\GB_LB_2.xlsx
264	main_unc	True	0.0	243	0	0.0	0.0	0.0	0	left	2.0	0.0	0.0	1	0.039552510008199995	blockFiles/set_1/main_unc/leftBlue\GB_LB_2.xlsx
265	main_unc	True	0.0	243	0	0.0	0.0	0.0	1	left	2.0	1.0	1.0	0	-0.00236984821036	blockFiles/set_1/main_unc/leftBlue\GB_LB_2.xlsx
266	main_unc	True	0.0	243	0	0.0	0.0	1.0	1	right	1.0	0.0	1.0	1	0.061138628535	blockFiles/set_1/main_unc/leftBlue\GB_LB_2.xlsx
267	main_unc	True	0.0	243	0	0.0	0.0	1.0	1	right	1.0	1.0	1.0	1	0.00919064586982	blockFiles/set_1/main_unc/leftBlue\GB_LB_2.xlsx
268	main_unc	True	0.0	243	0	0.0	0.0	0.0	1	left	2.0	1.0	1.0	0	-0.00254913628101	blockFiles/set_1/main_unc/leftBlue\GB_LB_2.xlsx
269	main_unc	True	0.0	243	0	0.0	0.0	1.0	1	right	1.0	1.0	1.0	1	0.0410454405658	blockFiles/set_1/main_unc/leftBlue\GB_LB_2.xlsx
270	main_unc	True	1.0	243	0	0.0	0.0	n/a	0	None	n/a	0.0	n/a	1	0.0358202826045	blockFiles/set_1/main_unc/leftBlue\GB_LB_2.xlsx
271	main_unc	True	0.0	243	0	0.0	0.0	0.0	1	left	1.0	0.0	0.0	0	-0.0728409595788	blockFiles/set_1/main_unc/leftBlue\GB_LB_2.xlsx
272	main_unc	True	0.0	243	0	0.0	0.0	0.0	1	left	2.0	1.0	1.0	0	-0.025062250625299997	blockFiles/set_1/main_unc/leftBlue\GB_LB_2.xlsx
273	main_unc	True	0.0	243	0	0.0	0.0	1.0	1	right	1.0	0.0	1.0	1	0.03782132186	blockFiles/set_1/main_unc/leftBlue\GB_LB_2.xlsx
274	main_unc	True	0.0	243	0	0.0	0.0	0.0	1	left	2.0	1.0	1.0	0	-0.04342596462	blockFiles/set_1/main_unc/leftBlue\GB_LB_2.xlsx
275	main_unc	True	0.0	243	0	0.0	0.0	0.0	1	left	2.0	1.0	1.0	0	-0.0528110140935	blockFiles/set_1/main_unc/leftBlue\GB_LB_2.xlsx
276	main_unc	True	0.0	243	0	0.0	0.0	0.0	1	left	2.0	1.0	1.0	0	-0.0454732552171	blockFiles/set_1/main_unc/leftBlue\GB_LB_2.xlsx
277	main_unc	True	0.0	243	0	0.0	0.0	0.0	1	left	2.0	1.0	1.0	0	-0.0269131348655	blockFiles/set_1/main_unc/leftBlue\GB_LB_2.xlsx
278	main_unc	True	0.0	243	0	0.0	0.0	1.0	1	right	1.0	1.0	1.0	1	0.0566621664539	blockFiles/set_1/main_unc/leftBlue\GB_LB_2.xlsx
279	main_unc	True	0.0	243	0	0.0	0.0	n/a	0	None	n/a	0.0	n/a	1	0.0104904729314	blockFiles/set_1/main_unc/leftBlue\GB_LB_2.xlsx
280	main_unc	True	0.0	243	0	0.0	0.0	n/a	0	None	n/a	0.0	n/a	1	0.0104904729314	blockFiles/set_1/main_unc/leftBlue\GB_LB_2.xlsx
281	main_unc	True	0.0	243	0	0.0	0.0	1.0	1	right	1.0	1.0	1.0	1	0.0104904729314	blockFiles/set_1/main_unc/leftBlue\GB_LB_2.xlsx
282	main_unc	True	0.0	243	0	0.0	0.0	1.0	1	right	1.0	1.0	1.0	1	0.0358202826045	blockFiles/set_1/main_unc/leftBlue\GB_LB_2.xlsx
283	main_unc	True	0.0	243	0	1.0	1.0	1.0	1	right	2.0	1.0	1.0	1	0.0578193534352	blockFiles/set_1/main_unc/rightBlue\GB_RB_1.xlsx
284	main_unc	True	0.0	243	0	1.0	1.0	1.0	0	right	2.0	1.0	0.0	0	-0.009675862845030001	blockFiles/set_1/main_unc/rightBlue\GB_RB_1.xlsx
285	main_unc	True	0.0	243	0	1.0	1.0	0.0	1	left	1.0	0.0	1.0	0	-0.0174505675398	blockFiles/set_1/main_unc/rightBlue\GB_RB_1.xlsx
286	main_unc	True	0.0	243	0	1.0	1.0	1.0	1	right	2.0	1.0	1.0	1	0.046278518661900005	blockFiles/set_1/main_unc/rightBlue\GB_RB_1.xlsx
287	main_unc	True	0.0	243	0	1.0	1.0	0.0	1	left	1.0	0.0	1.0	0	-0.0511667045765	blockFiles/set_1/main_unc/rightBlue\GB_RB_1.xlsx
288	main_unc	True	0.0	243	0	1.0	1.0	0.0	1	left	1.0	1.0	1.0	0	-0.0666025961563	blockFiles/set_1/main_unc/rightBlue\GB_RB_1.xlsx
289	main_unc	True	0.0	243	0	1.0	1.0	1.0	1	right	2.0	1.0	1.0	1	0.0681918361969	blockFiles/set_1/main_unc/rightBlue\GB_RB_1.xlsx
290	main_unc	True	0.0	243	0	1.0	1.0	1.0	1	right	2.0	0.0	1.0	1	0.0138243579119	blockFiles/set_1/main_unc/rightBlue\GB_RB_1.xlsx
291	main_unc	True	0.0	243	0	1.0	1.0	1.0	0	right	2.0	0.0	0.0	0	-0.0186386860535	blockFiles/set_1/main_unc/rightBlue\GB_RB_1.xlsx
292	main_unc	True	0.0	243	0	1.0	1.0	1.0	1	right	2.0	0.0	1.0	1	0.0310279835016	blockFiles/set_1/main_unc/rightBlue\GB_RB_1.xlsx
293	main_unc	True	0.0	243	0	1.0	1.0	0.0	1	left	1.0	1.0	1.0	0	-0.0736556668207	blockFiles/set_1/main_unc/rightBlue\GB_RB_1.xlsx
294	main_unc	True	0.0	243	0	1.0	1.0	0.0	1	left	1.0	1.0	1.0	0	-0.021096237543999998	blockFiles/set_1/main_unc/rightBlue\GB_RB_1.xlsx
295	main_unc	True	0.0	243	0	1.0	1.0	1.0	1	right	2.0	1.0	1.0	1	0.0444625987113	blockFiles/set_1/main_unc/rightBlue\GB_RB_1.xlsx
296	main_unc	True	0.0	243	0	1.0	1.0	0.0	1	left	1.0	1.0	1.0	0	-0.0635045636259	blockFiles/set_1/main_unc/rightBlue\GB_RB_1.xlsx
297	main_unc	True	0.0	243	0	1.0	1.0	1.0	1	right	2.0	1.0	1.0	1	0.0685707872547	blockFiles/set_1/main_unc/rightBlue\GB_RB_1.xlsx
298	main_unc	True	0.0	243	0	1.0	1.0	0.0	1	left	1.0	1.0	1.0	0	-0.0207050484978	blockFiles/set_1/main_unc/rightBlue\GB_RB_1.xlsx
299	main_unc	True	0.0	243	0	1.0	1.0	1.0	1	right	2.0	1.0	1.0	1	0.030553098488599998	blockFiles/set_1/main_unc/rightBlue\GB_RB_1.xlsx
300	main_unc	True	0.0	243	0	1.0	1.0	1.0	1	right	2.0	1.0	1.0	1	0.0195190120302	blockFiles/set_1/main_unc/rightBlue\GB_RB_1.xlsx
301	main_unc	True	0.0	243	0	1.0	1.0	1.0	1	right	2.0	1.0	1.0	1	0.0198376936093	blockFiles/set_1/main_unc/rightBlue\GB_RB_1.xlsx
302	main_unc	True	0.0	243	0	1.0	1.0	1.0	1	right	2.0	1.0	1.0	1	0.026934735830900003	blockFiles/set_1/main_unc/rightBlue\GB_RB_1.xlsx
303	main_unc	True	0.0	243	0	1.0	1.0	0.0	1	left	1.0	1.0	1.0	0	-0.0206098471768	blockFiles/set_1/main_unc/rightBlue\GB_RB_1.xlsx
304	main_unc	True	0.0	243	0	1.0	1.0	0.0	1	left	1.0	1.0	1.0	0	-0.0731829656102	blockFiles/set_1/main_unc/rightBlue\GB_RB_1.xlsx
305	main_unc	True	0.0	243	0	1.0	1.0	1.0	1	right	2.0	0.0	1.0	1	0.0567812566459	blockFiles/set_1/main_unc/rightBlue\GB_RB_1.xlsx
306	main_unc	True	0.0	243	0	1.0	1.0	1.0	1	right	2.0	1.0	1.0	1	0.022795744016800002	blockFiles/set_1/main_unc/rightBlue\GB_RB_1.xlsx
307	main_unc	True	0.0	243	0	1.0	1.0	0.0	1	left	1.0	1.0	1.0	0	-0.0706601525284	blockFiles/set_1/main_unc/rightBlue\GB_RB_1.xlsx
308	main_unc	True	0.0	243	0	2.0	2.0	1.0	1	right	2.0	0.0	0.0	1	0.028704470954800002	blockFiles/set_1/main_unc/leftBlue\GB_LB_4.xlsx
309	main_unc	True	0.0	243	0	2.0	2.0	1.0	1	right	2.0	0.0	0.0	1	0.0693231539614	blockFiles/set_1/main_unc/leftBlue\GB_LB_4.xlsx
310	main_unc	True	1.0	243	0	2.0	2.0	n/a	0	None	n/a	0.0	n/a	0	-0.0315545604005	blockFiles/set_1/main_unc/leftBlue\GB_LB_4.xlsx
311	main_unc	True	0.0	243	0	2.0	2.0	0.0	1	left	1.0	0.0	0.0	0	-0.0388934471831	blockFiles/set_1/main_unc/leftBlue\GB_LB_4.xlsx
312	main_unc	True	0.0	243	0	2.0	2.0	1.0	1	right	1.0	1.0	1.0	1	0.0753355147317	blockFiles/set_1/main_unc/leftBlue\GB_LB_4.xlsx
313	main_unc	True	0.0	243	0	2.0	2.0	0.0	1	left	2.0	1.0	1.0	0	-0.021550727523900002	blockFiles/set_1/main_unc/leftBlue\GB_LB_4.xlsx
314	main_unc	True	0.0	243	0	2.0	2.0	0.0	1	left	2.0	0.0	1.0	0	-0.0147069388255	blockFiles/set_1/main_unc/leftBlue\GB_LB_4.xlsx
315	main_unc	True	0.0	243	0	2.0	2.0	1.0	1	right	1.0	0.0	1.0	1	0.05099726481359999	blockFiles/set_1/main_unc/leftBlue\GB_LB_4.xlsx
316	main_unc	True	0.0	243	0	2.0	2.0	0.0	1	left	2.0	1.0	1.0	0	-0.07208748903130001	blockFiles/set_1/main_unc/leftBlue\GB_LB_4.xlsx
317	main_unc	True	0.0	243	0	2.0	2.0	1.0	1	right	1.0	1.0	1.0	1	0.0173604476266	blockFiles/set_1/main_unc/leftBlue\GB_LB_4.xlsx
318	main_unc	True	0.0	243	0	2.0	2.0	0.0	1	left	1.0	0.0	0.0	0	-0.0545864995383	blockFiles/set_1/main_unc/leftBlue\GB_LB_4.xlsx
319	main_unc	True	0.0	243	0	2.0	2.0	0.0	1	left	2.0	0.0	1.0	0	-0.07590680530289999	blockFiles/set_1/main_unc/leftBlue\GB_LB_4.xlsx
320	main_unc	True	0.0	243	0	2.0	2.0	1.0	1	right	1.0	1.0	1.0	1	0.0513953103311	blockFiles/set_1/main_unc/leftBlue\GB_LB_4.xlsx
321	main_unc	True	0.0	243	0	2.0	2.0	0.0	0	left	1.0	0.0	1.0	1	0.0185620450601	blockFiles/set_1/main_unc/leftBlue\GB_LB_4.xlsx
322	main_unc	True	0.0	243	0	2.0	2.0	0.0	1	left	2.0	1.0	1.0	0	-0.0157627103291	blockFiles/set_1/main_unc/leftBlue\GB_LB_4.xlsx
323	main_unc	True	0.0	243	0	2.0	2.0	0.0	0	left	1.0	1.0	1.0	1	0.00935756675899	blockFiles/set_1/main_unc/leftBlue\GB_LB_4.xlsx
324	main_unc	True	0.0	243	0	2.0	2.0	0.0	1	left	2.0	1.0	1.0	0	-0.020423851385700003	blockFiles/set_1/main_unc/leftBlue\GB_LB_4.xlsx
325	main_unc	True	0.0	243	0	2.0	2.0	0.0	1	left	2.0	1.0	1.0	0	-0.07369503747669999	blockFiles/set_1/main_unc/leftBlue\GB_LB_4.xlsx
326	main_unc	True	0.0	243	0	2.0	2.0	1.0	1	right	1.0	1.0	1.0	1	0.0326091287099	blockFiles/set_1/main_unc/leftBlue\GB_LB_4.xlsx
327	main_unc	True	0.0	243	0	2.0	2.0	1.0	1	right	1.0	1.0	1.0	1	0.0624145350605	blockFiles/set_1/main_unc/leftBlue\GB_LB_4.xlsx
328	main_unc	True	0.0	243	0	2.0	2.0	1.0	1	right	1.0	1.0	1.0	1	0.0151377613656	blockFiles/set_1/main_unc/leftBlue\GB_LB_4.xlsx
329	main_unc	True	1.0	243	0	2.0	2.0	1.0	0	right	n/a	0.0	n/a	0	-0.0193765092641	blockFiles/set_1/main_unc/leftBlue\GB_LB_4.xlsx
330	main_unc	True	0.0	243	0	2.0	2.0	0.0	1	left	2.0	1.0	1.0	0	-0.037785508371900006	blockFiles/set_1/main_unc/leftBlue\GB_LB_4.xlsx
331	main_unc	True	0.0	243	0	2.0	2.0	1.0	1	right	1.0	0.0	1.0	1	0.030362705607	blockFiles/set_1/main_unc/leftBlue\GB_LB_4.xlsx
332	main_unc	True	0.0	243	0	2.0	2.0	1.0	1	right	2.0	0.0	0.0	1	0.055045526512	blockFiles/set_1/main_unc/leftBlue\GB_LB_4.xlsx
333	main_unc	True	0.0	243	0	2.0	2.0	n/a	0	None	n/a	0.0	n/a	0	-0.0315545604005	blockFiles/set_1/main_unc/leftBlue\GB_LB_4.xlsx
334	main_unc	True	0.0	243	0	2.0	2.0	0.0	1	left	2.0	0.0	1.0	0	-0.0315545604005	blockFiles/set_1/main_unc/leftBlue\GB_LB_4.xlsx
335	main_unc	True	0.0	243	0	2.0	2.0	0.0	1	left	2.0	1.0	1.0	0	-0.0193765092641	blockFiles/set_1/main_unc/leftBlue\GB_LB_4.xlsx
336	main_unc	True	0.0	243	0	3.0	3.0	0.0	1	left	1.0	0.0	0.0	0	-0.0183047655411	blockFiles/set_1/main_unc/leftBlue\GB_LB_5.xlsx
337	main_unc	True	0.0	243	0	3.0	3.0	1.0	1	right	2.0	0.0	0.0	1	0.0636697876453	blockFiles/set_1/main_unc/leftBlue\GB_LB_5.xlsx
338	main_unc	True	0.0	243	0	3.0	3.0	0.0	1	left	2.0	1.0	1.0	0	-0.0667989978008	blockFiles/set_1/main_unc/leftBlue\GB_LB_5.xlsx
339	main_unc	True	0.0	243	0	3.0	3.0	1.0	1	right	1.0	1.0	1.0	1	0.0126009845734	blockFiles/set_1/main_unc/leftBlue\GB_LB_5.xlsx
340	main_unc	True	0.0	243	0	3.0	3.0	0.0	0	left	1.0	1.0	1.0	1	0.0379284439981	blockFiles/set_1/main_unc/leftBlue\GB_LB_5.xlsx
341	main_unc	True	0.0	243	0	3.0	3.0	0.0	1	left	2.0	1.0	1.0	0	-0.0494327507354	blockFiles/set_1/main_unc/leftBlue\GB_LB_5.xlsx
342	main_unc	True	0.0	243	0	3.0	3.0	0.0	1	left	2.0	1.0	1.0	0	-0.0659727717005	blockFiles/set_1/main_unc/leftBlue\GB_LB_5.xlsx
343	main_unc	True	0.0	243	0	3.0	3.0	1.0	1	right	1.0	1.0	1.0	1	0.0380276127905	blockFiles/set_1/main_unc/leftBlue\GB_LB_5.xlsx
344	main_unc	True	0.0	243	0	3.0	3.0	1.0	1	right	1.0	1.0	1.0	1	0.0598987316899	blockFiles/set_1/main_unc/leftBlue\GB_LB_5.xlsx
345	main_unc	True	0.0	243	0	3.0	3.0	1.0	1	right	1.0	1.0	1.0	1	0.0160012700036	blockFiles/set_1/main_unc/leftBlue\GB_LB_5.xlsx
346	main_unc	True	0.0	243	0	3.0	3.0	1.0	1	right	1.0	1.0	1.0	1	0.07520702218639999	blockFiles/set_1/main_unc/leftBlue\GB_LB_5.xlsx
347	main_unc	True	0.0	243	0	3.0	3.0	1.0	1	right	1.0	1.0	1.0	1	0.00958994306624	blockFiles/set_1/main_unc/leftBlue\GB_LB_5.xlsx
348	main_unc	True	0.0	243	0	3.0	3.0	0.0	1	left	2.0	0.0	1.0	0	-0.06732341513040001	blockFiles/set_1/main_unc/leftBlue\GB_LB_5.xlsx
349	main_unc	True	0.0	243	0	3.0	3.0	0.0	0	left	1.0	1.0	1.0	1	0.0351957754977	blockFiles/set_1/main_unc/leftBlue\GB_LB_5.xlsx
350	main_unc	True	0.0	243	0	3.0	3.0	0.0	1	left	2.0	1.0	1.0	0	-0.0452461611852	blockFiles/set_1/main_unc/leftBlue\GB_LB_5.xlsx
351	main_unc	True	0.0	243	0	3.0	3.0	0.0	1	left	2.0	1.0	1.0	0	-0.047283626385000006	blockFiles/set_1/main_unc/leftBlue\GB_LB_5.xlsx
352	main_unc	True	0.0	243	0	3.0	3.0	0.0	1	left	2.0	0.0	1.0	0	-0.009018455464389999	blockFiles/set_1/main_unc/leftBlue\GB_LB_5.xlsx
353	main_unc	True	0.0	243	0	3.0	3.0	0.0	1	left	2.0	1.0	1.0	0	-0.0713478289731	blockFiles/set_1/main_unc/leftBlue\GB_LB_5.xlsx
354	main_unc	True	0.0	243	0	3.0	3.0	0.0	1	left	2.0	1.0	1.0	0	-0.025588720534	blockFiles/set_1/main_unc/leftBlue\GB_LB_5.xlsx
355	main_unc	True	1.0	243	0	3.0	3.0	n/a	0	None	n/a	0.0	n/a	1	0.026129891406700002	blockFiles/set_1/main_unc/leftBlue\GB_LB_5.xlsx
356	main_unc	True	0.0	243	0	3.0	3.0	1.0	1	right	1.0	0.0	1.0	1	0.030059195365800002	blockFiles/set_1/main_unc/leftBlue\GB_LB_5.xlsx
357	main_unc	True	0.0	243	0	3.0	3.0	0.0	1	left	2.0	1.0	1.0	0	-0.0584469821863	blockFiles/set_1/main_unc/leftBlue\GB_LB_5.xlsx
358	main_unc	True	0.0	243	0	3.0	3.0	0.0	1	left	2.0	1.0	1.0	0	-0.06057674314830001	blockFiles/set_1/main_unc/leftBlue\GB_LB_5.xlsx
359	main_unc	True	0.0	243	0	3.0	3.0	0.0	1	left	2.0	1.0	1.0	0	-0.0481317484379	blockFiles/set_1/main_unc/leftBlue\GB_LB_5.xlsx
360	main_unc	True	0.0	243	0	3.0	3.0	0.0	1	left	2.0	1.0	1.0	0	-0.0149323604815	blockFiles/set_1/main_unc/leftBlue\GB_LB_5.xlsx
361	main_unc	True	0.0	243	0	3.0	3.0	0.0	0	left	2.0	1.0	0.0	1	0.026129891406700002	blockFiles/set_1/main_unc/leftBlue\GB_LB_5.xlsx
362	main_unc	True	1.0	243	0	4.0	4.0	1.0	1	right	n/a	0.0	n/a	1	0.0386842156388	blockFiles/set_1/main_unc/rightBlue\GB_RB_6.xlsx
363	main_unc	True	0.0	243	0	4.0	4.0	0.0	1	left	1.0	0.0	1.0	0	-0.07815896434710001	blockFiles/set_1/main_unc/rightBlue\GB_RB_6.xlsx
364	main_unc	True	0.0	243	0	4.0	4.0	0.0	1	left	1.0	1.0	1.0	0	-0.019245204888299998	blockFiles/set_1/main_unc/rightBlue\GB_RB_6.xlsx
365	main_unc	True	0.0	243	0	4.0	4.0	0.0	1	left	1.0	1.0	1.0	0	-0.0188109321706	blockFiles/set_1/main_unc/rightBlue\GB_RB_6.xlsx
366	main_unc	True	0.0	243	0	4.0	4.0	1.0	1	right	2.0	1.0	1.0	1	0.058649419304	blockFiles/set_1/main_unc/rightBlue\GB_RB_6.xlsx
367	main_unc	True	0.0	243	0	4.0	4.0	1.0	1	right	2.0	1.0	1.0	1	0.0510826460458	blockFiles/set_1/main_unc/rightBlue\GB_RB_6.xlsx
368	main_unc	True	0.0	243	0	4.0	4.0	1.0	1	right	2.0	1.0	1.0	1	0.0471103794873	blockFiles/set_1/main_unc/rightBlue\GB_RB_6.xlsx
369	main_unc	True	0.0	243	0	4.0	4.0	0.0	1	left	1.0	0.0	1.0	0	-0.0323207987659	blockFiles/set_1/main_unc/rightBlue\GB_RB_6.xlsx
370	main_unc	True	0.0	243	0	4.0	4.0	1.0	1	right	2.0	0.0	1.0	1	0.07201341684910001	blockFiles/set_1/main_unc/rightBlue\GB_RB_6.xlsx
371	main_unc	True	0.0	243	0	4.0	4.0	0.0	1	left	1.0	1.0	1.0	0	-0.046635147817400004	blockFiles/set_1/main_unc/rightBlue\GB_RB_6.xlsx
372	main_unc	True	0.0	243	0	4.0	4.0	0.0	0	left	1.0	0.0	0.0	1	0.005578657425939999	blockFiles/set_1/main_unc/rightBlue\GB_RB_6.xlsx
373	main_unc	True	0.0	243	0	4.0	4.0	1.0	1	right	2.0	1.0	1.0	1	0.0517717840336	blockFiles/set_1/main_unc/rightBlue\GB_RB_6.xlsx
374	main_unc	True	0.0	243	0	4.0	4.0	1.0	1	right	2.0	0.0	1.0	1	0.0553127880767	blockFiles/set_1/main_unc/rightBlue\GB_RB_6.xlsx
375	main_unc	True	1.0	243	0	4.0	4.0	1.0	1	right	n/a	0.0	n/a	1	0.033583129402299995	blockFiles/set_1/main_unc/rightBlue\GB_RB_6.xlsx
376	main_unc	True	0.0	243	0	4.0	4.0	0.0	1	left	1.0	1.0	1.0	0	-0.0307845072448	blockFiles/set_1/main_unc/rightBlue\GB_RB_6.xlsx
377	main_unc	True	1.0	243	0	4.0	4.0	n/a	0	None	n/a	0.0	n/a	0	-0.017521814275499998	blockFiles/set_1/main_unc/rightBlue\GB_RB_6.xlsx
378	main_unc	True	0.0	243	0	4.0	4.0	0.0	1	left	1.0	1.0	1.0	0	-0.0270774468593	blockFiles/set_1/main_unc/rightBlue\GB_RB_6.xlsx
379	main_unc	True	0.0	243	0	4.0	4.0	1.0	1	right	2.0	1.0	1.0	1	0.06472308823839999	blockFiles/set_1/main_unc/rightBlue\GB_RB_6.xlsx
380	main_unc	True	0.0	243	0	4.0	4.0	1.0	1	right	2.0	1.0	1.0	1	0.020224378407	blockFiles/set_1/main_unc/rightBlue\GB_RB_6.xlsx
381	main_unc	True	0.0	243	0	4.0	4.0	1.0	1	right	2.0	1.0	1.0	1	0.045959446690999994	blockFiles/set_1/main_unc/rightBlue\GB_RB_6.xlsx
382	main_unc	True	1.0	243	0	4.0	4.0	0.0	1	left	n/a	0.0	n/a	0	-0.0263356295042	blockFiles/set_1/main_unc/rightBlue\GB_RB_6.xlsx
383	main_unc	True	0.0	243	0	4.0	4.0	0.0	1	left	1.0	1.0	1.0	0	-0.0645263260789	blockFiles/set_1/main_unc/rightBlue\GB_RB_6.xlsx
384	main_unc	True	0.0	243	0	4.0	4.0	0.0	1	left	1.0	1.0	1.0	0	-0.067434961684	blockFiles/set_1/main_unc/rightBlue\GB_RB_6.xlsx
385	main_unc	True	0.0	243	0	4.0	4.0	0.0	0	left	2.0	1.0	1.0	1	0.0163037833944	blockFiles/set_1/main_unc/rightBlue\GB_RB_6.xlsx
386	main_unc	True	0.0	243	0	4.0	4.0	0.0	1	left	1.0	1.0	1.0	0	-0.0564431927726	blockFiles/set_1/main_unc/rightBlue\GB_RB_6.xlsx
387	main_unc	True	0.0	243	0	4.0	4.0	1.0	1	right	2.0	1.0	1.0	1	0.0386842156388	blockFiles/set_1/main_unc/rightBlue\GB_RB_6.xlsx
388	main_unc	True	0.0	243	0	4.0	4.0	1.0	1	right	2.0	1.0	1.0	1	0.033583129402299995	blockFiles/set_1/main_unc/rightBlue\GB_RB_6.xlsx
389	main_unc	True	0.0	243	0	4.0	4.0	0.0	1	left	1.0	1.0	1.0	0	-0.017521814275499998	blockFiles/set_1/main_unc/rightBlue\GB_RB_6.xlsx
390	main_unc	True	0.0	243	0	4.0	4.0	0.0	1	left	1.0	0.0	1.0	0	-0.0263356295042	blockFiles/set_1/main_unc/rightBlue\GB_RB_6.xlsx
391	main_unc	True	0.0	243	0	5.0	5.0	0.0	1	left	1.0	0.0	0.0	0	-0.0615025506355	blockFiles/set_1/main_unc/leftBlue\GB_LB_6.xlsx
392	main_unc	True	0.0	243	0	5.0	5.0	1.0	1	right	2.0	0.0	0.0	1	0.0373369675875	blockFiles/set_1/main_unc/leftBlue\GB_LB_6.xlsx
393	main_unc	True	0.0	243	0	5.0	5.0	1.0	1	right	1.0	1.0	1.0	1	0.0239061044343	blockFiles/set_1/main_unc/leftBlue\GB_LB_6.xlsx
394	main_unc	True	0.0	243	0	5.0	5.0	0.0	1	left	2.0	0.0	1.0	0	-0.0686218833737	blockFiles/set_1/main_unc/leftBlue\GB_LB_6.xlsx
395	main_unc	True	0.0	243	0	5.0	5.0	1.0	0	right	2.0	1.0	1.0	0	-0.017691083774000003	blockFiles/set_1/main_unc/leftBlue\GB_LB_6.xlsx
396	main_unc	True	0.0	243	0	5.0	5.0	0.0	1	left	2.0	0.0	1.0	0	-0.0215559705533	blockFiles/set_1/main_unc/leftBlue\GB_LB_6.xlsx
397	main_unc	True	0.0	243	0	5.0	5.0	0.0	1	left	2.0	1.0	1.0	0	-0.0024720863439099995	blockFiles/set_1/main_unc/leftBlue\GB_LB_6.xlsx
398	main_unc	True	0.0	243	0	5.0	5.0	1.0	1	right	1.0	1.0	1.0	1	0.0549143478274	blockFiles/set_1/main_unc/leftBlue\GB_LB_6.xlsx
399	main_unc	True	0.0	243	0	5.0	5.0	0.0	0	left	1.0	1.0	1.0	1	0.0291086548008	blockFiles/set_1/main_unc/leftBlue\GB_LB_6.xlsx
400	main_unc	True	0.0	243	0	5.0	5.0	0.0	1	left	2.0	1.0	1.0	0	-0.050010654367500004	blockFiles/set_1/main_unc/leftBlue\GB_LB_6.xlsx
401	main_unc	True	0.0	243	0	5.0	5.0	1.0	1	right	1.0	0.0	1.0	1	0.0792233878933	blockFiles/set_1/main_unc/leftBlue\GB_LB_6.xlsx
402	main_unc	True	1.0	243	0	5.0	5.0	n/a	0	None	n/a	0.0	n/a	0	-0.0205466488563	blockFiles/set_1/main_unc/leftBlue\GB_LB_6.xlsx
403	main_unc	True	0.0	243	0	5.0	5.0	1.0	1	right	1.0	1.0	1.0	1	0.0127793733962	blockFiles/set_1/main_unc/leftBlue\GB_LB_6.xlsx
404	main_unc	True	0.0	243	0	5.0	5.0	0.0	1	left	2.0	0.0	1.0	0	-0.028254132289400002	blockFiles/set_1/main_unc/leftBlue\GB_LB_6.xlsx
405	main_unc	True	0.0	243	0	5.0	5.0	1.0	1	right	1.0	1.0	1.0	1	0.0600111327507	blockFiles/set_1/main_unc/leftBlue\GB_LB_6.xlsx
406	main_unc	True	1.0	243	0	5.0	5.0	0.0	1	left	n/a	0.0	n/a	0	-0.0684218880534	blockFiles/set_1/main_unc/leftBlue\GB_LB_6.xlsx
407	main_unc	True	0.0	243	0	5.0	5.0	1.0	1	right	1.0	1.0	1.0	1	0.036855258178	blockFiles/set_1/main_unc/leftBlue\GB_LB_6.xlsx
408	main_unc	True	0.0	243	0	5.0	5.0	0.0	1	left	2.0	1.0	1.0	0	-0.0196998303384	blockFiles/set_1/main_unc/leftBlue\GB_LB_6.xlsx
409	main_unc	True	0.0	243	0	5.0	5.0	1.0	1	right	1.0	1.0	1.0	1	0.0618590619974	blockFiles/set_1/main_unc/leftBlue\GB_LB_6.xlsx
410	main_unc	True	0.0	243	0	5.0	5.0	1.0	1	right	1.0	1.0	1.0	1	0.0301938747615	blockFiles/set_1/main_unc/leftBlue\GB_LB_6.xlsx
411	main_unc	True	0.0	243	0	5.0	5.0	0.0	1	left	2.0	1.0	1.0	0	-0.00345209436491	blockFiles/set_1/main_unc/leftBlue\GB_LB_6.xlsx
412	main_unc	True	0.0	243	0	5.0	5.0	0.0	0	left	1.0	1.0	1.0	1	0.0616512870416	blockFiles/set_1/main_unc/leftBlue\GB_LB_6.xlsx
413	main_unc	True	0.0	243	0	5.0	5.0	0.0	1	left	2.0	1.0	1.0	0	-0.0477453560382	blockFiles/set_1/main_unc/leftBlue\GB_LB_6.xlsx
414	main_unc	True	0.0	243	0	5.0	5.0	0.0	1	left	2.0	1.0	1.0	0	-0.0261347369663	blockFiles/set_1/main_unc/leftBlue\GB_LB_6.xlsx
415	main_unc	True	0.0	243	0	5.0	5.0	1.0	1	right	1.0	1.0	1.0	1	0.06398227289319999	blockFiles/set_1/main_unc/leftBlue\GB_LB_6.xlsx
416	main_unc	True	0.0	243	0	5.0	5.0	0.0	1	left	2.0	0.0	1.0	0	-0.0205466488563	blockFiles/set_1/main_unc/leftBlue\GB_LB_6.xlsx
417	main_unc	True	0.0	243	0	5.0	5.0	0.0	1	left	2.0	1.0	1.0	0	-0.0684218880534	blockFiles/set_1/main_unc/leftBlue\GB_LB_6.xlsx
418	main_unc	True	1.0	243	0	6.0	6.0	n/a	0	None	n/a	0.0	n/a	1	0.0470302246884	blockFiles/set_1/main_unc/rightBlue\GB_RB_4.xlsx
419	main_unc	True	0.0	243	0	6.0	6.0	1.0	1	right	1.0	0.0	0.0	1	0.0754875621386	blockFiles/set_1/main_unc/rightBlue\GB_RB_4.xlsx
420	main_unc	True	0.0	243	0	6.0	6.0	0.0	1	left	2.0	1.0	0.0	0	-0.043977434653799996	blockFiles/set_1/main_unc/rightBlue\GB_RB_4.xlsx
421	main_unc	True	0.0	243	0	6.0	6.0	0.0	1	left	2.0	0.0	0.0	0	-0.023121074568500002	blockFiles/set_1/main_unc/rightBlue\GB_RB_4.xlsx
422	main_unc	True	0.0	243	0	6.0	6.0	0.0	0	left	1.0	0.0	0.0	1	0.00904653966427	blockFiles/set_1/main_unc/rightBlue\GB_RB_4.xlsx
423	main_unc	True	0.0	243	0	6.0	6.0	0.0	1	left	1.0	1.0	1.0	0	-0.0472819535248	blockFiles/set_1/main_unc/rightBlue\GB_RB_4.xlsx
424	main_unc	True	0.0	243	0	6.0	6.0	0.0	1	left	1.0	1.0	1.0	0	-0.0454192133062	blockFiles/set_1/main_unc/rightBlue\GB_RB_4.xlsx
425	main_unc	True	0.0	243	0	6.0	6.0	1.0	1	right	2.0	1.0	1.0	1	0.0326476603933	blockFiles/set_1/main_unc/rightBlue\GB_RB_4.xlsx
426	main_unc	True	0.0	243	0	6.0	6.0	1.0	1	right	2.0	1.0	1.0	1	0.0698345511593	blockFiles/set_1/main_unc/rightBlue\GB_RB_4.xlsx
427	main_unc	True	0.0	243	0	6.0	6.0	1.0	1	right	2.0	1.0	1.0	1	0.0515975712612	blockFiles/set_1/main_unc/rightBlue\GB_RB_4.xlsx
428	main_unc	True	0.0	243	0	6.0	6.0	1.0	1	right	2.0	0.0	1.0	1	0.0662721764296	blockFiles/set_1/main_unc/rightBlue\GB_RB_4.xlsx
429	main_unc	True	0.0	243	0	6.0	6.0	0.0	1	left	1.0	1.0	1.0	0	-0.061651885788900004	blockFiles/set_1/main_unc/rightBlue\GB_RB_4.xlsx
430	main_unc	True	0.0	243	0	6.0	6.0	0.0	1	left	1.0	0.0	1.0	0	-0.013165768515299998	blockFiles/set_1/main_unc/rightBlue\GB_RB_4.xlsx
431	main_unc	True	0.0	243	0	6.0	6.0	0.0	1	left	1.0	1.0	1.0	0	-0.00328807206824	blockFiles/set_1/main_unc/rightBlue\GB_RB_4.xlsx
432	main_unc	True	0.0	243	0	6.0	6.0	0.0	0	left	1.0	0.0	0.0	1	0.0282403651252	blockFiles/set_1/main_unc/rightBlue\GB_RB_4.xlsx
433	main_unc	True	1.0	243	0	6.0	6.0	n/a	0	None	n/a	0.0	n/a	1	0.0295767777599	blockFiles/set_1/main_unc/rightBlue\GB_RB_4.xlsx
434	main_unc	True	1.0	243	0	6.0	6.0	0.0	1	left	n/a	0.0	n/a	0	-0.0611969555914	blockFiles/set_1/main_unc/rightBlue\GB_RB_4.xlsx
435	main_unc	True	0.0	243	0	6.0	6.0	1.0	1	right	1.0	1.0	0.0	1	0.029488443601900005	blockFiles/set_1/main_unc/rightBlue\GB_RB_4.xlsx
436	main_unc	True	0.0	243	0	6.0	6.0	0.0	1	left	1.0	1.0	1.0	0	-0.0535619598068	blockFiles/set_1/main_unc/rightBlue\GB_RB_4.xlsx
437	main_unc	True	0.0	243	0	6.0	6.0	0.0	0	left	1.0	0.0	0.0	1	0.0428395245969	blockFiles/set_1/main_unc/rightBlue\GB_RB_4.xlsx
438	main_unc	True	0.0	243	0	6.0	6.0	1.0	1	right	2.0	1.0	1.0	1	0.04329362304880001	blockFiles/set_1/main_unc/rightBlue\GB_RB_4.xlsx
439	main_unc	True	0.0	243	0	6.0	6.0	0.0	1	left	1.0	1.0	1.0	0	-0.06742876060309999	blockFiles/set_1/main_unc/rightBlue\GB_RB_4.xlsx
440	main_unc	True	0.0	243	0	6.0	6.0	0.0	1	left	1.0	1.0	1.0	0	-0.0515435579419	blockFiles/set_1/main_unc/rightBlue\GB_RB_4.xlsx
441	main_unc	True	0.0	243	0	6.0	6.0	0.0	0	left	1.0	0.0	0.0	1	0.025441755708300002	blockFiles/set_1/main_unc/rightBlue\GB_RB_4.xlsx
442	main_unc	True	0.0	243	0	6.0	6.0	0.0	0	left	1.0	0.0	0.0	1	0.00861452408135	blockFiles/set_1/main_unc/rightBlue\GB_RB_4.xlsx
443	main_unc	True	0.0	243	0	6.0	6.0	1.0	1	right	2.0	1.0	1.0	1	0.0470302246884	blockFiles/set_1/main_unc/rightBlue\GB_RB_4.xlsx
444	main_unc	True	0.0	243	0	6.0	6.0	0.0	0	left	1.0	0.0	0.0	1	0.0295767777599	blockFiles/set_1/main_unc/rightBlue\GB_RB_4.xlsx
445	main_unc	True	0.0	243	0	6.0	6.0	0.0	1	left	1.0	1.0	1.0	0	-0.0611969555914	blockFiles/set_1/main_unc/rightBlue\GB_RB_4.xlsx
446	main_unc	True	0.0	243	0	7.0	7.0	0.0	1	left	1.0	1.0	1.0	0	-0.0619602825306	blockFiles/set_1/main_unc/rightBlue\GB_RB_3.xlsx
447	main_unc	True	0.0	243	0	7.0	7.0	1.0	1	right	2.0	1.0	1.0	1	0.0688156437129	blockFiles/set_1/main_unc/rightBlue\GB_RB_3.xlsx
448	main_unc	True	0.0	243	0	7.0	7.0	1.0	1	right	2.0	1.0	1.0	1	0.049111281801	blockFiles/set_1/main_unc/rightBlue\GB_RB_3.xlsx
449	main_unc	True	0.0	243	0	7.0	7.0	1.0	1	right	1.0	0.0	0.0	1	0.00494533920661	blockFiles/set_1/main_unc/rightBlue\GB_RB_3.xlsx
450	main_unc	True	0.0	243	0	7.0	7.0	0.0	1	left	1.0	1.0	1.0	0	-0.0539420138486	blockFiles/set_1/main_unc/rightBlue\GB_RB_3.xlsx
451	main_unc	True	0.0	243	0	7.0	7.0	1.0	1	right	2.0	1.0	1.0	1	0.0661490681209	blockFiles/set_1/main_unc/rightBlue\GB_RB_3.xlsx
452	main_unc	True	0.0	243	0	7.0	7.0	1.0	1	right	2.0	1.0	1.0	1	0.042769212350199995	blockFiles/set_1/main_unc/rightBlue\GB_RB_3.xlsx
453	main_unc	True	1.0	243	0	7.0	7.0	0.0	1	left	n/a	0.0	n/a	0	-0.014404548220299998	blockFiles/set_1/main_unc/rightBlue\GB_RB_3.xlsx
454	main_unc	True	0.0	243	0	7.0	7.0	0.0	1	left	1.0	0.0	1.0	0	-0.0324070178904	blockFiles/set_1/main_unc/rightBlue\GB_RB_3.xlsx
455	main_unc	True	0.0	243	0	7.0	7.0	0.0	1	left	1.0	1.0	1.0	0	-0.04722528517249999	blockFiles/set_1/main_unc/rightBlue\GB_RB_3.xlsx
456	main_unc	True	0.0	243	0	7.0	7.0	0.0	1	left	1.0	1.0	1.0	0	-0.0505840945244	blockFiles/set_1/main_unc/rightBlue\GB_RB_3.xlsx
457	main_unc	True	0.0	243	0	7.0	7.0	0.0	1	left	1.0	1.0	1.0	0	-0.035350778996900006	blockFiles/set_1/main_unc/rightBlue\GB_RB_3.xlsx
458	main_unc	True	0.0	243	0	7.0	7.0	1.0	1	right	2.0	1.0	1.0	1	0.0792168033496	blockFiles/set_1/main_unc/rightBlue\GB_RB_3.xlsx
459	main_unc	True	0.0	243	0	7.0	7.0	1.0	1	right	1.0	0.0	0.0	1	0.006507351156319999	blockFiles/set_1/main_unc/rightBlue\GB_RB_3.xlsx
460	main_unc	True	1.0	243	0	7.0	7.0	n/a	0	None	n/a	0.0	n/a	1	0.0202539538592	blockFiles/set_1/main_unc/rightBlue\GB_RB_3.xlsx
461	main_unc	True	0.0	243	0	7.0	7.0	1.0	1	right	2.0	1.0	1.0	1	0.07954559842119999	blockFiles/set_1/main_unc/rightBlue\GB_RB_3.xlsx
462	main_unc	True	0.0	243	0	7.0	7.0	0.0	1	left	1.0	1.0	1.0	0	-0.0472422119044	blockFiles/set_1/main_unc/rightBlue\GB_RB_3.xlsx
463	main_unc	True	0.0	243	0	7.0	7.0	0.0	0	left	1.0	1.0	0.0	1	0.0114271789044	blockFiles/set_1/main_unc/rightBlue\GB_RB_3.xlsx
464	main_unc	True	0.0	243	0	7.0	7.0	1.0	1	right	2.0	1.0	1.0	1	0.0662762263417	blockFiles/set_1/main_unc/rightBlue\GB_RB_3.xlsx
465	main_unc	True	1.0	243	0	7.0	7.0	n/a	0	None	n/a	0.0	n/a	1	0.00287264730781	blockFiles/set_1/main_unc/rightBlue\GB_RB_3.xlsx
466	main_unc	True	0.0	243	0	7.0	7.0	0.0	1	left	1.0	1.0	1.0	0	-0.023125048987599997	blockFiles/set_1/main_unc/rightBlue\GB_RB_3.xlsx
467	main_unc	True	0.0	243	0	7.0	7.0	0.0	1	left	1.0	1.0	1.0	0	-0.0353712551855	blockFiles/set_1/main_unc/rightBlue\GB_RB_3.xlsx
468	main_unc	True	0.0	243	0	7.0	7.0	0.0	1	left	1.0	1.0	1.0	0	-0.0510412454605	blockFiles/set_1/main_unc/rightBlue\GB_RB_3.xlsx
469	main_unc	True	0.0	243	0	7.0	7.0	0.0	1	left	1.0	1.0	1.0	0	-0.0532599408925	blockFiles/set_1/main_unc/rightBlue\GB_RB_3.xlsx
470	main_unc	True	0.0	243	0	7.0	7.0	0.0	1	left	1.0	1.0	1.0	0	-0.046355878859800005	blockFiles/set_1/main_unc/rightBlue\GB_RB_3.xlsx
471	main_unc	True	0.0	243	0	7.0	7.0	0.0	1	left	1.0	0.0	1.0	0	-0.014404548220299998	blockFiles/set_1/main_unc/rightBlue\GB_RB_3.xlsx
472	main_unc	True	0.0	243	0	7.0	7.0	1.0	1	right	2.0	0.0	1.0	1	0.0202539538592	blockFiles/set_1/main_unc/rightBlue\GB_RB_3.xlsx
473	main_unc	True	0.0	243	0	7.0	7.0	n/a	0	None	n/a	0.0	n/a	1	0.00287264730781	blockFiles/set_1/main_unc/rightBlue\GB_RB_3.xlsx
474	main_unc	True	0.0	243	0	7.0	7.0	n/a	0	None	n/a	0.0	n/a	1	0.00287264730781	blockFiles/set_1/main_unc/rightBlue\GB_RB_3.xlsx
475	main_unc	True	0.0	243	0	7.0	7.0	0.0	0	left	1.0	0.0	0.0	1	0.00287264730781	blockFiles/set_1/main_unc/rightBlue\GB_RB_3.xlsx
476	main_unc	True	0.0	243	0	8.0	8.0	1.0	1	right	2.0	0.0	0.0	1	0.0794558046758	blockFiles/set_1/main_unc/leftBlue\GB_LB_1.xlsx
477	main_unc	True	0.0	243	0	8.0	8.0	0.0	1	left	1.0	0.0	0.0	0	-0.0418601996265	blockFiles/set_1/main_unc/leftBlue\GB_LB_1.xlsx
478	main_unc	True	0.0	243	0	8.0	8.0	1.0	1	right	1.0	1.0	1.0	1	0.034138582460599996	blockFiles/set_1/main_unc/leftBlue\GB_LB_1.xlsx
479	main_unc	True	0.0	243	0	8.0	8.0	0.0	1	left	2.0	1.0	1.0	0	-0.0543659731559	blockFiles/set_1/main_unc/leftBlue\GB_LB_1.xlsx
480	main_unc	True	0.0	243	0	8.0	8.0	1.0	1	right	1.0	1.0	1.0	1	0.027220719587099998	blockFiles/set_1/main_unc/leftBlue\GB_LB_1.xlsx
481	main_unc	True	0.0	243	0	8.0	8.0	0.0	1	left	2.0	1.0	1.0	0	-0.0168742542714	blockFiles/set_1/main_unc/leftBlue\GB_LB_1.xlsx
482	main_unc	True	0.0	243	0	8.0	8.0	0.0	1	left	2.0	1.0	1.0	0	-0.0341399021447	blockFiles/set_1/main_unc/leftBlue\GB_LB_1.xlsx
483	main_unc	True	0.0	243	0	8.0	8.0	1.0	1	right	1.0	0.0	1.0	1	0.026820538174400003	blockFiles/set_1/main_unc/leftBlue\GB_LB_1.xlsx
484	main_unc	True	0.0	243	0	8.0	8.0	1.0	1	right	1.0	1.0	1.0	1	0.0658906003647	blockFiles/set_1/main_unc/leftBlue\GB_LB_1.xlsx
485	main_unc	True	0.0	243	0	8.0	8.0	1.0	1	right	1.0	1.0	1.0	1	0.0794873443805	blockFiles/set_1/main_unc/leftBlue\GB_LB_1.xlsx
486	main_unc	True	0.0	243	0	8.0	8.0	1.0	1	right	1.0	1.0	1.0	1	0.028689373265999997	blockFiles/set_1/main_unc/leftBlue\GB_LB_1.xlsx
487	main_unc	True	0.0	243	0	8.0	8.0	1.0	1	right	1.0	0.0	1.0	1	0.0143645963818	blockFiles/set_1/main_unc/leftBlue\GB_LB_1.xlsx
488	main_unc	True	0.0	243	0	8.0	8.0	0.0	1	left	2.0	1.0	1.0	0	-0.0223611047305	blockFiles/set_1/main_unc/leftBlue\GB_LB_1.xlsx
489	main_unc	True	0.0	243	0	8.0	8.0	0.0	0	left	2.0	1.0	0.0	1	0.015210275501	blockFiles/set_1/main_unc/leftBlue\GB_LB_1.xlsx
490	main_unc	True	0.0	243	0	8.0	8.0	0.0	1	left	2.0	0.0	1.0	0	-0.026490827091	blockFiles/set_1/main_unc/leftBlue\GB_LB_1.xlsx
491	main_unc	True	0.0	243	0	8.0	8.0	0.0	1	left	2.0	1.0	1.0	0	-0.0522153745964	blockFiles/set_1/main_unc/leftBlue\GB_LB_1.xlsx
492	main_unc	True	0.0	243	0	8.0	8.0	1.0	1	right	1.0	1.0	1.0	1	0.0589703532867	blockFiles/set_1/main_unc/leftBlue\GB_LB_1.xlsx
493	main_unc	True	0.0	243	0	8.0	8.0	0.0	1	left	2.0	1.0	1.0	0	-0.0747367747501	blockFiles/set_1/main_unc/leftBlue\GB_LB_1.xlsx
494	main_unc	True	0.0	243	0	8.0	8.0	0.0	0	left	2.0	0.0	0.0	1	0.0009010813012719999	blockFiles/set_1/main_unc/leftBlue\GB_LB_1.xlsx
495	main_unc	True	0.0	243	0	8.0	8.0	0.0	1	left	2.0	1.0	1.0	0	-0.0532009279169	blockFiles/set_1/main_unc/leftBlue\GB_LB_1.xlsx
496	main_unc	True	0.0	243	0	8.0	8.0	1.0	1	right	1.0	1.0	1.0	1	0.0624004933983	blockFiles/set_1/main_unc/leftBlue\GB_LB_1.xlsx
497	main_unc	True	0.0	243	0	8.0	8.0	0.0	0	left	1.0	1.0	1.0	1	0.00701402876526	blockFiles/set_1/main_unc/leftBlue\GB_LB_1.xlsx
498	main_unc	True	0.0	243	0	8.0	8.0	0.0	1	left	2.0	1.0	1.0	0	-0.07471071107310001	blockFiles/set_1/main_unc/leftBlue\GB_LB_1.xlsx
499	main_unc	True	0.0	243	0	8.0	8.0	0.0	1	left	2.0	1.0	1.0	0	-0.0431005331874	blockFiles/set_1/main_unc/leftBlue\GB_LB_1.xlsx
500	main_unc	True	0.0	243	0	8.0	8.0	0.0	1	left	2.0	0.0	1.0	0	-0.030310991704500002	blockFiles/set_1/main_unc/leftBlue\GB_LB_1.xlsx
501	main_unc	True	0.0	243	0	9.0	9.0	1.0	1	right	2.0	0.0	0.0	1	0.0522251753137	blockFiles/set_1/main_unc/leftBlue\GB_LB_3.xlsx
502	main_unc	True	0.0	243	0	9.0	9.0	1.0	1	right	2.0	0.0	0.0	1	0.0298791870847	blockFiles/set_1/main_unc/leftBlue\GB_LB_3.xlsx
503	main_unc	True	0.0	243	0	9.0	9.0	1.0	1	right	1.0	0.0	1.0	1	0.0301647323184	blockFiles/set_1/main_unc/leftBlue\GB_LB_3.xlsx
504	main_unc	True	0.0	243	0	9.0	9.0	1.0	1	right	1.0	1.0	1.0	1	0.0729798528738	blockFiles/set_1/main_unc/leftBlue\GB_LB_3.xlsx
505	main_unc	True	0.0	243	0	9.0	9.0	1.0	1	right	1.0	1.0	1.0	1	0.07060667587439999	blockFiles/set_1/main_unc/leftBlue\GB_LB_3.xlsx
506	main_unc	True	0.0	243	0	9.0	9.0	0.0	1	left	2.0	1.0	1.0	0	-0.031017142590099998	blockFiles/set_1/main_unc/leftBlue\GB_LB_3.xlsx
507	main_unc	True	0.0	243	0	9.0	9.0	1.0	1	right	2.0	0.0	0.0	1	0.048839199245	blockFiles/set_1/main_unc/leftBlue\GB_LB_3.xlsx
508	main_unc	True	1.0	243	0	9.0	9.0	0.0	0	left	n/a	0.0	n/a	1	0.013721306640700003	blockFiles/set_1/main_unc/leftBlue\GB_LB_3.xlsx
509	main_unc	True	0.0	243	0	9.0	9.0	0.0	1	left	2.0	1.0	1.0	0	-0.0227168617584	blockFiles/set_1/main_unc/leftBlue\GB_LB_3.xlsx
510	main_unc	True	0.0	243	0	9.0	9.0	1.0	1	right	1.0	0.0	1.0	1	0.0345184609294	blockFiles/set_1/main_unc/leftBlue\GB_LB_3.xlsx
511	main_unc	True	0.0	243	0	9.0	9.0	0.0	1	left	2.0	1.0	1.0	0	-0.0748158602044	blockFiles/set_1/main_unc/leftBlue\GB_LB_3.xlsx
512	main_unc	True	0.0	243	0	9.0	9.0	0.0	1	left	2.0	1.0	1.0	0	-0.07716044116769999	blockFiles/set_1/main_unc/leftBlue\GB_LB_3.xlsx
513	main_unc	True	0.0	243	0	9.0	9.0	0.0	1	left	2.0	1.0	1.0	0	-0.005442547667770001	blockFiles/set_1/main_unc/leftBlue\GB_LB_3.xlsx
514	main_unc	True	0.0	243	0	9.0	9.0	1.0	1	right	1.0	0.0	1.0	1	0.0594620340876	blockFiles/set_1/main_unc/leftBlue\GB_LB_3.xlsx
515	main_unc	True	0.0	243	0	9.0	9.0	0.0	0	left	1.0	1.0	1.0	1	0.028994243703799997	blockFiles/set_1/main_unc/leftBlue\GB_LB_3.xlsx
516	main_unc	True	0.0	243	0	9.0	9.0	0.0	1	left	2.0	1.0	1.0	0	-0.02334615089	blockFiles/set_1/main_unc/leftBlue\GB_LB_3.xlsx
517	main_unc	True	0.0	243	0	9.0	9.0	0.0	1	left	2.0	1.0	1.0	0	-0.056495127193599996	blockFiles/set_1/main_unc/leftBlue\GB_LB_3.xlsx
518	main_unc	True	0.0	243	0	9.0	9.0	0.0	1	left	2.0	1.0	1.0	0	-0.037285184729800004	blockFiles/set_1/main_unc/leftBlue\GB_LB_3.xlsx
519	main_unc	True	0.0	243	0	9.0	9.0	0.0	0	left	2.0	0.0	0.0	1	0.0125282424316	blockFiles/set_1/main_unc/leftBlue\GB_LB_3.xlsx
520	main_unc	True	0.0	243	0	9.0	9.0	0.0	1	left	2.0	0.0	1.0	0	-0.027937037385999997	blockFiles/set_1/main_unc/leftBlue\GB_LB_3.xlsx
521	main_unc	True	0.0	243	0	9.0	9.0	0.0	0	left	2.0	0.0	0.0	1	0.032913483493	blockFiles/set_1/main_unc/leftBlue\GB_LB_3.xlsx
522	main_unc	True	0.0	243	0	9.0	9.0	0.0	1	left	2.0	1.0	1.0	0	-0.073397763744	blockFiles/set_1/main_unc/leftBlue\GB_LB_3.xlsx
523	main_unc	True	0.0	243	0	9.0	9.0	1.0	1	right	1.0	1.0	1.0	1	0.0646241512895	blockFiles/set_1/main_unc/leftBlue\GB_LB_3.xlsx
524	main_unc	True	0.0	243	0	9.0	9.0	0.0	1	left	2.0	1.0	1.0	0	-0.070369170215	blockFiles/set_1/main_unc/leftBlue\GB_LB_3.xlsx
525	main_unc	True	0.0	243	0	9.0	9.0	0.0	1	left	2.0	1.0	1.0	0	-0.0690200112946	blockFiles/set_1/main_unc/leftBlue\GB_LB_3.xlsx
526	main_unc	True	0.0	243	0	9.0	9.0	0.0	0	left	2.0	0.0	0.0	1	0.013721306640700003	blockFiles/set_1/main_unc/leftBlue\GB_LB_3.xlsx
527	main_unc	True	1.0	243	0	10.0	10.0	n/a	0	None	n/a	0.0	n/a	0	-0.0024413711763899997	blockFiles/set_1/main_unc/rightBlue\GB_RB_5.xlsx
528	main_unc	True	0.0	243	0	10.0	10.0	0.0	1	left	1.0	1.0	1.0	0	-0.07944081714380001	blockFiles/set_1/main_unc/rightBlue\GB_RB_5.xlsx
529	main_unc	True	0.0	243	0	10.0	10.0	1.0	1	right	2.0	1.0	1.0	1	0.0556398539431	blockFiles/set_1/main_unc/rightBlue\GB_RB_5.xlsx
530	main_unc	True	0.0	243	0	10.0	10.0	1.0	1	right	2.0	1.0	1.0	1	0.056393419075800005	blockFiles/set_1/main_unc/rightBlue\GB_RB_5.xlsx
531	main_unc	True	0.0	243	0	10.0	10.0	1.0	1	right	2.0	1.0	1.0	1	0.021424045153	blockFiles/set_1/main_unc/rightBlue\GB_RB_5.xlsx
532	main_unc	True	0.0	243	0	10.0	10.0	0.0	1	left	1.0	1.0	1.0	0	-0.0503535801731	blockFiles/set_1/main_unc/rightBlue\GB_RB_5.xlsx
533	main_unc	True	0.0	243	0	10.0	10.0	1.0	1	right	2.0	1.0	1.0	1	0.0577802004479	blockFiles/set_1/main_unc/rightBlue\GB_RB_5.xlsx
534	main_unc	True	0.0	243	0	10.0	10.0	0.0	1	left	1.0	1.0	1.0	0	-0.027567494027299997	blockFiles/set_1/main_unc/rightBlue\GB_RB_5.xlsx
535	main_unc	True	0.0	243	0	10.0	10.0	0.0	1	left	1.0	0.0	1.0	0	-0.023749873377400005	blockFiles/set_1/main_unc/rightBlue\GB_RB_5.xlsx
536	main_unc	True	0.0	243	0	10.0	10.0	0.0	1	left	1.0	1.0	1.0	0	-0.0597660453245	blockFiles/set_1/main_unc/rightBlue\GB_RB_5.xlsx
537	main_unc	True	0.0	243	0	10.0	10.0	1.0	1	right	2.0	1.0	1.0	1	0.0400585430488	blockFiles/set_1/main_unc/rightBlue\GB_RB_5.xlsx
538	main_unc	True	0.0	243	0	10.0	10.0	1.0	1	right	2.0	1.0	1.0	1	0.0753528821655	blockFiles/set_1/main_unc/rightBlue\GB_RB_5.xlsx
539	main_unc	True	0.0	243	0	10.0	10.0	0.0	1	left	1.0	0.0	1.0	0	-0.0449038504064	blockFiles/set_1/main_unc/rightBlue\GB_RB_5.xlsx
540	main_unc	True	0.0	243	0	10.0	10.0	1.0	1	right	2.0	1.0	1.0	1	0.0550788413361	blockFiles/set_1/main_unc/rightBlue\GB_RB_5.xlsx
541	main_unc	True	0.0	243	0	10.0	10.0	0.0	1	left	1.0	1.0	1.0	0	-0.0662523213588	blockFiles/set_1/main_unc/rightBlue\GB_RB_5.xlsx
542	main_unc	True	0.0	243	0	10.0	10.0	0.0	1	left	1.0	1.0	1.0	0	-0.0250064364448	blockFiles/set_1/main_unc/rightBlue\GB_RB_5.xlsx
543	main_unc	True	0.0	243	0	10.0	10.0	1.0	1	right	2.0	1.0	1.0	1	0.0115427093208	blockFiles/set_1/main_unc/rightBlue\GB_RB_5.xlsx
544	main_unc	True	0.0	243	0	10.0	10.0	1.0	1	right	2.0	1.0	1.0	1	0.0412176991999	blockFiles/set_1/main_unc/rightBlue\GB_RB_5.xlsx
545	main_unc	True	0.0	243	0	10.0	10.0	0.0	0	left	1.0	0.0	0.0	1	0.0231915735267	blockFiles/set_1/main_unc/rightBlue\GB_RB_5.xlsx
546	main_unc	True	0.0	243	0	10.0	10.0	0.0	1	left	1.0	1.0	1.0	0	-0.0648799718544	blockFiles/set_1/main_unc/rightBlue\GB_RB_5.xlsx
547	main_unc	True	0.0	243	0	10.0	10.0	1.0	1	right	2.0	1.0	1.0	1	0.0370915772766	blockFiles/set_1/main_unc/rightBlue\GB_RB_5.xlsx
548	main_unc	True	1.0	243	0	10.0	10.0	0.0	1	left	n/a	0.0	n/a	0	-0.0263340967707	blockFiles/set_1/main_unc/rightBlue\GB_RB_5.xlsx
549	main_unc	True	0.0	243	0	10.0	10.0	1.0	1	right	2.0	0.0	1.0	1	0.043475132808099996	blockFiles/set_1/main_unc/rightBlue\GB_RB_5.xlsx
550	main_unc	True	0.0	243	0	10.0	10.0	0.0	1	left	1.0	1.0	1.0	0	-0.0013536160066700002	blockFiles/set_1/main_unc/rightBlue\GB_RB_5.xlsx
551	main_unc	True	0.0	243	0	10.0	10.0	0.0	1	left	1.0	1.0	1.0	0	-0.06426401933659999	blockFiles/set_1/main_unc/rightBlue\GB_RB_5.xlsx
552	main_unc	True	0.0	243	0	10.0	10.0	0.0	1	left	1.0	1.0	1.0	0	-0.0024413711763899997	blockFiles/set_1/main_unc/rightBlue\GB_RB_5.xlsx
553	main_unc	True	0.0	243	0	10.0	10.0	0.0	1	left	1.0	0.0	1.0	0	-0.0263340967707	blockFiles/set_1/main_unc/rightBlue\GB_RB_5.xlsx
554	main_unc	True	0.0	243	0	11.0	11.0	1.0	1	right	2.0	1.0	1.0	1	0.050410822928	blockFiles/set_1/main_unc/rightBlue\GB_RB_2.xlsx
555	main_unc	True	0.0	243	0	11.0	11.0	1.0	0	right	2.0	0.0	0.0	0	-0.00264276275411	blockFiles/set_1/main_unc/rightBlue\GB_RB_2.xlsx
556	main_unc	True	0.0	243	0	11.0	11.0	1.0	1	right	2.0	0.0	1.0	1	0.019983365144599998	blockFiles/set_1/main_unc/rightBlue\GB_RB_2.xlsx
557	main_unc	True	0.0	243	0	11.0	11.0	1.0	1	right	2.0	1.0	1.0	1	0.0741736097261	blockFiles/set_1/main_unc/rightBlue\GB_RB_2.xlsx
558	main_unc	True	0.0	243	0	11.0	11.0	0.0	1	left	1.0	1.0	1.0	0	-0.0277017387934	blockFiles/set_1/main_unc/rightBlue\GB_RB_2.xlsx
559	main_unc	True	0.0	243	0	11.0	11.0	0.0	1	left	1.0	1.0	1.0	0	-0.049303007368	blockFiles/set_1/main_unc/rightBlue\GB_RB_2.xlsx
560	main_unc	True	0.0	243	0	11.0	11.0	1.0	1	right	2.0	1.0	1.0	1	0.043354422226499996	blockFiles/set_1/main_unc/rightBlue\GB_RB_2.xlsx
561	main_unc	True	0.0	243	0	11.0	11.0	0.0	1	left	1.0	1.0	1.0	0	-0.0311788640916	blockFiles/set_1/main_unc/rightBlue\GB_RB_2.xlsx
562	main_unc	True	0.0	243	0	11.0	11.0	1.0	1	right	2.0	1.0	1.0	1	0.04313096687199999	blockFiles/set_1/main_unc/rightBlue\GB_RB_2.xlsx
563	main_unc	True	0.0	243	0	11.0	11.0	1.0	1	right	2.0	1.0	1.0	1	0.040942156743300005	blockFiles/set_1/main_unc/rightBlue\GB_RB_2.xlsx
564	main_unc	True	1.0	243	0	11.0	11.0	n/a	0	None	n/a	0.0	n/a	0	-0.0351466117613	blockFiles/set_1/main_unc/rightBlue\GB_RB_2.xlsx
565	main_unc	True	1.0	243	0	11.0	11.0	n/a	0	None	n/a	0.0	n/a	1	0.0107658691332	blockFiles/set_1/main_unc/rightBlue\GB_RB_2.xlsx
566	main_unc	True	0.0	243	0	11.0	11.0	1.0	0	right	2.0	1.0	0.0	0	-0.00184345133603	blockFiles/set_1/main_unc/rightBlue\GB_RB_2.xlsx
567	main_unc	True	0.0	243	0	11.0	11.0	0.0	1	left	1.0	1.0	1.0	0	-0.06560510670769999	blockFiles/set_1/main_unc/rightBlue\GB_RB_2.xlsx
568	main_unc	True	0.0	243	0	11.0	11.0	0.0	1	left	1.0	1.0	1.0	0	-0.020500216130200002	blockFiles/set_1/main_unc/rightBlue\GB_RB_2.xlsx
569	main_unc	True	0.0	243	0	11.0	11.0	1.0	1	right	2.0	0.0	1.0	1	0.0779795172997	blockFiles/set_1/main_unc/rightBlue\GB_RB_2.xlsx
570	main_unc	True	0.0	243	0	11.0	11.0	0.0	1	left	1.0	1.0	1.0	0	-0.0625453299098	blockFiles/set_1/main_unc/rightBlue\GB_RB_2.xlsx
571	main_unc	True	0.0	243	0	11.0	11.0	0.0	1	left	1.0	1.0	1.0	0	-0.07069183634589998	blockFiles/set_1/main_unc/rightBlue\GB_RB_2.xlsx
572	main_unc	True	0.0	243	0	11.0	11.0	0.0	0	left	1.0	0.0	0.0	1	0.0057686437852700004	blockFiles/set_1/main_unc/rightBlue\GB_RB_2.xlsx
573	main_unc	True	0.0	243	0	11.0	11.0	1.0	1	right	2.0	0.0	1.0	1	0.05484716771169999	blockFiles/set_1/main_unc/rightBlue\GB_RB_2.xlsx
574	main_unc	True	0.0	243	0	11.0	11.0	1.0	0	right	1.0	1.0	1.0	0	-0.00569057580084	blockFiles/set_1/main_unc/rightBlue\GB_RB_2.xlsx
575	main_unc	True	0.0	243	0	11.0	11.0	0.0	1	left	1.0	0.0	1.0	0	-0.0655724337325	blockFiles/set_1/main_unc/rightBlue\GB_RB_2.xlsx
576	main_unc	True	0.0	243	0	11.0	11.0	1.0	1	right	2.0	1.0	1.0	1	0.0196347550116	blockFiles/set_1/main_unc/rightBlue\GB_RB_2.xlsx
577	main_unc	True	0.0	243	0	11.0	11.0	1.0	1	right	1.0	0.0	0.0	1	0.046895899269699996	blockFiles/set_1/main_unc/rightBlue\GB_RB_2.xlsx
578	main_unc	True	0.0	243	0	11.0	11.0	0.0	1	left	1.0	1.0	1.0	0	-0.0564267690107	blockFiles/set_1/main_unc/rightBlue\GB_RB_2.xlsx
579	main_unc	True	0.0	243	0	11.0	11.0	0.0	1	left	1.0	1.0	1.0	0	-0.0351466117613	blockFiles/set_1/main_unc/rightBlue\GB_RB_2.xlsx
580	main_unc	True	0.0	243	0	11.0	11.0	1.0	1	right	2.0	0.0	1.0	1	0.0107658691332	blockFiles/set_1/main_unc/rightBlue\GB_RB_2.xlsx
