	trial_type	complete	missIndex	participant	id	blockNumber	b_t	d_t	decision1.corr	decision1.keys	a_t	r_t	decision2.corr	s_t	u_t	block_file
0	main_safe	True	0.0	655	0	0.0	0.0	0	1	left	1.0	0.0	0.0	0	-0.08	blockFiles/set_9/main_safe/leftBlue\GB_LB_2.xlsx
1	main_safe	True	0.0	655	0	0.0	0.0	0	1	left	2.0	0.0	1.0	0	-0.08	blockFiles/set_9/main_safe/leftBlue\GB_LB_2.xlsx
2	main_safe	True	0.0	655	0	0.0	0.0	1	1	right	2.0	0.0	0.0	1	0.08	blockFiles/set_9/main_safe/leftBlue\GB_LB_2.xlsx
3	main_safe	True	0.0	655	0	0.0	0.0	0	1	left	2.0	1.0	1.0	0	-0.08	blockFiles/set_9/main_safe/leftBlue\GB_LB_2.xlsx
4	main_safe	True	0.0	655	0	0.0	0.0	0	1	left	2.0	1.0	1.0	0	-0.08	blockFiles/set_9/main_safe/leftBlue\GB_LB_2.xlsx
5	main_safe	True	0.0	655	0	0.0	0.0	1	1	right	1.0	1.0	1.0	1	0.08	blockFiles/set_9/main_safe/leftBlue\GB_LB_2.xlsx
6	main_safe	True	0.0	655	0	0.0	0.0	1	1	right	1.0	1.0	1.0	1	0.08	blockFiles/set_9/main_safe/leftBlue\GB_LB_2.xlsx
7	main_safe	True	0.0	655	0	0.0	0.0	0	1	left	2.0	1.0	1.0	0	-0.08	blockFiles/set_9/main_safe/leftBlue\GB_LB_2.xlsx
8	main_safe	True	0.0	655	0	0.0	0.0	1	1	right	1.0	1.0	1.0	1	0.08	blockFiles/set_9/main_safe/leftBlue\GB_LB_2.xlsx
9	main_safe	True	0.0	655	0	0.0	0.0	1	1	right	1.0	1.0	1.0	1	0.08	blockFiles/set_9/main_safe/leftBlue\GB_LB_2.xlsx
10	main_safe	True	0.0	655	0	0.0	0.0	1	1	right	1.0	1.0	1.0	1	0.08	blockFiles/set_9/main_safe/leftBlue\GB_LB_2.xlsx
11	main_safe	True	0.0	655	0	0.0	0.0	1	1	right	1.0	0.0	1.0	1	0.08	blockFiles/set_9/main_safe/leftBlue\GB_LB_2.xlsx
12	main_safe	True	0.0	655	0	0.0	0.0	1	1	right	1.0	0.0	1.0	1	0.08	blockFiles/set_9/main_safe/leftBlue\GB_LB_2.xlsx
13	main_safe	True	0.0	655	0	0.0	0.0	1	1	right	1.0	1.0	1.0	1	0.08	blockFiles/set_9/main_safe/leftBlue\GB_LB_2.xlsx
14	main_safe	True	0.0	655	0	0.0	0.0	1	1	right	1.0	1.0	1.0	1	0.08	blockFiles/set_9/main_safe/leftBlue\GB_LB_2.xlsx
15	main_safe	True	0.0	655	0	0.0	0.0	1	1	right	1.0	1.0	1.0	1	0.08	blockFiles/set_9/main_safe/leftBlue\GB_LB_2.xlsx
16	main_safe	True	0.0	655	0	0.0	0.0	0	1	left	2.0	0.0	1.0	0	-0.08	blockFiles/set_9/main_safe/leftBlue\GB_LB_2.xlsx
17	main_safe	True	0.0	655	0	0.0	0.0	0	1	left	2.0	1.0	1.0	0	-0.08	blockFiles/set_9/main_safe/leftBlue\GB_LB_2.xlsx
18	main_safe	True	0.0	655	0	0.0	0.0	1	1	right	1.0	1.0	1.0	1	0.08	blockFiles/set_9/main_safe/leftBlue\GB_LB_2.xlsx
19	main_safe	True	0.0	655	0	0.0	0.0	0	1	left	2.0	1.0	1.0	0	-0.08	blockFiles/set_9/main_safe/leftBlue\GB_LB_2.xlsx
20	main_safe	True	0.0	655	0	0.0	0.0	1	1	right	1.0	1.0	1.0	1	0.08	blockFiles/set_9/main_safe/leftBlue\GB_LB_2.xlsx
21	main_safe	True	0.0	655	0	0.0	0.0	0	1	left	2.0	1.0	1.0	0	-0.08	blockFiles/set_9/main_safe/leftBlue\GB_LB_2.xlsx
22	main_safe	True	0.0	655	0	0.0	0.0	0	1	left	2.0	1.0	1.0	0	-0.08	blockFiles/set_9/main_safe/leftBlue\GB_LB_2.xlsx
23	main_safe	True	0.0	655	0	0.0	0.0	1	1	right	1.0	0.0	1.0	1	0.08	blockFiles/set_9/main_safe/leftBlue\GB_LB_2.xlsx
24	main_safe	True	0.0	655	0	0.0	0.0	0	1	left	2.0	1.0	1.0	0	-0.08	blockFiles/set_9/main_safe/leftBlue\GB_LB_2.xlsx
25	main_safe	True	0.0	655	0	1.0	1.0	0	1	left	1.0	1.0	1.0	0	-0.08	blockFiles/set_9/main_safe/rightBlue\GB_RB_2.xlsx
26	main_safe	True	0.0	655	0	1.0	1.0	1	1	right	2.0	1.0	1.0	1	0.08	blockFiles/set_9/main_safe/rightBlue\GB_RB_2.xlsx
27	main_safe	True	0.0	655	0	1.0	1.0	0	1	left	1.0	1.0	1.0	0	-0.08	blockFiles/set_9/main_safe/rightBlue\GB_RB_2.xlsx
28	main_safe	True	0.0	655	0	1.0	1.0	0	1	left	1.0	1.0	1.0	0	-0.08	blockFiles/set_9/main_safe/rightBlue\GB_RB_2.xlsx
29	main_safe	True	0.0	655	0	1.0	1.0	1	0	right	1.0	1.0	1.0	0	-0.08	blockFiles/set_9/main_safe/rightBlue\GB_RB_2.xlsx
30	main_safe	True	0.0	655	0	1.0	1.0	0	1	left	1.0	0.0	1.0	0	-0.08	blockFiles/set_9/main_safe/rightBlue\GB_RB_2.xlsx
31	main_safe	True	0.0	655	0	1.0	1.0	0	1	left	1.0	1.0	1.0	0	-0.08	blockFiles/set_9/main_safe/rightBlue\GB_RB_2.xlsx
32	main_safe	True	0.0	655	0	1.0	1.0	1	1	right	2.0	1.0	1.0	1	0.08	blockFiles/set_9/main_safe/rightBlue\GB_RB_2.xlsx
33	main_safe	True	0.0	655	0	1.0	1.0	1	1	right	2.0	0.0	1.0	1	0.08	blockFiles/set_9/main_safe/rightBlue\GB_RB_2.xlsx
34	main_safe	True	0.0	655	0	1.0	1.0	1	1	right	2.0	1.0	1.0	1	0.08	blockFiles/set_9/main_safe/rightBlue\GB_RB_2.xlsx
35	main_safe	True	0.0	655	0	1.0	1.0	1	1	right	2.0	0.0	1.0	1	0.08	blockFiles/set_9/main_safe/rightBlue\GB_RB_2.xlsx
36	main_safe	True	0.0	655	0	1.0	1.0	0	1	left	1.0	1.0	1.0	0	-0.08	blockFiles/set_9/main_safe/rightBlue\GB_RB_2.xlsx
37	main_safe	True	0.0	655	0	1.0	1.0	1	1	right	2.0	1.0	1.0	1	0.08	blockFiles/set_9/main_safe/rightBlue\GB_RB_2.xlsx
38	main_safe	True	0.0	655	0	1.0	1.0	0	1	left	1.0	0.0	1.0	0	-0.08	blockFiles/set_9/main_safe/rightBlue\GB_RB_2.xlsx
39	main_safe	True	0.0	655	0	1.0	1.0	0	1	left	1.0	1.0	1.0	0	-0.08	blockFiles/set_9/main_safe/rightBlue\GB_RB_2.xlsx
40	main_safe	True	0.0	655	0	1.0	1.0	1	1	right	2.0	0.0	1.0	1	0.08	blockFiles/set_9/main_safe/rightBlue\GB_RB_2.xlsx
41	main_safe	True	0.0	655	0	1.0	1.0	0	1	left	1.0	1.0	1.0	0	-0.08	blockFiles/set_9/main_safe/rightBlue\GB_RB_2.xlsx
42	main_safe	True	0.0	655	0	1.0	1.0	0	1	left	1.0	1.0	1.0	0	-0.08	blockFiles/set_9/main_safe/rightBlue\GB_RB_2.xlsx
43	main_safe	True	0.0	655	0	1.0	1.0	1	1	right	2.0	1.0	1.0	1	0.08	blockFiles/set_9/main_safe/rightBlue\GB_RB_2.xlsx
44	main_safe	True	0.0	655	0	1.0	1.0	1	1	right	2.0	1.0	1.0	1	0.08	blockFiles/set_9/main_safe/rightBlue\GB_RB_2.xlsx
45	main_safe	True	0.0	655	0	1.0	1.0	0	1	left	1.0	1.0	1.0	0	-0.08	blockFiles/set_9/main_safe/rightBlue\GB_RB_2.xlsx
46	main_safe	True	0.0	655	0	1.0	1.0	1	1	right	2.0	1.0	1.0	1	0.08	blockFiles/set_9/main_safe/rightBlue\GB_RB_2.xlsx
47	main_safe	True	0.0	655	0	1.0	1.0	1	1	right	2.0	1.0	1.0	1	0.08	blockFiles/set_9/main_safe/rightBlue\GB_RB_2.xlsx
48	main_safe	True	0.0	655	0	1.0	1.0	1	1	right	2.0	1.0	1.0	1	0.08	blockFiles/set_9/main_safe/rightBlue\GB_RB_2.xlsx
49	main_safe	True	0.0	655	0	1.0	1.0	0	1	left	1.0	1.0	1.0	0	-0.08	blockFiles/set_9/main_safe/rightBlue\GB_RB_2.xlsx
50	main_safe	True	0.0	655	0	2.0	2.0	1	1	right	2.0	0.0	0.0	1	0.08	blockFiles/set_9/main_safe/leftBlue\GB_LB_3.xlsx
51	main_safe	True	0.0	655	0	2.0	2.0	1	1	right	1.0	1.0	1.0	1	0.08	blockFiles/set_9/main_safe/leftBlue\GB_LB_3.xlsx
52	main_safe	True	0.0	655	0	2.0	2.0	0	1	left	2.0	0.0	1.0	0	-0.08	blockFiles/set_9/main_safe/leftBlue\GB_LB_3.xlsx
53	main_safe	True	0.0	655	0	2.0	2.0	1	1	right	1.0	1.0	1.0	1	0.08	blockFiles/set_9/main_safe/leftBlue\GB_LB_3.xlsx
54	main_safe	True	0.0	655	0	2.0	2.0	0	1	left	2.0	1.0	1.0	0	-0.08	blockFiles/set_9/main_safe/leftBlue\GB_LB_3.xlsx
55	main_safe	True	0.0	655	0	2.0	2.0	1	1	right	1.0	1.0	1.0	1	0.08	blockFiles/set_9/main_safe/leftBlue\GB_LB_3.xlsx
56	main_safe	True	0.0	655	0	2.0	2.0	1	1	right	1.0	1.0	1.0	1	0.08	blockFiles/set_9/main_safe/leftBlue\GB_LB_3.xlsx
57	main_safe	True	0.0	655	0	2.0	2.0	1	1	right	1.0	1.0	1.0	1	0.08	blockFiles/set_9/main_safe/leftBlue\GB_LB_3.xlsx
58	main_safe	True	0.0	655	0	2.0	2.0	0	1	left	2.0	1.0	1.0	0	-0.08	blockFiles/set_9/main_safe/leftBlue\GB_LB_3.xlsx
59	main_safe	True	0.0	655	0	2.0	2.0	0	1	left	2.0	0.0	1.0	0	-0.08	blockFiles/set_9/main_safe/leftBlue\GB_LB_3.xlsx
60	main_safe	True	0.0	655	0	2.0	2.0	0	1	left	2.0	0.0	1.0	0	-0.08	blockFiles/set_9/main_safe/leftBlue\GB_LB_3.xlsx
61	main_safe	True	0.0	655	0	2.0	2.0	1	1	right	1.0	1.0	1.0	1	0.08	blockFiles/set_9/main_safe/leftBlue\GB_LB_3.xlsx
62	main_safe	True	0.0	655	0	2.0	2.0	0	1	left	2.0	0.0	1.0	0	-0.08	blockFiles/set_9/main_safe/leftBlue\GB_LB_3.xlsx
63	main_safe	True	0.0	655	0	2.0	2.0	0	1	left	2.0	1.0	1.0	0	-0.08	blockFiles/set_9/main_safe/leftBlue\GB_LB_3.xlsx
64	main_safe	True	0.0	655	0	2.0	2.0	1	1	right	1.0	1.0	1.0	1	0.08	blockFiles/set_9/main_safe/leftBlue\GB_LB_3.xlsx
65	main_safe	True	0.0	655	0	2.0	2.0	0	1	left	2.0	0.0	1.0	0	-0.08	blockFiles/set_9/main_safe/leftBlue\GB_LB_3.xlsx
66	main_safe	True	0.0	655	0	2.0	2.0	1	1	right	1.0	1.0	1.0	1	0.08	blockFiles/set_9/main_safe/leftBlue\GB_LB_3.xlsx
67	main_safe	True	0.0	655	0	2.0	2.0	0	1	left	2.0	0.0	1.0	0	-0.08	blockFiles/set_9/main_safe/leftBlue\GB_LB_3.xlsx
68	main_safe	True	0.0	655	0	2.0	2.0	1	1	right	1.0	1.0	1.0	1	0.08	blockFiles/set_9/main_safe/leftBlue\GB_LB_3.xlsx
69	main_safe	True	0.0	655	0	2.0	2.0	0	1	left	2.0	1.0	1.0	0	-0.08	blockFiles/set_9/main_safe/leftBlue\GB_LB_3.xlsx
70	main_safe	True	0.0	655	0	2.0	2.0	1	1	right	1.0	1.0	1.0	1	0.08	blockFiles/set_9/main_safe/leftBlue\GB_LB_3.xlsx
71	main_safe	True	0.0	655	0	2.0	2.0	0	1	left	2.0	1.0	1.0	0	-0.08	blockFiles/set_9/main_safe/leftBlue\GB_LB_3.xlsx
72	main_safe	True	0.0	655	0	2.0	2.0	0	1	left	2.0	1.0	1.0	0	-0.08	blockFiles/set_9/main_safe/leftBlue\GB_LB_3.xlsx
73	main_safe	True	0.0	655	0	2.0	2.0	0	1	left	2.0	1.0	1.0	0	-0.08	blockFiles/set_9/main_safe/leftBlue\GB_LB_3.xlsx
74	main_safe	True	0.0	655	0	2.0	2.0	1	1	right	1.0	1.0	1.0	1	0.08	blockFiles/set_9/main_safe/leftBlue\GB_LB_3.xlsx
75	main_safe	True	0.0	655	0	3.0	3.0	0	1	left	1.0	1.0	1.0	0	-0.08	blockFiles/set_9/main_safe/rightBlue\GB_RB_1.xlsx
76	main_safe	True	0.0	655	0	3.0	3.0	0	1	left	1.0	1.0	1.0	0	-0.08	blockFiles/set_9/main_safe/rightBlue\GB_RB_1.xlsx
77	main_safe	True	0.0	655	0	3.0	3.0	1	1	right	2.0	1.0	1.0	1	0.08	blockFiles/set_9/main_safe/rightBlue\GB_RB_1.xlsx
78	main_safe	True	0.0	655	0	3.0	3.0	1	1	right	2.0	1.0	1.0	1	0.08	blockFiles/set_9/main_safe/rightBlue\GB_RB_1.xlsx
79	main_safe	True	0.0	655	0	3.0	3.0	0	1	left	1.0	1.0	1.0	0	-0.08	blockFiles/set_9/main_safe/rightBlue\GB_RB_1.xlsx
80	main_safe	True	0.0	655	0	3.0	3.0	1	1	right	2.0	1.0	1.0	1	0.08	blockFiles/set_9/main_safe/rightBlue\GB_RB_1.xlsx
81	main_safe	True	0.0	655	0	3.0	3.0	1	1	right	2.0	1.0	1.0	1	0.08	blockFiles/set_9/main_safe/rightBlue\GB_RB_1.xlsx
82	main_safe	True	0.0	655	0	3.0	3.0	1	1	right	2.0	0.0	1.0	1	0.08	blockFiles/set_9/main_safe/rightBlue\GB_RB_1.xlsx
83	main_safe	True	0.0	655	0	3.0	3.0	0	1	left	1.0	0.0	1.0	0	-0.08	blockFiles/set_9/main_safe/rightBlue\GB_RB_1.xlsx
84	main_safe	True	0.0	655	0	3.0	3.0	0	1	left	1.0	1.0	1.0	0	-0.08	blockFiles/set_9/main_safe/rightBlue\GB_RB_1.xlsx
85	main_safe	True	0.0	655	0	3.0	3.0	1	1	right	2.0	1.0	1.0	1	0.08	blockFiles/set_9/main_safe/rightBlue\GB_RB_1.xlsx
86	main_safe	True	0.0	655	0	3.0	3.0	1	1	right	2.0	1.0	1.0	1	0.08	blockFiles/set_9/main_safe/rightBlue\GB_RB_1.xlsx
87	main_safe	True	0.0	655	0	3.0	3.0	1	1	right	2.0	1.0	1.0	1	0.08	blockFiles/set_9/main_safe/rightBlue\GB_RB_1.xlsx
88	main_safe	True	0.0	655	0	3.0	3.0	0	1	left	1.0	1.0	1.0	0	-0.08	blockFiles/set_9/main_safe/rightBlue\GB_RB_1.xlsx
89	main_safe	True	0.0	655	0	3.0	3.0	1	1	right	2.0	0.0	1.0	1	0.08	blockFiles/set_9/main_safe/rightBlue\GB_RB_1.xlsx
90	main_safe	True	0.0	655	0	3.0	3.0	0	1	left	1.0	1.0	1.0	0	-0.08	blockFiles/set_9/main_safe/rightBlue\GB_RB_1.xlsx
91	main_safe	True	0.0	655	0	3.0	3.0	0	1	left	1.0	1.0	1.0	0	-0.08	blockFiles/set_9/main_safe/rightBlue\GB_RB_1.xlsx
92	main_safe	True	0.0	655	0	3.0	3.0	0	1	left	1.0	1.0	1.0	0	-0.08	blockFiles/set_9/main_safe/rightBlue\GB_RB_1.xlsx
93	main_safe	True	0.0	655	0	3.0	3.0	0	1	left	1.0	0.0	1.0	0	-0.08	blockFiles/set_9/main_safe/rightBlue\GB_RB_1.xlsx
94	main_safe	True	0.0	655	0	3.0	3.0	0	1	left	1.0	1.0	1.0	0	-0.08	blockFiles/set_9/main_safe/rightBlue\GB_RB_1.xlsx
95	main_safe	True	0.0	655	0	3.0	3.0	0	1	left	1.0	0.0	1.0	0	-0.08	blockFiles/set_9/main_safe/rightBlue\GB_RB_1.xlsx
96	main_safe	True	0.0	655	0	3.0	3.0	0	1	left	1.0	1.0	1.0	0	-0.08	blockFiles/set_9/main_safe/rightBlue\GB_RB_1.xlsx
97	main_safe	True	0.0	655	0	3.0	3.0	1	1	right	2.0	1.0	1.0	1	0.08	blockFiles/set_9/main_safe/rightBlue\GB_RB_1.xlsx
98	main_safe	True	0.0	655	0	3.0	3.0	1	1	right	2.0	0.0	1.0	1	0.08	blockFiles/set_9/main_safe/rightBlue\GB_RB_1.xlsx
99	main_safe	True	0.0	655	0	3.0	3.0	1	1	right	2.0	1.0	1.0	1	0.08	blockFiles/set_9/main_safe/rightBlue\GB_RB_1.xlsx
100	main_safe	True	0.0	655	0	4.0	4.0	1	0	right	1.0	0.0	0.0	0	-0.08	blockFiles/set_9/main_safe/leftBlue\GB_LB_1.xlsx
101	main_safe	True	0.0	655	0	4.0	4.0	0	1	left	2.0	1.0	1.0	0	-0.08	blockFiles/set_9/main_safe/leftBlue\GB_LB_1.xlsx
102	main_safe	True	0.0	655	0	4.0	4.0	1	1	right	1.0	1.0	1.0	1	0.08	blockFiles/set_9/main_safe/leftBlue\GB_LB_1.xlsx
103	main_safe	True	0.0	655	0	4.0	4.0	0	1	left	2.0	1.0	1.0	0	-0.08	blockFiles/set_9/main_safe/leftBlue\GB_LB_1.xlsx
104	main_safe	True	0.0	655	0	4.0	4.0	0	1	left	2.0	1.0	1.0	0	-0.08	blockFiles/set_9/main_safe/leftBlue\GB_LB_1.xlsx
105	main_safe	True	0.0	655	0	4.0	4.0	0	1	left	2.0	0.0	1.0	0	-0.08	blockFiles/set_9/main_safe/leftBlue\GB_LB_1.xlsx
106	main_safe	True	0.0	655	0	4.0	4.0	0	1	left	2.0	1.0	1.0	0	-0.08	blockFiles/set_9/main_safe/leftBlue\GB_LB_1.xlsx
107	main_safe	True	0.0	655	0	4.0	4.0	0	1	left	2.0	1.0	1.0	0	-0.08	blockFiles/set_9/main_safe/leftBlue\GB_LB_1.xlsx
108	main_safe	True	0.0	655	0	4.0	4.0	0	1	left	2.0	1.0	1.0	0	-0.08	blockFiles/set_9/main_safe/leftBlue\GB_LB_1.xlsx
109	main_safe	True	0.0	655	0	4.0	4.0	1	1	right	1.0	1.0	1.0	1	0.08	blockFiles/set_9/main_safe/leftBlue\GB_LB_1.xlsx
110	main_safe	True	0.0	655	0	4.0	4.0	1	1	right	1.0	1.0	1.0	1	0.08	blockFiles/set_9/main_safe/leftBlue\GB_LB_1.xlsx
111	main_safe	True	0.0	655	0	4.0	4.0	1	1	right	1.0	1.0	1.0	1	0.08	blockFiles/set_9/main_safe/leftBlue\GB_LB_1.xlsx
112	main_safe	True	0.0	655	0	4.0	4.0	0	1	left	2.0	1.0	1.0	0	-0.08	blockFiles/set_9/main_safe/leftBlue\GB_LB_1.xlsx
113	main_safe	True	0.0	655	0	4.0	4.0	0	1	left	2.0	0.0	1.0	0	-0.08	blockFiles/set_9/main_safe/leftBlue\GB_LB_1.xlsx
114	main_safe	True	0.0	655	0	4.0	4.0	1	1	right	1.0	0.0	1.0	1	0.08	blockFiles/set_9/main_safe/leftBlue\GB_LB_1.xlsx
115	main_safe	True	0.0	655	0	4.0	4.0	1	1	right	1.0	1.0	1.0	1	0.08	blockFiles/set_9/main_safe/leftBlue\GB_LB_1.xlsx
116	main_safe	True	0.0	655	0	4.0	4.0	0	1	left	2.0	1.0	1.0	0	-0.08	blockFiles/set_9/main_safe/leftBlue\GB_LB_1.xlsx
117	main_safe	True	0.0	655	0	4.0	4.0	1	1	right	1.0	1.0	1.0	1	0.08	blockFiles/set_9/main_safe/leftBlue\GB_LB_1.xlsx
118	main_safe	True	0.0	655	0	4.0	4.0	1	1	right	1.0	1.0	1.0	1	0.08	blockFiles/set_9/main_safe/leftBlue\GB_LB_1.xlsx
119	main_safe	True	0.0	655	0	4.0	4.0	0	1	left	2.0	1.0	1.0	0	-0.08	blockFiles/set_9/main_safe/leftBlue\GB_LB_1.xlsx
120	main_safe	True	0.0	655	0	4.0	4.0	1	1	right	1.0	0.0	1.0	1	0.08	blockFiles/set_9/main_safe/leftBlue\GB_LB_1.xlsx
121	main_safe	True	0.0	655	0	4.0	4.0	1	1	right	1.0	1.0	1.0	1	0.08	blockFiles/set_9/main_safe/leftBlue\GB_LB_1.xlsx
122	main_safe	True	0.0	655	0	4.0	4.0	1	1	right	1.0	1.0	1.0	1	0.08	blockFiles/set_9/main_safe/leftBlue\GB_LB_1.xlsx
123	main_safe	True	0.0	655	0	4.0	4.0	1	1	right	1.0	1.0	1.0	1	0.08	blockFiles/set_9/main_safe/leftBlue\GB_LB_1.xlsx
124	main_safe	True	0.0	655	0	4.0	4.0	0	1	left	2.0	1.0	1.0	0	-0.08	blockFiles/set_9/main_safe/leftBlue\GB_LB_1.xlsx
125	main_safe	True	0.0	655	0	5.0	5.0	1	1	right	2.0	1.0	1.0	1	0.08	blockFiles/set_9/main_safe/rightBlue\GB_RB_3.xlsx
126	main_safe	True	0.0	655	0	5.0	5.0	0	1	left	1.0	1.0	1.0	0	-0.08	blockFiles/set_9/main_safe/rightBlue\GB_RB_3.xlsx
127	main_safe	True	0.0	655	0	5.0	5.0	0	1	left	1.0	1.0	1.0	0	-0.08	blockFiles/set_9/main_safe/rightBlue\GB_RB_3.xlsx
128	main_safe	True	0.0	655	0	5.0	5.0	0	1	left	1.0	1.0	1.0	0	-0.08	blockFiles/set_9/main_safe/rightBlue\GB_RB_3.xlsx
129	main_safe	True	0.0	655	0	5.0	5.0	1	1	right	2.0	1.0	1.0	1	0.08	blockFiles/set_9/main_safe/rightBlue\GB_RB_3.xlsx
130	main_safe	True	0.0	655	0	5.0	5.0	1	1	right	2.0	1.0	1.0	1	0.08	blockFiles/set_9/main_safe/rightBlue\GB_RB_3.xlsx
131	main_safe	True	0.0	655	0	5.0	5.0	0	1	left	1.0	1.0	1.0	0	-0.08	blockFiles/set_9/main_safe/rightBlue\GB_RB_3.xlsx
132	main_safe	True	0.0	655	0	5.0	5.0	0	1	left	1.0	1.0	1.0	0	-0.08	blockFiles/set_9/main_safe/rightBlue\GB_RB_3.xlsx
133	main_safe	True	1.0	655	0	5.0	5.0	0	1	left	n/a	0.0	n/a	0	-0.08	blockFiles/set_9/main_safe/rightBlue\GB_RB_3.xlsx
134	main_safe	True	0.0	655	0	5.0	5.0	0	1	left	1.0	1.0	1.0	0	-0.08	blockFiles/set_9/main_safe/rightBlue\GB_RB_3.xlsx
135	main_safe	True	0.0	655	0	5.0	5.0	0	1	left	1.0	0.0	1.0	0	-0.08	blockFiles/set_9/main_safe/rightBlue\GB_RB_3.xlsx
136	main_safe	True	0.0	655	0	5.0	5.0	1	1	right	2.0	1.0	1.0	1	0.08	blockFiles/set_9/main_safe/rightBlue\GB_RB_3.xlsx
137	main_safe	True	0.0	655	0	5.0	5.0	1	1	right	2.0	1.0	1.0	1	0.08	blockFiles/set_9/main_safe/rightBlue\GB_RB_3.xlsx
138	main_safe	True	0.0	655	0	5.0	5.0	1	1	right	2.0	1.0	1.0	1	0.08	blockFiles/set_9/main_safe/rightBlue\GB_RB_3.xlsx
139	main_safe	True	0.0	655	0	5.0	5.0	1	1	right	2.0	0.0	1.0	1	0.08	blockFiles/set_9/main_safe/rightBlue\GB_RB_3.xlsx
140	main_safe	True	0.0	655	0	5.0	5.0	1	1	right	2.0	1.0	1.0	1	0.08	blockFiles/set_9/main_safe/rightBlue\GB_RB_3.xlsx
141	main_safe	True	0.0	655	0	5.0	5.0	0	1	left	1.0	0.0	1.0	0	-0.08	blockFiles/set_9/main_safe/rightBlue\GB_RB_3.xlsx
142	main_safe	True	0.0	655	0	5.0	5.0	1	1	right	2.0	1.0	1.0	1	0.08	blockFiles/set_9/main_safe/rightBlue\GB_RB_3.xlsx
143	main_safe	True	0.0	655	0	5.0	5.0	0	1	left	1.0	1.0	1.0	0	-0.08	blockFiles/set_9/main_safe/rightBlue\GB_RB_3.xlsx
144	main_safe	True	0.0	655	0	5.0	5.0	0	1	left	1.0	1.0	1.0	0	-0.08	blockFiles/set_9/main_safe/rightBlue\GB_RB_3.xlsx
145	main_safe	True	0.0	655	0	5.0	5.0	0	1	left	1.0	1.0	1.0	0	-0.08	blockFiles/set_9/main_safe/rightBlue\GB_RB_3.xlsx
146	main_safe	True	0.0	655	0	5.0	5.0	1	1	right	2.0	0.0	1.0	1	0.08	blockFiles/set_9/main_safe/rightBlue\GB_RB_3.xlsx
147	main_safe	True	0.0	655	0	5.0	5.0	1	1	right	2.0	1.0	1.0	1	0.08	blockFiles/set_9/main_safe/rightBlue\GB_RB_3.xlsx
148	main_safe	True	0.0	655	0	5.0	5.0	1	1	right	2.0	1.0	1.0	1	0.08	blockFiles/set_9/main_safe/rightBlue\GB_RB_3.xlsx
149	main_safe	True	0.0	655	0	5.0	5.0	1	1	right	2.0	1.0	1.0	1	0.08	blockFiles/set_9/main_safe/rightBlue\GB_RB_3.xlsx
150	main_safe	True	0.0	655	0	5.0	5.0	0	1	left	1.0	1.0	1.0	0	-0.08	blockFiles/set_9/main_safe/rightBlue\GB_RB_3.xlsx
151	patches	True	n/a	655	0	n/a	n/a	1	1	right	n/a	n/a	n/a	1	0.011136286296000001	blockFiles/set_9/main_PD/GB_runPatches1.xlsx
152	patches	True	n/a	655	0	n/a	n/a	0	1	left	n/a	n/a	n/a	0	-0.0593914897181	blockFiles/set_9/main_PD/GB_runPatches1.xlsx
153	patches	True	n/a	655	0	n/a	n/a	0	1	left	n/a	n/a	n/a	0	-0.036157875377699995	blockFiles/set_9/main_PD/GB_runPatches1.xlsx
154	patches	True	n/a	655	0	n/a	n/a	0	1	left	n/a	n/a	n/a	0	-0.012252078726899998	blockFiles/set_9/main_PD/GB_runPatches1.xlsx
155	patches	True	n/a	655	0	n/a	n/a	1	1	right	n/a	n/a	n/a	1	0.043221597746	blockFiles/set_9/main_PD/GB_runPatches1.xlsx
156	patches	True	n/a	655	0	n/a	n/a	0	1	left	n/a	n/a	n/a	0	-0.055478368643699996	blockFiles/set_9/main_PD/GB_runPatches1.xlsx
157	patches	True	n/a	655	0	n/a	n/a	1	1	right	n/a	n/a	n/a	1	0.041183571592	blockFiles/set_9/main_PD/GB_runPatches1.xlsx
158	patches	True	n/a	655	0	n/a	n/a	0	1	left	n/a	n/a	n/a	0	-0.052692326922	blockFiles/set_9/main_PD/GB_runPatches1.xlsx
159	patches	True	n/a	655	0	n/a	n/a	0	0	left	n/a	n/a	n/a	1	0.0218814371526	blockFiles/set_9/main_PD/GB_runPatches1.xlsx
160	patches	True	n/a	655	0	n/a	n/a	0	0	left	n/a	n/a	n/a	1	0.0349675032869	blockFiles/set_9/main_PD/GB_runPatches1.xlsx
161	patches	True	n/a	655	0	n/a	n/a	0	0	left	n/a	n/a	n/a	1	0.0105238058791	blockFiles/set_9/main_PD/GB_runPatches1.xlsx
162	patches	True	n/a	655	0	n/a	n/a	1	1	right	n/a	n/a	n/a	1	0.0618718877435	blockFiles/set_9/main_PD/GB_runPatches1.xlsx
163	patches	True	n/a	655	0	n/a	n/a	1	1	right	n/a	n/a	n/a	1	0.00913043674082	blockFiles/set_9/main_PD/GB_runPatches1.xlsx
164	patches	True	n/a	655	0	n/a	n/a	0	1	left	n/a	n/a	n/a	0	-0.0247436226159	blockFiles/set_9/main_PD/GB_runPatches1.xlsx
165	patches	True	n/a	655	0	n/a	n/a	0	1	left	n/a	n/a	n/a	0	-0.0340980922058	blockFiles/set_9/main_PD/GB_runPatches1.xlsx
166	patches	True	n/a	655	0	n/a	n/a	1	1	right	n/a	n/a	n/a	1	0.05333646858109999	blockFiles/set_9/main_PD/GB_runPatches1.xlsx
167	patches	True	n/a	655	0	n/a	n/a	1	0	right	n/a	n/a	n/a	0	-0.0341248047911	blockFiles/set_9/main_PD/GB_runPatches1.xlsx
168	patches	True	n/a	655	0	n/a	n/a	1	1	right	n/a	n/a	n/a	1	0.043861368224	blockFiles/set_9/main_PD/GB_runPatches1.xlsx
169	patches	True	n/a	655	0	n/a	n/a	0	1	left	n/a	n/a	n/a	0	-0.06423826253039999	blockFiles/set_9/main_PD/GB_runPatches1.xlsx
170	patches	True	n/a	655	0	n/a	n/a	0	1	left	n/a	n/a	n/a	0	-0.0536946191266	blockFiles/set_9/main_PD/GB_runPatches1.xlsx
171	patches	True	n/a	655	0	n/a	n/a	0	1	left	n/a	n/a	n/a	0	-0.067128498368	blockFiles/set_9/main_PD/GB_runPatches1.xlsx
172	patches	True	n/a	655	0	n/a	n/a	0	0	left	n/a	n/a	n/a	1	0.00943272732198	blockFiles/set_9/main_PD/GB_runPatches1.xlsx
173	patches	True	n/a	655	0	n/a	n/a	0	1	left	n/a	n/a	n/a	0	-0.018236161041999998	blockFiles/set_9/main_PD/GB_runPatches1.xlsx
174	patches	True	n/a	655	0	n/a	n/a	0	0	left	n/a	n/a	n/a	1	0.00908987544477	blockFiles/set_9/main_PD/GB_runPatches1.xlsx
175	patches	True	n/a	655	0	n/a	n/a	1	1	right	n/a	n/a	n/a	1	0.0166201068833	blockFiles/set_9/main_PD/GB_runPatches1.xlsx
176	patches	True	n/a	655	0	n/a	n/a	0	1	left	n/a	n/a	n/a	0	-0.052085752487199995	blockFiles/set_9/main_PD/GB_runPatches1.xlsx
177	patches	True	n/a	655	0	n/a	n/a	1	1	right	n/a	n/a	n/a	1	0.0614424137026	blockFiles/set_9/main_PD/GB_runPatches1.xlsx
178	patches	True	n/a	655	0	n/a	n/a	1	1	right	n/a	n/a	n/a	1	0.060926199443600004	blockFiles/set_9/main_PD/GB_runPatches1.xlsx
179	patches	True	n/a	655	0	n/a	n/a	0	0	left	n/a	n/a	n/a	1	0.0299398699403	blockFiles/set_9/main_PD/GB_runPatches1.xlsx
180	patches	True	n/a	655	0	n/a	n/a	1	1	right	n/a	n/a	n/a	1	0.0556710190326	blockFiles/set_9/main_PD/GB_runPatches1.xlsx
181	patches	True	n/a	655	0	n/a	n/a	0	1	left	n/a	n/a	n/a	0	-0.013165462631700002	blockFiles/set_9/main_PD/GB_runPatches1.xlsx
182	patches	True	n/a	655	0	n/a	n/a	1	1	right	n/a	n/a	n/a	1	0.004433557149020001	blockFiles/set_9/main_PD/GB_runPatches1.xlsx
183	patches	True	n/a	655	0	n/a	n/a	0	0	left	n/a	n/a	n/a	1	0.00859162714332	blockFiles/set_9/main_PD/GB_runPatches1.xlsx
184	patches	True	n/a	655	0	n/a	n/a	1	1	right	n/a	n/a	n/a	1	0.055943327713800006	blockFiles/set_9/main_PD/GB_runPatches1.xlsx
185	patches	True	n/a	655	0	n/a	n/a	1	1	right	n/a	n/a	n/a	1	0.019876307901	blockFiles/set_9/main_PD/GB_runPatches1.xlsx
186	patches	True	n/a	655	0	n/a	n/a	0	1	left	n/a	n/a	n/a	0	-0.0667053947784	blockFiles/set_9/main_PD/GB_runPatches1.xlsx
187	patches	True	n/a	655	0	n/a	n/a	0	1	left	n/a	n/a	n/a	0	-0.035893593058	blockFiles/set_9/main_PD/GB_runPatches1.xlsx
188	patches	True	n/a	655	0	n/a	n/a	0	1	left	n/a	n/a	n/a	0	-0.0566446198151	blockFiles/set_9/main_PD/GB_runPatches1.xlsx
189	patches	True	n/a	655	0	n/a	n/a	1	1	right	n/a	n/a	n/a	1	0.041648128293499995	blockFiles/set_9/main_PD/GB_runPatches1.xlsx
190	patches	True	n/a	655	0	n/a	n/a	1	1	right	n/a	n/a	n/a	1	0.0211771352775	blockFiles/set_9/main_PD/GB_runPatches1.xlsx
191	patches	True	n/a	655	0	n/a	n/a	0	1	left	n/a	n/a	n/a	0	-0.0532020832039	blockFiles/set_9/main_PD/GB_runPatches1.xlsx
192	patches	True	n/a	655	0	n/a	n/a	0	1	left	n/a	n/a	n/a	0	-0.015640047490600002	blockFiles/set_9/main_PD/GB_runPatches1.xlsx
193	patches	True	n/a	655	0	n/a	n/a	1	1	right	n/a	n/a	n/a	1	0.043406649380900005	blockFiles/set_9/main_PD/GB_runPatches1.xlsx
194	patches	True	n/a	655	0	n/a	n/a	0	1	left	n/a	n/a	n/a	0	-0.0470387784578	blockFiles/set_9/main_PD/GB_runPatches1.xlsx
195	patches	True	n/a	655	0	n/a	n/a	0	1	left	n/a	n/a	n/a	0	-0.06995681831610001	blockFiles/set_9/main_PD/GB_runPatches1.xlsx
196	patches	True	n/a	655	0	n/a	n/a	0	0	left	n/a	n/a	n/a	1	0.0167221170478	blockFiles/set_9/main_PD/GB_runPatches1.xlsx
197	patches	True	n/a	655	0	n/a	n/a	0	1	left	n/a	n/a	n/a	0	-0.036898881439099994	blockFiles/set_9/main_PD/GB_runPatches1.xlsx
198	patches	True	n/a	655	0	n/a	n/a	0	1	left	n/a	n/a	n/a	0	-0.050645683892099995	blockFiles/set_9/main_PD/GB_runPatches1.xlsx
199	patches	True	n/a	655	0	n/a	n/a	0	0	left	n/a	n/a	n/a	1	0.0105518589914	blockFiles/set_9/main_PD/GB_runPatches1.xlsx
200	patches	True	n/a	655	0	n/a	n/a	1	1	right	n/a	n/a	n/a	1	0.0349047171324	blockFiles/set_9/main_PD/GB_runPatches1.xlsx
201	patches	True	n/a	655	0	n/a	n/a	0	0	left	n/a	n/a	n/a	1	0.00747897289693	blockFiles/set_9/main_PD/GB_runPatches1.xlsx
202	patches	True	n/a	655	0	n/a	n/a	0	1	left	n/a	n/a	n/a	0	-0.0610612008348	blockFiles/set_9/main_PD/GB_runPatches1.xlsx
203	patches	True	n/a	655	0	n/a	n/a	0	1	left	n/a	n/a	n/a	0	-0.025417125131900004	blockFiles/set_9/main_PD/GB_runPatches1.xlsx
204	patches	True	n/a	655	0	n/a	n/a	1	1	right	n/a	n/a	n/a	1	0.0320832212456	blockFiles/set_9/main_PD/GB_runPatches1.xlsx
205	patches	True	n/a	655	0	n/a	n/a	1	1	right	n/a	n/a	n/a	1	0.052305152006400006	blockFiles/set_9/main_PD/GB_runPatches1.xlsx
206	patches	True	n/a	655	0	n/a	n/a	0	1	left	n/a	n/a	n/a	0	-0.0756466080993	blockFiles/set_9/main_PD/GB_runPatches1.xlsx
207	patches	True	n/a	655	0	n/a	n/a	1	1	right	n/a	n/a	n/a	1	0.058495727051	blockFiles/set_9/main_PD/GB_runPatches1.xlsx
208	patches	True	n/a	655	0	n/a	n/a	0	1	left	n/a	n/a	n/a	0	-0.05539027292280001	blockFiles/set_9/main_PD/GB_runPatches1.xlsx
209	patches	True	n/a	655	0	n/a	n/a	0	1	left	n/a	n/a	n/a	0	-0.018486478980599998	blockFiles/set_9/main_PD/GB_runPatches1.xlsx
210	patches	True	n/a	655	0	n/a	n/a	1	1	right	n/a	n/a	n/a	1	0.0326936136559	blockFiles/set_9/main_PD/GB_runPatches1.xlsx
211	patches	True	n/a	655	0	n/a	n/a	1	1	right	n/a	n/a	n/a	1	0.0160439803079	blockFiles/set_9/main_PD/GB_runPatches1.xlsx
212	patches	True	n/a	655	0	n/a	n/a	1	1	right	n/a	n/a	n/a	1	0.0543837598711	blockFiles/set_9/main_PD/GB_runPatches1.xlsx
213	patches	True	n/a	655	0	n/a	n/a	0	1	left	n/a	n/a	n/a	0	-0.023826556447900004	blockFiles/set_9/main_PD/GB_runPatches1.xlsx
214	patches	True	n/a	655	0	n/a	n/a	0	1	left	n/a	n/a	n/a	0	-0.0624771218374	blockFiles/set_9/main_PD/GB_runPatches1.xlsx
215	patches	True	n/a	655	0	n/a	n/a	1	0	right	n/a	n/a	n/a	0	-0.033058313056799994	blockFiles/set_9/main_PD/GB_runPatches1.xlsx
216	patches	True	n/a	655	0	n/a	n/a	0	1	left	n/a	n/a	n/a	0	-0.0709509293362	blockFiles/set_9/main_PD/GB_runPatches1.xlsx
217	patches	True	n/a	655	0	n/a	n/a	1	0	right	n/a	n/a	n/a	0	-0.0261990560777	blockFiles/set_9/main_PD/GB_runPatches1.xlsx
218	patches	True	n/a	655	0	n/a	n/a	1	1	right	n/a	n/a	n/a	1	0.077747235503	blockFiles/set_9/main_PD/GB_runPatches1.xlsx
219	patches	True	n/a	655	0	n/a	n/a	1	0	right	n/a	n/a	n/a	0	-0.024045573137699998	blockFiles/set_9/main_PD/GB_runPatches1.xlsx
220	patches	True	n/a	655	0	n/a	n/a	1	1	right	n/a	n/a	n/a	1	0.0779902455583	blockFiles/set_9/main_PD/GB_runPatches1.xlsx
221	patches	True	n/a	655	0	n/a	n/a	1	0	right	n/a	n/a	n/a	0	-0.0132175600529	blockFiles/set_9/main_PD/GB_runPatches1.xlsx
222	patches	True	n/a	655	0	n/a	n/a	1	0	right	n/a	n/a	n/a	0	-0.0218689007498	blockFiles/set_9/main_PD/GB_runPatches1.xlsx
223	patches	True	n/a	655	0	n/a	n/a	1	1	right	n/a	n/a	n/a	1	0.039806767609	blockFiles/set_9/main_PD/GB_runPatches1.xlsx
224	patches	True	n/a	655	0	n/a	n/a	1	0	right	n/a	n/a	n/a	0	-0.0096109255217	blockFiles/set_9/main_PD/GB_runPatches1.xlsx
225	patches	True	n/a	655	0	n/a	n/a	1	1	right	n/a	n/a	n/a	1	0.0189065363072	blockFiles/set_9/main_PD/GB_runPatches1.xlsx
226	patches	True	n/a	655	0	n/a	n/a	0	1	left	n/a	n/a	n/a	0	-0.0799922590703	blockFiles/set_9/main_PD/GB_runPatches1.xlsx
227	patches	True	n/a	655	0	n/a	n/a	0	1	left	n/a	n/a	n/a	0	-0.06081427346919999	blockFiles/set_9/main_PD/GB_runPatches1.xlsx
228	patches	True	n/a	655	0	n/a	n/a	1	1	right	n/a	n/a	n/a	1	0.030100634452	blockFiles/set_9/main_PD/GB_runPatches1.xlsx
229	patches	True	n/a	655	0	n/a	n/a	0	1	left	n/a	n/a	n/a	0	-0.0119072905928	blockFiles/set_9/main_PD/GB_runPatches1.xlsx
230	patches	True	n/a	655	0	n/a	n/a	0	1	left	n/a	n/a	n/a	0	-0.0649145765789	blockFiles/set_9/main_PD/GB_runPatches1.xlsx
231	patches	True	n/a	655	0	n/a	n/a	1	1	right	n/a	n/a	n/a	1	0.028457560166700004	blockFiles/set_9/main_PD/GB_runPatches1.xlsx
232	patches	True	n/a	655	0	n/a	n/a	0	1	left	n/a	n/a	n/a	0	-0.050984871909	blockFiles/set_9/main_PD/GB_runPatches1.xlsx
233	patches	True	n/a	655	0	n/a	n/a	0	1	left	n/a	n/a	n/a	0	-0.058079072386	blockFiles/set_9/main_PD/GB_runPatches1.xlsx
234	patches	True	n/a	655	0	n/a	n/a	0	1	left	n/a	n/a	n/a	0	-0.0490810404532	blockFiles/set_9/main_PD/GB_runPatches1.xlsx
235	patches	True	n/a	655	0	n/a	n/a	0	1	left	n/a	n/a	n/a	0	-0.013811505977100002	blockFiles/set_9/main_PD/GB_runPatches1.xlsx
236	patches	True	n/a	655	0	n/a	n/a	1	1	right	n/a	n/a	n/a	1	0.0151024362445	blockFiles/set_9/main_PD/GB_runPatches1.xlsx
237	patches	True	n/a	655	0	n/a	n/a	1	1	right	n/a	n/a	n/a	1	0.0672421708331	blockFiles/set_9/main_PD/GB_runPatches1.xlsx
238	patches	True	n/a	655	0	n/a	n/a	0	1	left	n/a	n/a	n/a	0	-0.0733630329743	blockFiles/set_9/main_PD/GB_runPatches1.xlsx
239	patches	True	n/a	655	0	n/a	n/a	1	1	right	n/a	n/a	n/a	1	0.0225537744723	blockFiles/set_9/main_PD/GB_runPatches1.xlsx
240	patches	True	n/a	655	0	n/a	n/a	1	1	right	n/a	n/a	n/a	1	0.04145730583	blockFiles/set_9/main_PD/GB_runPatches1.xlsx
241	patches	True	n/a	655	0	n/a	n/a	1	1	right	n/a	n/a	n/a	1	0.07796692593019999	blockFiles/set_9/main_PD/GB_runPatches1.xlsx
242	patches	True	n/a	655	0	n/a	n/a	0	1	left	n/a	n/a	n/a	0	-0.046837978251300004	blockFiles/set_9/main_PD/GB_runPatches1.xlsx
243	patches	True	n/a	655	0	n/a	n/a	1	1	right	n/a	n/a	n/a	1	0.0028365937247900003	blockFiles/set_9/main_PD/GB_runPatches1.xlsx
244	patches	True	n/a	655	0	n/a	n/a	1	0	right	n/a	n/a	n/a	0	-0.00602520199493	blockFiles/set_9/main_PD/GB_runPatches1.xlsx
245	patches	True	n/a	655	0	n/a	n/a	1	1	right	n/a	n/a	n/a	1	0.0616861118004	blockFiles/set_9/main_PD/GB_runPatches1.xlsx
246	patches	True	n/a	655	0	n/a	n/a	1	1	right	n/a	n/a	n/a	1	0.038487220425199996	blockFiles/set_9/main_PD/GB_runPatches1.xlsx
247	patches	True	n/a	655	0	n/a	n/a	0	1	left	n/a	n/a	n/a	0	-0.0465965709463	blockFiles/set_9/main_PD/GB_runPatches1.xlsx
248	patches	True	n/a	655	0	n/a	n/a	1	1	right	n/a	n/a	n/a	1	0.0659231998585	blockFiles/set_9/main_PD/GB_runPatches1.xlsx
249	patches	True	n/a	655	0	n/a	n/a	1	1	right	n/a	n/a	n/a	1	0.0175477635115	blockFiles/set_9/main_PD/GB_runPatches1.xlsx
250	patches	True	n/a	655	0	n/a	n/a	0	1	left	n/a	n/a	n/a	0	-0.0753174235113	blockFiles/set_9/main_PD/GB_runPatches1.xlsx
251	main_unc	True	0.0	655	0	0.0	0.0	1	1	right	1.0	1.0	1.0	1	0.0564311230741	blockFiles/set_9/main_unc/leftBlue\GB_LB_6.xlsx
252	main_unc	True	0.0	655	0	0.0	0.0	1	0	right	1.0	0.0	0.0	0	-0.0306331700087	blockFiles/set_9/main_unc/leftBlue\GB_LB_6.xlsx
253	main_unc	True	0.0	655	0	0.0	0.0	1	1	right	1.0	1.0	1.0	1	0.0160685928911	blockFiles/set_9/main_unc/leftBlue\GB_LB_6.xlsx
254	main_unc	True	0.0	655	0	0.0	0.0	0	0	left	1.0	1.0	1.0	1	0.0032102576643200003	blockFiles/set_9/main_unc/leftBlue\GB_LB_6.xlsx
255	main_unc	True	0.0	655	0	0.0	0.0	1	1	right	1.0	1.0	1.0	1	0.0394849819317	blockFiles/set_9/main_unc/leftBlue\GB_LB_6.xlsx
256	main_unc	True	0.0	655	0	0.0	0.0	0	1	left	2.0	1.0	1.0	0	-0.06349373662840001	blockFiles/set_9/main_unc/leftBlue\GB_LB_6.xlsx
257	main_unc	True	0.0	655	0	0.0	0.0	1	1	right	1.0	0.0	1.0	1	0.020243884027	blockFiles/set_9/main_unc/leftBlue\GB_LB_6.xlsx
258	main_unc	True	0.0	655	0	0.0	0.0	1	1	right	1.0	1.0	1.0	1	0.0761115531437	blockFiles/set_9/main_unc/leftBlue\GB_LB_6.xlsx
259	main_unc	True	0.0	655	0	0.0	0.0	1	0	right	1.0	0.0	0.0	0	-0.0200652782805	blockFiles/set_9/main_unc/leftBlue\GB_LB_6.xlsx
260	main_unc	True	0.0	655	0	0.0	0.0	1	1	right	1.0	1.0	1.0	1	0.07804496115069999	blockFiles/set_9/main_unc/leftBlue\GB_LB_6.xlsx
261	main_unc	True	0.0	655	0	0.0	0.0	0	1	left	2.0	1.0	1.0	0	-0.05220983296630001	blockFiles/set_9/main_unc/leftBlue\GB_LB_6.xlsx
262	main_unc	True	0.0	655	0	0.0	0.0	1	0	right	2.0	1.0	1.0	0	-0.0249909298122	blockFiles/set_9/main_unc/leftBlue\GB_LB_6.xlsx
263	main_unc	True	0.0	655	0	0.0	0.0	1	0	right	1.0	0.0	0.0	0	-0.0214599224925	blockFiles/set_9/main_unc/leftBlue\GB_LB_6.xlsx
264	main_unc	True	0.0	655	0	0.0	0.0	1	1	right	1.0	0.0	1.0	1	0.0177440893091	blockFiles/set_9/main_unc/leftBlue\GB_LB_6.xlsx
265	main_unc	True	0.0	655	0	0.0	0.0	1	1	right	1.0	1.0	1.0	1	0.0459259679727	blockFiles/set_9/main_unc/leftBlue\GB_LB_6.xlsx
266	main_unc	True	0.0	655	0	0.0	0.0	1	1	right	1.0	0.0	1.0	1	0.0678788676299	blockFiles/set_9/main_unc/leftBlue\GB_LB_6.xlsx
267	main_unc	True	0.0	655	0	0.0	0.0	1	1	right	1.0	1.0	1.0	1	0.0272910242155	blockFiles/set_9/main_unc/leftBlue\GB_LB_6.xlsx
268	main_unc	True	0.0	655	0	0.0	0.0	1	1	right	1.0	1.0	1.0	1	0.036580521781	blockFiles/set_9/main_unc/leftBlue\GB_LB_6.xlsx
269	main_unc	True	0.0	655	0	0.0	0.0	1	1	right	1.0	1.0	1.0	1	0.0528054963425	blockFiles/set_9/main_unc/leftBlue\GB_LB_6.xlsx
270	main_unc	True	0.0	655	0	0.0	0.0	1	0	right	1.0	0.0	0.0	0	-0.0150950900279	blockFiles/set_9/main_unc/leftBlue\GB_LB_6.xlsx
271	main_unc	True	0.0	655	0	0.0	0.0	0	1	left	2.0	1.0	1.0	0	-0.061972269956	blockFiles/set_9/main_unc/leftBlue\GB_LB_6.xlsx
272	main_unc	True	0.0	655	0	0.0	0.0	1	1	right	1.0	0.0	1.0	1	0.06518583424390001	blockFiles/set_9/main_unc/leftBlue\GB_LB_6.xlsx
273	main_unc	True	0.0	655	0	0.0	0.0	0	1	left	2.0	0.0	1.0	0	-0.0626888678782	blockFiles/set_9/main_unc/leftBlue\GB_LB_6.xlsx
274	main_unc	True	0.0	655	0	0.0	0.0	0	1	left	2.0	1.0	1.0	0	-0.025994731672099997	blockFiles/set_9/main_unc/leftBlue\GB_LB_6.xlsx
275	main_unc	True	0.0	655	0	0.0	0.0	1	0	right	1.0	0.0	0.0	0	-0.00228533318266	blockFiles/set_9/main_unc/leftBlue\GB_LB_6.xlsx
276	main_unc	True	0.0	655	0	1.0	1.0	1	0	right	1.0	1.0	1.0	0	-0.00014277879148700003	blockFiles/set_9/main_unc/rightBlue\GB_RB_3.xlsx
277	main_unc	True	0.0	655	0	1.0	1.0	1	1	right	1.0	1.0	0.0	1	0.0789051608369	blockFiles/set_9/main_unc/rightBlue\GB_RB_3.xlsx
278	main_unc	True	0.0	655	0	1.0	1.0	1	1	right	1.0	0.0	0.0	1	0.035875150635800004	blockFiles/set_9/main_unc/rightBlue\GB_RB_3.xlsx
279	main_unc	True	0.0	655	0	1.0	1.0	1	1	right	1.0	0.0	0.0	1	0.0768201691471	blockFiles/set_9/main_unc/rightBlue\GB_RB_3.xlsx
280	main_unc	True	0.0	655	0	1.0	1.0	1	1	right	1.0	0.0	0.0	1	0.0132925520092	blockFiles/set_9/main_unc/rightBlue\GB_RB_3.xlsx
281	main_unc	True	0.0	655	0	1.0	1.0	0	1	left	2.0	0.0	0.0	0	-0.0775498102978	blockFiles/set_9/main_unc/rightBlue\GB_RB_3.xlsx
282	main_unc	True	0.0	655	0	1.0	1.0	1	1	right	2.0	1.0	1.0	1	0.022990605346900003	blockFiles/set_9/main_unc/rightBlue\GB_RB_3.xlsx
283	main_unc	True	0.0	655	0	1.0	1.0	0	1	left	1.0	0.0	1.0	0	-0.00475525515154	blockFiles/set_9/main_unc/rightBlue\GB_RB_3.xlsx
284	main_unc	True	0.0	655	0	1.0	1.0	0	1	left	1.0	1.0	1.0	0	-0.032047598212999996	blockFiles/set_9/main_unc/rightBlue\GB_RB_3.xlsx
285	main_unc	True	0.0	655	0	1.0	1.0	0	1	left	1.0	1.0	1.0	0	-0.0246585611813	blockFiles/set_9/main_unc/rightBlue\GB_RB_3.xlsx
286	main_unc	True	0.0	655	0	1.0	1.0	0	1	left	1.0	1.0	1.0	0	-0.0608346883208	blockFiles/set_9/main_unc/rightBlue\GB_RB_3.xlsx
287	main_unc	True	0.0	655	0	1.0	1.0	0	1	left	1.0	0.0	1.0	0	-0.0335122150369	blockFiles/set_9/main_unc/rightBlue\GB_RB_3.xlsx
288	main_unc	True	0.0	655	0	1.0	1.0	0	1	left	1.0	1.0	1.0	0	-0.055802771840199994	blockFiles/set_9/main_unc/rightBlue\GB_RB_3.xlsx
289	main_unc	True	0.0	655	0	1.0	1.0	1	1	right	2.0	1.0	1.0	1	0.0361174223386	blockFiles/set_9/main_unc/rightBlue\GB_RB_3.xlsx
290	main_unc	True	0.0	655	0	1.0	1.0	0	0	left	2.0	1.0	1.0	1	0.0180879171565	blockFiles/set_9/main_unc/rightBlue\GB_RB_3.xlsx
291	main_unc	True	0.0	655	0	1.0	1.0	0	1	left	1.0	1.0	1.0	0	-0.03399417473	blockFiles/set_9/main_unc/rightBlue\GB_RB_3.xlsx
292	main_unc	True	0.0	655	0	1.0	1.0	1	1	right	2.0	1.0	1.0	1	0.034535297025	blockFiles/set_9/main_unc/rightBlue\GB_RB_3.xlsx
293	main_unc	True	0.0	655	0	1.0	1.0	1	1	right	2.0	0.0	1.0	1	0.0266867950745	blockFiles/set_9/main_unc/rightBlue\GB_RB_3.xlsx
294	main_unc	True	0.0	655	0	1.0	1.0	1	1	right	2.0	1.0	1.0	1	0.05472087856380001	blockFiles/set_9/main_unc/rightBlue\GB_RB_3.xlsx
295	main_unc	True	0.0	655	0	1.0	1.0	1	1	right	2.0	1.0	1.0	1	0.0607355483435	blockFiles/set_9/main_unc/rightBlue\GB_RB_3.xlsx
296	main_unc	True	0.0	655	0	1.0	1.0	0	1	left	1.0	1.0	1.0	0	-0.0558953302167	blockFiles/set_9/main_unc/rightBlue\GB_RB_3.xlsx
297	main_unc	True	0.0	655	0	1.0	1.0	1	1	right	2.0	1.0	1.0	1	0.0200634713285	blockFiles/set_9/main_unc/rightBlue\GB_RB_3.xlsx
298	main_unc	True	0.0	655	0	1.0	1.0	1	1	right	2.0	1.0	1.0	1	0.0179477506317	blockFiles/set_9/main_unc/rightBlue\GB_RB_3.xlsx
299	main_unc	True	0.0	655	0	1.0	1.0	0	1	left	1.0	1.0	1.0	0	-0.0673344378918	blockFiles/set_9/main_unc/rightBlue\GB_RB_3.xlsx
300	main_unc	True	0.0	655	0	1.0	1.0	0	1	left	1.0	1.0	1.0	0	-0.07190805852410001	blockFiles/set_9/main_unc/rightBlue\GB_RB_3.xlsx
301	main_unc	True	0.0	655	0	2.0	2.0	1	1	right	2.0	1.0	1.0	1	0.0256846443191	blockFiles/set_9/main_unc/rightBlue\GB_RB_1.xlsx
302	main_unc	True	0.0	655	0	2.0	2.0	0	1	left	2.0	0.0	0.0	0	-0.0172306797653	blockFiles/set_9/main_unc/rightBlue\GB_RB_1.xlsx
303	main_unc	True	0.0	655	0	2.0	2.0	1	1	right	2.0	1.0	1.0	1	0.0149894283712	blockFiles/set_9/main_unc/rightBlue\GB_RB_1.xlsx
304	main_unc	True	0.0	655	0	2.0	2.0	0	1	left	1.0	0.0	1.0	0	-0.042199417240900004	blockFiles/set_9/main_unc/rightBlue\GB_RB_1.xlsx
305	main_unc	True	0.0	655	0	2.0	2.0	0	1	left	1.0	1.0	1.0	0	-0.0314390782453	blockFiles/set_9/main_unc/rightBlue\GB_RB_1.xlsx
306	main_unc	True	0.0	655	0	2.0	2.0	1	1	right	2.0	1.0	1.0	1	0.0643175262585	blockFiles/set_9/main_unc/rightBlue\GB_RB_1.xlsx
307	main_unc	True	0.0	655	0	2.0	2.0	0	1	left	1.0	0.0	1.0	0	-0.06701906507830001	blockFiles/set_9/main_unc/rightBlue\GB_RB_1.xlsx
308	main_unc	True	0.0	655	0	2.0	2.0	1	1	right	2.0	0.0	1.0	1	0.0446480432339	blockFiles/set_9/main_unc/rightBlue\GB_RB_1.xlsx
309	main_unc	True	0.0	655	0	2.0	2.0	1	1	right	2.0	1.0	1.0	1	0.0106926309317	blockFiles/set_9/main_unc/rightBlue\GB_RB_1.xlsx
310	main_unc	True	0.0	655	0	2.0	2.0	1	0	right	2.0	0.0	0.0	0	-0.00572734151036	blockFiles/set_9/main_unc/rightBlue\GB_RB_1.xlsx
311	main_unc	True	0.0	655	0	2.0	2.0	0	1	left	1.0	1.0	1.0	0	-0.0278166333959	blockFiles/set_9/main_unc/rightBlue\GB_RB_1.xlsx
312	main_unc	True	0.0	655	0	2.0	2.0	0	1	left	1.0	1.0	1.0	0	-0.0780033709854	blockFiles/set_9/main_unc/rightBlue\GB_RB_1.xlsx
313	main_unc	True	0.0	655	0	2.0	2.0	0	0	left	2.0	0.0	1.0	1	0.012125330269299999	blockFiles/set_9/main_unc/rightBlue\GB_RB_1.xlsx
314	main_unc	True	0.0	655	0	2.0	2.0	1	1	right	2.0	1.0	1.0	1	0.039726192262	blockFiles/set_9/main_unc/rightBlue\GB_RB_1.xlsx
315	main_unc	True	0.0	655	0	2.0	2.0	1	1	right	2.0	1.0	1.0	1	0.0583023889922	blockFiles/set_9/main_unc/rightBlue\GB_RB_1.xlsx
316	main_unc	True	0.0	655	0	2.0	2.0	0	1	left	1.0	1.0	1.0	0	-0.0588662603125	blockFiles/set_9/main_unc/rightBlue\GB_RB_1.xlsx
317	main_unc	True	0.0	655	0	2.0	2.0	1	1	right	2.0	1.0	1.0	1	0.0074797986075300004	blockFiles/set_9/main_unc/rightBlue\GB_RB_1.xlsx
318	main_unc	True	0.0	655	0	2.0	2.0	0	1	left	1.0	1.0	1.0	0	-0.0259820996039	blockFiles/set_9/main_unc/rightBlue\GB_RB_1.xlsx
319	main_unc	True	0.0	655	0	2.0	2.0	0	1	left	1.0	0.0	1.0	0	-0.0781369752437	blockFiles/set_9/main_unc/rightBlue\GB_RB_1.xlsx
320	main_unc	True	0.0	655	0	2.0	2.0	0	1	left	1.0	1.0	1.0	0	-0.0482945243455	blockFiles/set_9/main_unc/rightBlue\GB_RB_1.xlsx
321	main_unc	True	0.0	655	0	2.0	2.0	0	1	left	1.0	1.0	1.0	0	-0.0269047172181	blockFiles/set_9/main_unc/rightBlue\GB_RB_1.xlsx
322	main_unc	True	0.0	655	0	2.0	2.0	1	1	right	2.0	1.0	1.0	1	0.0664707687311	blockFiles/set_9/main_unc/rightBlue\GB_RB_1.xlsx
323	main_unc	True	0.0	655	0	2.0	2.0	1	1	right	2.0	0.0	1.0	1	0.07093624744560001	blockFiles/set_9/main_unc/rightBlue\GB_RB_1.xlsx
324	main_unc	True	0.0	655	0	2.0	2.0	0	1	left	1.0	1.0	1.0	0	-0.041045945305400004	blockFiles/set_9/main_unc/rightBlue\GB_RB_1.xlsx
325	main_unc	True	0.0	655	0	2.0	2.0	0	0	left	1.0	0.0	0.0	1	0.011394639276	blockFiles/set_9/main_unc/rightBlue\GB_RB_1.xlsx
326	main_unc	True	0.0	655	0	3.0	3.0	1	0	right	1.0	0.0	0.0	0	-0.0204751103185	blockFiles/set_9/main_unc/leftBlue\GB_LB_1.xlsx
327	main_unc	True	0.0	655	0	3.0	3.0	1	1	right	2.0	0.0	0.0	1	0.0341669654474	blockFiles/set_9/main_unc/leftBlue\GB_LB_1.xlsx
328	main_unc	True	0.0	655	0	3.0	3.0	1	1	right	1.0	1.0	1.0	1	0.06649321701380001	blockFiles/set_9/main_unc/leftBlue\GB_LB_1.xlsx
329	main_unc	True	0.0	655	0	3.0	3.0	0	1	left	2.0	0.0	1.0	0	-0.058928667716699995	blockFiles/set_9/main_unc/leftBlue\GB_LB_1.xlsx
330	main_unc	True	0.0	655	0	3.0	3.0	1	0	right	1.0	1.0	0.0	0	-0.0360497272946	blockFiles/set_9/main_unc/leftBlue\GB_LB_1.xlsx
331	main_unc	True	0.0	655	0	3.0	3.0	1	1	right	1.0	1.0	1.0	1	0.0399187959917	blockFiles/set_9/main_unc/leftBlue\GB_LB_1.xlsx
332	main_unc	True	0.0	655	0	3.0	3.0	0	1	left	2.0	0.0	1.0	0	-0.014596162755	blockFiles/set_9/main_unc/leftBlue\GB_LB_1.xlsx
333	main_unc	True	0.0	655	0	3.0	3.0	1	1	right	1.0	1.0	1.0	1	0.06280473576859999	blockFiles/set_9/main_unc/leftBlue\GB_LB_1.xlsx
334	main_unc	True	0.0	655	0	3.0	3.0	1	0	right	2.0	1.0	1.0	0	-0.0358652738109	blockFiles/set_9/main_unc/leftBlue\GB_LB_1.xlsx
335	main_unc	True	0.0	655	0	3.0	3.0	1	1	right	1.0	1.0	1.0	1	0.0499470036849	blockFiles/set_9/main_unc/leftBlue\GB_LB_1.xlsx
336	main_unc	True	0.0	655	0	3.0	3.0	1	1	right	1.0	1.0	1.0	1	0.0173786897399	blockFiles/set_9/main_unc/leftBlue\GB_LB_1.xlsx
337	main_unc	True	0.0	655	0	3.0	3.0	0	1	left	2.0	1.0	1.0	0	-0.0618078945577	blockFiles/set_9/main_unc/leftBlue\GB_LB_1.xlsx
338	main_unc	True	0.0	655	0	3.0	3.0	1	1	right	1.0	1.0	1.0	1	0.038263768591	blockFiles/set_9/main_unc/leftBlue\GB_LB_1.xlsx
339	main_unc	True	0.0	655	0	3.0	3.0	0	1	left	2.0	1.0	1.0	0	-0.0679681363702	blockFiles/set_9/main_unc/leftBlue\GB_LB_1.xlsx
340	main_unc	True	0.0	655	0	3.0	3.0	0	1	left	2.0	1.0	1.0	0	-0.036056417916	blockFiles/set_9/main_unc/leftBlue\GB_LB_1.xlsx
341	main_unc	True	0.0	655	0	3.0	3.0	0	1	left	2.0	0.0	1.0	0	-0.0699017667025	blockFiles/set_9/main_unc/leftBlue\GB_LB_1.xlsx
342	main_unc	True	0.0	655	0	3.0	3.0	0	1	left	2.0	1.0	1.0	0	-0.0446382726915	blockFiles/set_9/main_unc/leftBlue\GB_LB_1.xlsx
343	main_unc	True	0.0	655	0	3.0	3.0	1	1	right	1.0	1.0	1.0	1	0.0502484451607	blockFiles/set_9/main_unc/leftBlue\GB_LB_1.xlsx
344	main_unc	True	0.0	655	0	3.0	3.0	1	0	right	1.0	0.0	0.0	0	-0.0191524394043	blockFiles/set_9/main_unc/leftBlue\GB_LB_1.xlsx
345	main_unc	True	0.0	655	0	3.0	3.0	1	1	right	1.0	1.0	1.0	1	0.0015896075777699999	blockFiles/set_9/main_unc/leftBlue\GB_LB_1.xlsx
346	main_unc	True	0.0	655	0	3.0	3.0	1	1	right	1.0	1.0	1.0	1	0.0484266982973	blockFiles/set_9/main_unc/leftBlue\GB_LB_1.xlsx
347	main_unc	True	0.0	655	0	3.0	3.0	0	1	left	2.0	1.0	1.0	0	-0.0716778090224	blockFiles/set_9/main_unc/leftBlue\GB_LB_1.xlsx
348	main_unc	True	0.0	655	0	3.0	3.0	1	1	right	1.0	1.0	1.0	1	0.0555060205236	blockFiles/set_9/main_unc/leftBlue\GB_LB_1.xlsx
349	main_unc	True	0.0	655	0	3.0	3.0	1	0	right	1.0	0.0	0.0	0	-0.017802431024599996	blockFiles/set_9/main_unc/leftBlue\GB_LB_1.xlsx
350	main_unc	True	0.0	655	0	3.0	3.0	1	1	right	1.0	0.0	1.0	1	0.0638768608309	blockFiles/set_9/main_unc/leftBlue\GB_LB_1.xlsx
351	main_unc	True	0.0	655	0	4.0	4.0	1	1	right	2.0	1.0	1.0	1	0.059873348251	blockFiles/set_9/main_unc/rightBlue\GB_RB_4.xlsx
352	main_unc	True	0.0	655	0	4.0	4.0	1	1	right	2.0	1.0	1.0	1	0.045647192616	blockFiles/set_9/main_unc/rightBlue\GB_RB_4.xlsx
353	main_unc	True	0.0	655	0	4.0	4.0	1	1	right	2.0	1.0	1.0	1	0.004901058468970001	blockFiles/set_9/main_unc/rightBlue\GB_RB_4.xlsx
354	main_unc	True	0.0	655	0	4.0	4.0	1	1	right	2.0	0.0	1.0	1	0.0447021917626	blockFiles/set_9/main_unc/rightBlue\GB_RB_4.xlsx
355	main_unc	True	0.0	655	0	4.0	4.0	0	1	left	1.0	1.0	1.0	0	-0.0195011883974	blockFiles/set_9/main_unc/rightBlue\GB_RB_4.xlsx
356	main_unc	True	0.0	655	0	4.0	4.0	1	1	right	2.0	1.0	1.0	1	0.00192398069426	blockFiles/set_9/main_unc/rightBlue\GB_RB_4.xlsx
357	main_unc	True	0.0	655	0	4.0	4.0	0	1	left	1.0	1.0	1.0	0	-0.04292979754509999	blockFiles/set_9/main_unc/rightBlue\GB_RB_4.xlsx
358	main_unc	True	0.0	655	0	4.0	4.0	0	1	left	1.0	1.0	1.0	0	-0.0718821631372	blockFiles/set_9/main_unc/rightBlue\GB_RB_4.xlsx
359	main_unc	True	0.0	655	0	4.0	4.0	0	1	left	1.0	1.0	1.0	0	-0.0387106435373	blockFiles/set_9/main_unc/rightBlue\GB_RB_4.xlsx
360	main_unc	True	0.0	655	0	4.0	4.0	0	1	left	1.0	1.0	1.0	0	-0.045105618257099994	blockFiles/set_9/main_unc/rightBlue\GB_RB_4.xlsx
361	main_unc	True	0.0	655	0	4.0	4.0	0	0	left	2.0	0.0	1.0	1	0.0148510826565	blockFiles/set_9/main_unc/rightBlue\GB_RB_4.xlsx
362	main_unc	True	0.0	655	0	4.0	4.0	1	1	right	2.0	1.0	1.0	1	0.035148065909699995	blockFiles/set_9/main_unc/rightBlue\GB_RB_4.xlsx
363	main_unc	True	0.0	655	0	4.0	4.0	1	0	right	2.0	0.0	0.0	0	-0.00147653590888	blockFiles/set_9/main_unc/rightBlue\GB_RB_4.xlsx
364	main_unc	True	0.0	655	0	4.0	4.0	1	1	right	2.0	1.0	1.0	1	0.054786121808	blockFiles/set_9/main_unc/rightBlue\GB_RB_4.xlsx
365	main_unc	True	0.0	655	0	4.0	4.0	0	1	left	1.0	1.0	1.0	0	-0.036092257984	blockFiles/set_9/main_unc/rightBlue\GB_RB_4.xlsx
366	main_unc	True	0.0	655	0	4.0	4.0	0	1	left	1.0	0.0	1.0	0	-0.0320591877215	blockFiles/set_9/main_unc/rightBlue\GB_RB_4.xlsx
367	main_unc	True	0.0	655	0	4.0	4.0	0	1	left	1.0	1.0	1.0	0	-0.0272766013443	blockFiles/set_9/main_unc/rightBlue\GB_RB_4.xlsx
368	main_unc	True	0.0	655	0	4.0	4.0	1	1	right	2.0	1.0	1.0	1	0.062174680382000004	blockFiles/set_9/main_unc/rightBlue\GB_RB_4.xlsx
369	main_unc	True	0.0	655	0	4.0	4.0	1	1	right	2.0	1.0	1.0	1	0.04267357628790001	blockFiles/set_9/main_unc/rightBlue\GB_RB_4.xlsx
370	main_unc	True	0.0	655	0	4.0	4.0	1	1	right	2.0	1.0	1.0	1	0.0702023157291	blockFiles/set_9/main_unc/rightBlue\GB_RB_4.xlsx
371	main_unc	True	0.0	655	0	4.0	4.0	1	1	right	2.0	0.0	1.0	1	0.0275847720541	blockFiles/set_9/main_unc/rightBlue\GB_RB_4.xlsx
372	main_unc	True	0.0	655	0	4.0	4.0	1	0	right	1.0	0.0	1.0	0	-0.058546452038000005	blockFiles/set_9/main_unc/rightBlue\GB_RB_4.xlsx
373	main_unc	True	1.0	655	0	4.0	4.0	1	1	right	n/a	0.0	n/a	1	0.0792065350525	blockFiles/set_9/main_unc/rightBlue\GB_RB_4.xlsx
374	main_unc	True	0.0	655	0	4.0	4.0	1	0	right	2.0	0.0	0.0	0	-0.0078523394838	blockFiles/set_9/main_unc/rightBlue\GB_RB_4.xlsx
375	main_unc	True	0.0	655	0	4.0	4.0	0	1	left	1.0	1.0	1.0	0	-0.0464387694374	blockFiles/set_9/main_unc/rightBlue\GB_RB_4.xlsx
376	main_unc	True	0.0	655	0	4.0	4.0	1	1	right	2.0	1.0	1.0	1	0.0792065350525	blockFiles/set_9/main_unc/rightBlue\GB_RB_4.xlsx
377	main_unc	True	0.0	655	0	5.0	5.0	1	0	right	1.0	1.0	1.0	0	-0.004450809434060001	blockFiles/set_9/main_unc/rightBlue\GB_RB_2.xlsx
378	main_unc	True	0.0	655	0	5.0	5.0	1	1	right	1.0	0.0	0.0	1	0.049129475280599993	blockFiles/set_9/main_unc/rightBlue\GB_RB_2.xlsx
379	main_unc	True	0.0	655	0	5.0	5.0	1	1	right	1.0	0.0	0.0	1	0.0370669467561	blockFiles/set_9/main_unc/rightBlue\GB_RB_2.xlsx
380	main_unc	True	0.0	655	0	5.0	5.0	1	0	right	2.0	0.0	0.0	0	-0.00356185592711	blockFiles/set_9/main_unc/rightBlue\GB_RB_2.xlsx
381	main_unc	True	0.0	655	0	5.0	5.0	0	1	left	2.0	0.0	0.0	0	-0.026351731866599996	blockFiles/set_9/main_unc/rightBlue\GB_RB_2.xlsx
382	main_unc	True	0.0	655	0	5.0	5.0	0	1	left	1.0	0.0	1.0	0	-0.0486887962557	blockFiles/set_9/main_unc/rightBlue\GB_RB_2.xlsx
383	main_unc	True	0.0	655	0	5.0	5.0	0	1	left	1.0	1.0	1.0	0	-0.0709337972663	blockFiles/set_9/main_unc/rightBlue\GB_RB_2.xlsx
384	main_unc	True	0.0	655	0	5.0	5.0	1	1	right	2.0	1.0	1.0	1	0.0019336347095699998	blockFiles/set_9/main_unc/rightBlue\GB_RB_2.xlsx
385	main_unc	True	0.0	655	0	5.0	5.0	1	1	right	2.0	1.0	1.0	1	0.0404791698046	blockFiles/set_9/main_unc/rightBlue\GB_RB_2.xlsx
386	main_unc	True	0.0	655	0	5.0	5.0	1	1	right	2.0	1.0	1.0	1	0.020078687612	blockFiles/set_9/main_unc/rightBlue\GB_RB_2.xlsx
387	main_unc	True	0.0	655	0	5.0	5.0	0	1	left	1.0	0.0	1.0	0	-0.0732918537781	blockFiles/set_9/main_unc/rightBlue\GB_RB_2.xlsx
388	main_unc	True	0.0	655	0	5.0	5.0	1	1	right	2.0	1.0	1.0	1	0.0185259488411	blockFiles/set_9/main_unc/rightBlue\GB_RB_2.xlsx
389	main_unc	True	0.0	655	0	5.0	5.0	0	1	left	1.0	1.0	1.0	0	-0.0767674554139	blockFiles/set_9/main_unc/rightBlue\GB_RB_2.xlsx
390	main_unc	True	0.0	655	0	5.0	5.0	0	1	left	1.0	1.0	1.0	0	-0.00587042501196	blockFiles/set_9/main_unc/rightBlue\GB_RB_2.xlsx
391	main_unc	True	0.0	655	0	5.0	5.0	1	1	right	2.0	1.0	1.0	1	0.0787784472667	blockFiles/set_9/main_unc/rightBlue\GB_RB_2.xlsx
392	main_unc	True	0.0	655	0	5.0	5.0	0	1	left	1.0	1.0	1.0	0	-0.0254887017421	blockFiles/set_9/main_unc/rightBlue\GB_RB_2.xlsx
393	main_unc	True	0.0	655	0	5.0	5.0	1	1	right	2.0	1.0	1.0	1	0.030961643382900004	blockFiles/set_9/main_unc/rightBlue\GB_RB_2.xlsx
394	main_unc	True	0.0	655	0	5.0	5.0	1	1	right	2.0	1.0	1.0	1	0.034180345870599996	blockFiles/set_9/main_unc/rightBlue\GB_RB_2.xlsx
395	main_unc	True	0.0	655	0	5.0	5.0	1	1	right	2.0	1.0	1.0	1	0.0174377302267	blockFiles/set_9/main_unc/rightBlue\GB_RB_2.xlsx
396	main_unc	True	0.0	655	0	5.0	5.0	1	1	right	2.0	1.0	1.0	1	0.0618764787354	blockFiles/set_9/main_unc/rightBlue\GB_RB_2.xlsx
397	main_unc	True	0.0	655	0	5.0	5.0	0	1	left	1.0	0.0	1.0	0	-0.034162727277700006	blockFiles/set_9/main_unc/rightBlue\GB_RB_2.xlsx
398	main_unc	True	0.0	655	0	5.0	5.0	1	1	right	2.0	0.0	1.0	1	0.05962788004430001	blockFiles/set_9/main_unc/rightBlue\GB_RB_2.xlsx
399	main_unc	True	0.0	655	0	5.0	5.0	0	1	left	2.0	0.0	0.0	0	-0.0232728878409	blockFiles/set_9/main_unc/rightBlue\GB_RB_2.xlsx
400	main_unc	True	0.0	655	0	5.0	5.0	0	1	left	1.0	1.0	1.0	0	-0.0428972446918	blockFiles/set_9/main_unc/rightBlue\GB_RB_2.xlsx
401	main_unc	True	0.0	655	0	5.0	5.0	0	1	left	1.0	1.0	1.0	0	-0.013391652740499999	blockFiles/set_9/main_unc/rightBlue\GB_RB_2.xlsx
402	main_unc	True	0.0	655	0	6.0	6.0	1	1	right	1.0	1.0	1.0	1	0.0348657112569	blockFiles/set_9/main_unc/leftBlue\GB_LB_5.xlsx
403	main_unc	True	0.0	655	0	6.0	6.0	0	1	left	2.0	1.0	1.0	0	-0.0640567520075	blockFiles/set_9/main_unc/leftBlue\GB_LB_5.xlsx
404	main_unc	True	0.0	655	0	6.0	6.0	1	1	right	1.0	1.0	1.0	1	0.0783344968967	blockFiles/set_9/main_unc/leftBlue\GB_LB_5.xlsx
405	main_unc	True	0.0	655	0	6.0	6.0	0	1	left	2.0	0.0	1.0	0	-0.0579156671837	blockFiles/set_9/main_unc/leftBlue\GB_LB_5.xlsx
406	main_unc	True	0.0	655	0	6.0	6.0	0	1	left	2.0	1.0	1.0	0	-0.000666282158345	blockFiles/set_9/main_unc/leftBlue\GB_LB_5.xlsx
407	main_unc	True	0.0	655	0	6.0	6.0	1	1	right	1.0	1.0	1.0	1	0.0281543174572	blockFiles/set_9/main_unc/leftBlue\GB_LB_5.xlsx
408	main_unc	True	0.0	655	0	6.0	6.0	0	1	left	2.0	1.0	1.0	0	-0.0259091454372	blockFiles/set_9/main_unc/leftBlue\GB_LB_5.xlsx
409	main_unc	True	0.0	655	0	6.0	6.0	1	1	right	1.0	0.0	1.0	1	0.039492927622000004	blockFiles/set_9/main_unc/leftBlue\GB_LB_5.xlsx
410	main_unc	True	0.0	655	0	6.0	6.0	1	1	right	1.0	0.0	1.0	1	0.0670726673119	blockFiles/set_9/main_unc/leftBlue\GB_LB_5.xlsx
411	main_unc	True	0.0	655	0	6.0	6.0	0	1	left	2.0	1.0	1.0	0	-0.029405025597700002	blockFiles/set_9/main_unc/leftBlue\GB_LB_5.xlsx
412	main_unc	True	0.0	655	0	6.0	6.0	0	1	left	2.0	1.0	1.0	0	-0.0593695842288	blockFiles/set_9/main_unc/leftBlue\GB_LB_5.xlsx
413	main_unc	True	0.0	655	0	6.0	6.0	1	1	right	1.0	1.0	1.0	1	0.0757879269682	blockFiles/set_9/main_unc/leftBlue\GB_LB_5.xlsx
414	main_unc	True	0.0	655	0	6.0	6.0	0	1	left	2.0	1.0	1.0	0	-0.0742537221313	blockFiles/set_9/main_unc/leftBlue\GB_LB_5.xlsx
415	main_unc	True	0.0	655	0	6.0	6.0	0	1	left	1.0	0.0	0.0	0	-0.00251437956467	blockFiles/set_9/main_unc/leftBlue\GB_LB_5.xlsx
416	main_unc	True	0.0	655	0	6.0	6.0	1	1	right	1.0	1.0	1.0	1	0.0156900473125	blockFiles/set_9/main_unc/leftBlue\GB_LB_5.xlsx
417	main_unc	True	0.0	655	0	6.0	6.0	0	1	left	2.0	1.0	1.0	0	-0.043226389382	blockFiles/set_9/main_unc/leftBlue\GB_LB_5.xlsx
418	main_unc	True	0.0	655	0	6.0	6.0	1	1	right	1.0	1.0	1.0	1	0.0416802100465	blockFiles/set_9/main_unc/leftBlue\GB_LB_5.xlsx
419	main_unc	True	0.0	655	0	6.0	6.0	1	0	right	1.0	0.0	0.0	0	-0.0402417885326	blockFiles/set_9/main_unc/leftBlue\GB_LB_5.xlsx
420	main_unc	True	0.0	655	0	6.0	6.0	0	1	left	2.0	1.0	1.0	0	-0.0549866338633	blockFiles/set_9/main_unc/leftBlue\GB_LB_5.xlsx
421	main_unc	True	0.0	655	0	6.0	6.0	1	1	right	1.0	0.0	1.0	1	0.0496730232611	blockFiles/set_9/main_unc/leftBlue\GB_LB_5.xlsx
422	main_unc	True	0.0	655	0	6.0	6.0	1	1	right	1.0	1.0	1.0	1	0.0016652991809000001	blockFiles/set_9/main_unc/leftBlue\GB_LB_5.xlsx
423	main_unc	True	0.0	655	0	6.0	6.0	0	1	left	2.0	0.0	1.0	0	-0.0242466129735	blockFiles/set_9/main_unc/leftBlue\GB_LB_5.xlsx
424	main_unc	True	0.0	655	0	6.0	6.0	1	1	right	1.0	1.0	1.0	1	0.021291984189299996	blockFiles/set_9/main_unc/leftBlue\GB_LB_5.xlsx
425	main_unc	True	0.0	655	0	6.0	6.0	1	1	right	1.0	0.0	1.0	1	0.0491963890754	blockFiles/set_9/main_unc/leftBlue\GB_LB_5.xlsx
426	main_unc	True	0.0	655	0	6.0	6.0	1	1	right	1.0	1.0	1.0	1	0.0713716079853	blockFiles/set_9/main_unc/leftBlue\GB_LB_5.xlsx
427	main_unc	True	0.0	655	0	7.0	7.0	1	1	right	1.0	0.0	0.0	1	0.0724398525245	blockFiles/set_9/main_unc/rightBlue\GB_RB_5.xlsx
428	main_unc	True	0.0	655	0	7.0	7.0	1	1	right	2.0	1.0	1.0	1	0.0356537640281	blockFiles/set_9/main_unc/rightBlue\GB_RB_5.xlsx
429	main_unc	True	0.0	655	0	7.0	7.0	0	1	left	1.0	1.0	1.0	0	-0.06833178661759999	blockFiles/set_9/main_unc/rightBlue\GB_RB_5.xlsx
430	main_unc	True	0.0	655	0	7.0	7.0	0	1	left	2.0	0.0	0.0	0	-0.00853473087773	blockFiles/set_9/main_unc/rightBlue\GB_RB_5.xlsx
431	main_unc	True	0.0	655	0	7.0	7.0	0	1	left	1.0	0.0	1.0	0	-0.055234807916	blockFiles/set_9/main_unc/rightBlue\GB_RB_5.xlsx
432	main_unc	True	0.0	655	0	7.0	7.0	0	1	left	1.0	1.0	1.0	0	-0.0362893302366	blockFiles/set_9/main_unc/rightBlue\GB_RB_5.xlsx
433	main_unc	True	0.0	655	0	7.0	7.0	0	1	left	1.0	1.0	1.0	0	-0.0234843088128	blockFiles/set_9/main_unc/rightBlue\GB_RB_5.xlsx
434	main_unc	True	0.0	655	0	7.0	7.0	1	1	right	2.0	1.0	1.0	1	0.02027722409	blockFiles/set_9/main_unc/rightBlue\GB_RB_5.xlsx
435	main_unc	True	0.0	655	0	7.0	7.0	1	1	right	2.0	0.0	1.0	1	0.06515619598330001	blockFiles/set_9/main_unc/rightBlue\GB_RB_5.xlsx
436	main_unc	True	0.0	655	0	7.0	7.0	1	1	right	2.0	0.0	1.0	1	0.0590746979043	blockFiles/set_9/main_unc/rightBlue\GB_RB_5.xlsx
437	main_unc	True	0.0	655	0	7.0	7.0	0	1	left	1.0	1.0	1.0	0	-0.07656732270489999	blockFiles/set_9/main_unc/rightBlue\GB_RB_5.xlsx
438	main_unc	True	0.0	655	0	7.0	7.0	0	1	left	1.0	1.0	1.0	0	-0.0424296543933	blockFiles/set_9/main_unc/rightBlue\GB_RB_5.xlsx
439	main_unc	True	0.0	655	0	7.0	7.0	1	1	right	2.0	1.0	1.0	1	0.0298454257473	blockFiles/set_9/main_unc/rightBlue\GB_RB_5.xlsx
440	main_unc	True	0.0	655	0	7.0	7.0	0	1	left	1.0	1.0	1.0	0	-0.0103331391327	blockFiles/set_9/main_unc/rightBlue\GB_RB_5.xlsx
441	main_unc	True	0.0	655	0	7.0	7.0	1	1	right	2.0	1.0	1.0	1	0.0729847373813	blockFiles/set_9/main_unc/rightBlue\GB_RB_5.xlsx
442	main_unc	True	0.0	655	0	7.0	7.0	1	1	right	2.0	1.0	1.0	1	0.0008894255943599999	blockFiles/set_9/main_unc/rightBlue\GB_RB_5.xlsx
443	main_unc	True	0.0	655	0	7.0	7.0	1	1	right	2.0	0.0	1.0	1	0.054354676865	blockFiles/set_9/main_unc/rightBlue\GB_RB_5.xlsx
444	main_unc	True	0.0	655	0	7.0	7.0	1	1	right	2.0	1.0	1.0	1	0.033757022712400005	blockFiles/set_9/main_unc/rightBlue\GB_RB_5.xlsx
445	main_unc	True	0.0	655	0	7.0	7.0	0	1	left	1.0	1.0	1.0	0	-0.07531709020960001	blockFiles/set_9/main_unc/rightBlue\GB_RB_5.xlsx
446	main_unc	True	0.0	655	0	7.0	7.0	1	1	right	2.0	0.0	1.0	1	0.0242801282182	blockFiles/set_9/main_unc/rightBlue\GB_RB_5.xlsx
447	main_unc	True	0.0	655	0	7.0	7.0	1	1	right	2.0	1.0	1.0	1	0.0372981123626	blockFiles/set_9/main_unc/rightBlue\GB_RB_5.xlsx
448	main_unc	True	0.0	655	0	7.0	7.0	1	1	right	2.0	1.0	1.0	1	0.041822482571	blockFiles/set_9/main_unc/rightBlue\GB_RB_5.xlsx
449	main_unc	True	0.0	655	0	7.0	7.0	1	1	right	2.0	1.0	1.0	1	0.06987471075730001	blockFiles/set_9/main_unc/rightBlue\GB_RB_5.xlsx
450	main_unc	True	0.0	655	0	7.0	7.0	1	0	right	2.0	0.0	0.0	0	-0.0174313965812	blockFiles/set_9/main_unc/rightBlue\GB_RB_5.xlsx
451	main_unc	True	0.0	655	0	7.0	7.0	1	0	right	1.0	1.0	1.0	0	-0.0172528521344	blockFiles/set_9/main_unc/rightBlue\GB_RB_5.xlsx
452	main_unc	True	0.0	655	0	8.0	8.0	1	1	right	2.0	0.0	0.0	1	0.0562127078697	blockFiles/set_9/main_unc/leftBlue\GB_LB_4.xlsx
453	main_unc	True	0.0	655	0	8.0	8.0	1	1	right	1.0	1.0	1.0	1	0.0189485938475	blockFiles/set_9/main_unc/leftBlue\GB_LB_4.xlsx
454	main_unc	True	0.0	655	0	8.0	8.0	1	1	right	1.0	0.0	1.0	1	0.0794036291912	blockFiles/set_9/main_unc/leftBlue\GB_LB_4.xlsx
455	main_unc	True	0.0	655	0	8.0	8.0	0	1	left	2.0	1.0	1.0	0	-0.0143735566735	blockFiles/set_9/main_unc/leftBlue\GB_LB_4.xlsx
456	main_unc	True	0.0	655	0	8.0	8.0	1	1	right	1.0	1.0	1.0	1	0.0290846537426	blockFiles/set_9/main_unc/leftBlue\GB_LB_4.xlsx
457	main_unc	True	0.0	655	0	8.0	8.0	0	1	left	2.0	1.0	1.0	0	-0.038870265986800004	blockFiles/set_9/main_unc/leftBlue\GB_LB_4.xlsx
458	main_unc	True	0.0	655	0	8.0	8.0	1	1	right	1.0	0.0	1.0	1	0.034648261293800005	blockFiles/set_9/main_unc/leftBlue\GB_LB_4.xlsx
459	main_unc	True	0.0	655	0	8.0	8.0	1	1	right	1.0	1.0	1.0	1	0.051019396875099994	blockFiles/set_9/main_unc/leftBlue\GB_LB_4.xlsx
460	main_unc	True	0.0	655	0	8.0	8.0	0	1	left	1.0	0.0	0.0	0	-0.00169673329219	blockFiles/set_9/main_unc/leftBlue\GB_LB_4.xlsx
461	main_unc	True	0.0	655	0	8.0	8.0	0	1	left	2.0	1.0	1.0	0	-0.062151301931600005	blockFiles/set_9/main_unc/leftBlue\GB_LB_4.xlsx
462	main_unc	True	0.0	655	0	8.0	8.0	1	1	right	1.0	1.0	1.0	1	0.048386326842	blockFiles/set_9/main_unc/leftBlue\GB_LB_4.xlsx
463	main_unc	True	0.0	655	0	8.0	8.0	0	1	left	2.0	1.0	1.0	0	-0.0291210361943	blockFiles/set_9/main_unc/leftBlue\GB_LB_4.xlsx
464	main_unc	True	0.0	655	0	8.0	8.0	0	1	left	2.0	1.0	1.0	0	-0.0495491300523	blockFiles/set_9/main_unc/leftBlue\GB_LB_4.xlsx
465	main_unc	True	0.0	655	0	8.0	8.0	1	1	right	1.0	0.0	1.0	1	0.0662555655278	blockFiles/set_9/main_unc/leftBlue\GB_LB_4.xlsx
466	main_unc	True	0.0	655	0	8.0	8.0	0	1	left	1.0	0.0	0.0	0	-0.0377371628582	blockFiles/set_9/main_unc/leftBlue\GB_LB_4.xlsx
467	main_unc	True	0.0	655	0	8.0	8.0	1	1	right	1.0	0.0	1.0	1	0.0513223231398	blockFiles/set_9/main_unc/leftBlue\GB_LB_4.xlsx
468	main_unc	True	0.0	655	0	8.0	8.0	1	1	right	1.0	1.0	1.0	1	0.00456236761063	blockFiles/set_9/main_unc/leftBlue\GB_LB_4.xlsx
469	main_unc	True	0.0	655	0	8.0	8.0	0	1	left	2.0	1.0	1.0	0	-0.0730778777413	blockFiles/set_9/main_unc/leftBlue\GB_LB_4.xlsx
470	main_unc	True	0.0	655	0	8.0	8.0	1	0	right	1.0	0.0	0.0	0	-0.026668374836400003	blockFiles/set_9/main_unc/leftBlue\GB_LB_4.xlsx
471	main_unc	True	0.0	655	0	8.0	8.0	1	0	right	1.0	0.0	0.0	0	-0.0044532191567100005	blockFiles/set_9/main_unc/leftBlue\GB_LB_4.xlsx
472	main_unc	True	0.0	655	0	8.0	8.0	0	1	left	2.0	1.0	1.0	0	-0.0686021938361	blockFiles/set_9/main_unc/leftBlue\GB_LB_4.xlsx
473	main_unc	True	0.0	655	0	8.0	8.0	1	1	right	1.0	1.0	1.0	1	0.0360250907764	blockFiles/set_9/main_unc/leftBlue\GB_LB_4.xlsx
474	main_unc	True	0.0	655	0	8.0	8.0	1	0	right	1.0	0.0	0.0	0	-0.0405506599694	blockFiles/set_9/main_unc/leftBlue\GB_LB_4.xlsx
475	main_unc	True	0.0	655	0	8.0	8.0	1	0	right	1.0	0.0	0.0	0	-0.0135322782956	blockFiles/set_9/main_unc/leftBlue\GB_LB_4.xlsx
476	main_unc	True	0.0	655	0	8.0	8.0	1	1	right	1.0	1.0	1.0	1	0.060133509468300005	blockFiles/set_9/main_unc/leftBlue\GB_LB_4.xlsx
477	main_unc	True	0.0	655	0	9.0	9.0	1	1	right	1.0	1.0	1.0	1	0.0322003989108	blockFiles/set_9/main_unc/leftBlue\GB_LB_2.xlsx
478	main_unc	True	0.0	655	0	9.0	9.0	0	1	left	2.0	0.0	1.0	0	-0.0304014943726	blockFiles/set_9/main_unc/leftBlue\GB_LB_2.xlsx
479	main_unc	True	0.0	655	0	9.0	9.0	0	1	left	2.0	1.0	1.0	0	-0.060003942847300006	blockFiles/set_9/main_unc/leftBlue\GB_LB_2.xlsx
480	main_unc	True	0.0	655	0	9.0	9.0	0	1	left	2.0	1.0	1.0	0	-0.06076757468280001	blockFiles/set_9/main_unc/leftBlue\GB_LB_2.xlsx
481	main_unc	True	0.0	655	0	9.0	9.0	1	1	right	1.0	1.0	1.0	1	0.023818515949	blockFiles/set_9/main_unc/leftBlue\GB_LB_2.xlsx
482	main_unc	True	0.0	655	0	9.0	9.0	1	1	right	1.0	1.0	1.0	1	0.000317386798561	blockFiles/set_9/main_unc/leftBlue\GB_LB_2.xlsx
483	main_unc	True	0.0	655	0	9.0	9.0	0	1	left	2.0	1.0	1.0	0	-0.0698795460537	blockFiles/set_9/main_unc/leftBlue\GB_LB_2.xlsx
484	main_unc	True	0.0	655	0	9.0	9.0	0	1	left	2.0	1.0	1.0	0	-0.00792803006247	blockFiles/set_9/main_unc/leftBlue\GB_LB_2.xlsx
485	main_unc	True	0.0	655	0	9.0	9.0	1	0	right	1.0	0.0	0.0	0	-0.024514505025	blockFiles/set_9/main_unc/leftBlue\GB_LB_2.xlsx
486	main_unc	True	0.0	655	0	9.0	9.0	1	1	right	1.0	1.0	1.0	1	0.07654424441980001	blockFiles/set_9/main_unc/leftBlue\GB_LB_2.xlsx
487	main_unc	True	0.0	655	0	9.0	9.0	1	1	right	1.0	1.0	1.0	1	0.0479102700949	blockFiles/set_9/main_unc/leftBlue\GB_LB_2.xlsx
488	main_unc	True	0.0	655	0	9.0	9.0	0	1	left	2.0	1.0	1.0	0	-0.0446071154438	blockFiles/set_9/main_unc/leftBlue\GB_LB_2.xlsx
489	main_unc	True	0.0	655	0	9.0	9.0	1	1	right	1.0	1.0	1.0	1	0.0238783700019	blockFiles/set_9/main_unc/leftBlue\GB_LB_2.xlsx
490	main_unc	True	0.0	655	0	9.0	9.0	1	1	right	1.0	1.0	1.0	1	0.030966709610099997	blockFiles/set_9/main_unc/leftBlue\GB_LB_2.xlsx
491	main_unc	True	0.0	655	0	9.0	9.0	1	0	right	1.0	0.0	0.0	0	-0.008758196644479998	blockFiles/set_9/main_unc/leftBlue\GB_LB_2.xlsx
492	main_unc	True	0.0	655	0	9.0	9.0	0	1	left	2.0	1.0	1.0	0	-0.07854937369	blockFiles/set_9/main_unc/leftBlue\GB_LB_2.xlsx
493	main_unc	True	0.0	655	0	9.0	9.0	1	0	right	1.0	0.0	0.0	0	-0.032235205844	blockFiles/set_9/main_unc/leftBlue\GB_LB_2.xlsx
494	main_unc	True	0.0	655	0	9.0	9.0	1	0	right	1.0	1.0	0.0	0	-0.057490713410099994	blockFiles/set_9/main_unc/leftBlue\GB_LB_2.xlsx
495	main_unc	True	0.0	655	0	9.0	9.0	1	1	right	1.0	1.0	1.0	1	0.0682499173656	blockFiles/set_9/main_unc/leftBlue\GB_LB_2.xlsx
496	main_unc	True	0.0	655	0	9.0	9.0	1	1	right	1.0	0.0	1.0	1	0.006270319782199999	blockFiles/set_9/main_unc/leftBlue\GB_LB_2.xlsx
497	main_unc	True	0.0	655	0	9.0	9.0	1	1	right	1.0	0.0	1.0	1	0.029384572822599996	blockFiles/set_9/main_unc/leftBlue\GB_LB_2.xlsx
498	main_unc	True	0.0	655	0	9.0	9.0	1	1	right	1.0	1.0	1.0	1	0.007745291925970001	blockFiles/set_9/main_unc/leftBlue\GB_LB_2.xlsx
499	main_unc	True	0.0	655	0	9.0	9.0	0	1	left	2.0	0.0	1.0	0	-0.05170176913959999	blockFiles/set_9/main_unc/leftBlue\GB_LB_2.xlsx
500	main_unc	True	0.0	655	0	9.0	9.0	1	1	right	1.0	1.0	1.0	1	0.024406055603200003	blockFiles/set_9/main_unc/leftBlue\GB_LB_2.xlsx
501	main_unc	True	0.0	655	0	9.0	9.0	0	1	left	2.0	1.0	1.0	0	-0.0442127700523	blockFiles/set_9/main_unc/leftBlue\GB_LB_2.xlsx
502	main_unc	True	0.0	655	0	10.0	10.0	0	1	left	1.0	1.0	1.0	0	-0.027790121789999997	blockFiles/set_9/main_unc/rightBlue\GB_RB_6.xlsx
503	main_unc	True	0.0	655	0	10.0	10.0	1	1	right	2.0	1.0	1.0	1	0.0560511785559	blockFiles/set_9/main_unc/rightBlue\GB_RB_6.xlsx
504	main_unc	True	0.0	655	0	10.0	10.0	1	1	right	2.0	0.0	1.0	1	0.0768634586781	blockFiles/set_9/main_unc/rightBlue\GB_RB_6.xlsx
505	main_unc	True	0.0	655	0	10.0	10.0	1	1	right	2.0	1.0	1.0	1	0.059455770943300006	blockFiles/set_9/main_unc/rightBlue\GB_RB_6.xlsx
506	main_unc	True	0.0	655	0	10.0	10.0	1	1	right	2.0	1.0	1.0	1	0.00174569727853	blockFiles/set_9/main_unc/rightBlue\GB_RB_6.xlsx
507	main_unc	True	0.0	655	0	10.0	10.0	0	1	left	1.0	1.0	1.0	0	-0.0026266990602	blockFiles/set_9/main_unc/rightBlue\GB_RB_6.xlsx
508	main_unc	True	0.0	655	0	10.0	10.0	1	0	right	1.0	1.0	1.0	0	-0.0358975720406	blockFiles/set_9/main_unc/rightBlue\GB_RB_6.xlsx
509	main_unc	True	0.0	655	0	10.0	10.0	1	1	right	2.0	1.0	1.0	1	0.0312850310281	blockFiles/set_9/main_unc/rightBlue\GB_RB_6.xlsx
510	main_unc	True	0.0	655	0	10.0	10.0	0	1	left	1.0	0.0	1.0	0	-0.0230440007336	blockFiles/set_9/main_unc/rightBlue\GB_RB_6.xlsx
511	main_unc	True	0.0	655	0	10.0	10.0	0	1	left	1.0	1.0	1.0	0	-0.0786598945968	blockFiles/set_9/main_unc/rightBlue\GB_RB_6.xlsx
512	main_unc	True	0.0	655	0	10.0	10.0	1	1	right	2.0	1.0	1.0	1	0.05020014872769999	blockFiles/set_9/main_unc/rightBlue\GB_RB_6.xlsx
513	main_unc	True	0.0	655	0	10.0	10.0	0	1	left	1.0	1.0	1.0	0	-0.047165802903500004	blockFiles/set_9/main_unc/rightBlue\GB_RB_6.xlsx
514	main_unc	True	0.0	655	0	10.0	10.0	1	1	right	2.0	1.0	1.0	1	0.0555041451007	blockFiles/set_9/main_unc/rightBlue\GB_RB_6.xlsx
515	main_unc	True	0.0	655	0	10.0	10.0	1	0	right	2.0	0.0	0.0	0	-0.00117582609877	blockFiles/set_9/main_unc/rightBlue\GB_RB_6.xlsx
516	main_unc	True	0.0	655	0	10.0	10.0	1	1	right	2.0	1.0	1.0	1	0.0517547963373	blockFiles/set_9/main_unc/rightBlue\GB_RB_6.xlsx
517	main_unc	True	0.0	655	0	10.0	10.0	0	1	left	1.0	1.0	1.0	0	-0.022464515268799997	blockFiles/set_9/main_unc/rightBlue\GB_RB_6.xlsx
518	main_unc	True	0.0	655	0	10.0	10.0	1	1	right	2.0	0.0	1.0	1	0.051684854887399996	blockFiles/set_9/main_unc/rightBlue\GB_RB_6.xlsx
519	main_unc	True	0.0	655	0	10.0	10.0	0	1	left	1.0	1.0	1.0	0	-0.0334357488342	blockFiles/set_9/main_unc/rightBlue\GB_RB_6.xlsx
520	main_unc	True	0.0	655	0	10.0	10.0	1	1	right	2.0	1.0	1.0	1	0.0416848809086	blockFiles/set_9/main_unc/rightBlue\GB_RB_6.xlsx
521	main_unc	True	0.0	655	0	10.0	10.0	0	1	left	1.0	1.0	1.0	0	-0.073489387352	blockFiles/set_9/main_unc/rightBlue\GB_RB_6.xlsx
522	main_unc	True	0.0	655	0	10.0	10.0	0	1	left	1.0	1.0	1.0	0	-0.0557131033204	blockFiles/set_9/main_unc/rightBlue\GB_RB_6.xlsx
523	main_unc	True	0.0	655	0	10.0	10.0	0	1	left	1.0	1.0	1.0	0	-0.0366060454585	blockFiles/set_9/main_unc/rightBlue\GB_RB_6.xlsx
524	main_unc	True	0.0	655	0	10.0	10.0	1	1	right	2.0	1.0	1.0	1	0.0719991731271	blockFiles/set_9/main_unc/rightBlue\GB_RB_6.xlsx
525	main_unc	True	0.0	655	0	10.0	10.0	1	1	right	2.0	0.0	1.0	1	0.011812409348799999	blockFiles/set_9/main_unc/rightBlue\GB_RB_6.xlsx
526	main_unc	True	0.0	655	0	10.0	10.0	1	1	right	2.0	1.0	1.0	1	0.042241092138	blockFiles/set_9/main_unc/rightBlue\GB_RB_6.xlsx
527	main_unc	True	0.0	655	0	11.0	11.0	1	1	right	2.0	0.0	0.0	1	0.00443311855197	blockFiles/set_9/main_unc/leftBlue\GB_LB_3.xlsx
528	main_unc	True	0.0	655	0	11.0	11.0	1	0	right	1.0	0.0	0.0	0	-0.013264418114	blockFiles/set_9/main_unc/leftBlue\GB_LB_3.xlsx
529	main_unc	True	0.0	655	0	11.0	11.0	0	1	left	1.0	0.0	0.0	0	-0.0246878185868	blockFiles/set_9/main_unc/leftBlue\GB_LB_3.xlsx
530	main_unc	True	0.0	655	0	11.0	11.0	0	1	left	2.0	0.0	1.0	0	-0.0646012234502	blockFiles/set_9/main_unc/leftBlue\GB_LB_3.xlsx
531	main_unc	True	0.0	655	0	11.0	11.0	1	1	right	2.0	0.0	0.0	1	0.029046814572099997	blockFiles/set_9/main_unc/leftBlue\GB_LB_3.xlsx
532	main_unc	True	0.0	655	0	11.0	11.0	1	1	right	1.0	1.0	1.0	1	0.043098689466699994	blockFiles/set_9/main_unc/leftBlue\GB_LB_3.xlsx
533	main_unc	True	0.0	655	0	11.0	11.0	0	1	left	2.0	1.0	1.0	0	-0.041548687871500005	blockFiles/set_9/main_unc/leftBlue\GB_LB_3.xlsx
534	main_unc	True	0.0	655	0	11.0	11.0	1	1	right	1.0	1.0	1.0	1	0.0655036957934	blockFiles/set_9/main_unc/leftBlue\GB_LB_3.xlsx
535	main_unc	True	0.0	655	0	11.0	11.0	0	1	left	1.0	1.0	0.0	0	-0.06462546817959999	blockFiles/set_9/main_unc/leftBlue\GB_LB_3.xlsx
536	main_unc	True	0.0	655	0	11.0	11.0	0	1	left	2.0	1.0	1.0	0	-0.05189765010030001	blockFiles/set_9/main_unc/leftBlue\GB_LB_3.xlsx
537	main_unc	True	0.0	655	0	11.0	11.0	1	1	right	1.0	1.0	1.0	1	0.0220187086612	blockFiles/set_9/main_unc/leftBlue\GB_LB_3.xlsx
538	main_unc	True	0.0	655	0	11.0	11.0	1	1	right	1.0	1.0	1.0	1	0.0409295547195	blockFiles/set_9/main_unc/leftBlue\GB_LB_3.xlsx
539	main_unc	True	0.0	655	0	11.0	11.0	1	1	right	1.0	0.0	1.0	1	0.009739736896010001	blockFiles/set_9/main_unc/leftBlue\GB_LB_3.xlsx
540	main_unc	True	0.0	655	0	11.0	11.0	0	1	left	2.0	0.0	1.0	0	-0.014052314013200002	blockFiles/set_9/main_unc/leftBlue\GB_LB_3.xlsx
541	main_unc	True	0.0	655	0	11.0	11.0	0	1	left	2.0	1.0	1.0	0	-0.040813092235500004	blockFiles/set_9/main_unc/leftBlue\GB_LB_3.xlsx
542	main_unc	True	0.0	655	0	11.0	11.0	0	1	left	2.0	1.0	1.0	0	-0.060804261770099996	blockFiles/set_9/main_unc/leftBlue\GB_LB_3.xlsx
543	main_unc	True	0.0	655	0	11.0	11.0	0	1	left	2.0	1.0	1.0	0	-0.052844931595	blockFiles/set_9/main_unc/leftBlue\GB_LB_3.xlsx
544	main_unc	True	0.0	655	0	11.0	11.0	1	1	right	1.0	0.0	1.0	1	0.00068506674841	blockFiles/set_9/main_unc/leftBlue\GB_LB_3.xlsx
545	main_unc	True	0.0	655	0	11.0	11.0	0	1	left	2.0	1.0	1.0	0	-0.0685679837875	blockFiles/set_9/main_unc/leftBlue\GB_LB_3.xlsx
546	main_unc	True	0.0	655	0	11.0	11.0	1	1	right	1.0	1.0	1.0	1	0.0491176225618	blockFiles/set_9/main_unc/leftBlue\GB_LB_3.xlsx
547	main_unc	True	0.0	655	0	11.0	11.0	1	1	right	1.0	1.0	1.0	1	0.027246818617	blockFiles/set_9/main_unc/leftBlue\GB_LB_3.xlsx
548	main_unc	True	0.0	655	0	11.0	11.0	1	1	right	1.0	0.0	1.0	1	0.05525133758780001	blockFiles/set_9/main_unc/leftBlue\GB_LB_3.xlsx
549	main_unc	True	0.0	655	0	11.0	11.0	1	1	right	1.0	1.0	1.0	1	0.06408795597030001	blockFiles/set_9/main_unc/leftBlue\GB_LB_3.xlsx
550	main_unc	True	0.0	655	0	11.0	11.0	1	0	right	1.0	0.0	0.0	0	-0.0130293882079	blockFiles/set_9/main_unc/leftBlue\GB_LB_3.xlsx
551	main_unc	True	0.0	655	0	11.0	11.0	1	0	right	1.0	0.0	0.0	0	-0.00672850906849	blockFiles/set_9/main_unc/leftBlue\GB_LB_3.xlsx
