	trial_type	complete	missIndex	participant	id	blockNumber	b_t	d_t	decision1.corr	decision1.keys	a_t	r_t	decision2.corr	s_t	u_t	block_file
0	main_safe	True	1.0	159	0	0.0	0.0	0.0	1	left	n/a	0.0	n/a	0	-0.08	blockFiles/set_52/main_safe/rightBlue\GB_RB_3.xlsx
1	main_safe	True	0.0	159	0	0.0	0.0	1.0	1	right	1.0	0.0	0.0	1	0.08	blockFiles/set_52/main_safe/rightBlue\GB_RB_3.xlsx
2	main_safe	True	0.0	159	0	0.0	0.0	1.0	1	right	2.0	0.0	1.0	1	0.08	blockFiles/set_52/main_safe/rightBlue\GB_RB_3.xlsx
3	main_safe	True	0.0	159	0	0.0	0.0	0.0	1	left	2.0	1.0	0.0	0	-0.08	blockFiles/set_52/main_safe/rightBlue\GB_RB_3.xlsx
4	main_safe	True	0.0	159	0	0.0	0.0	1.0	1	right	1.0	0.0	0.0	1	0.08	blockFiles/set_52/main_safe/rightBlue\GB_RB_3.xlsx
5	main_safe	True	0.0	159	0	0.0	0.0	1.0	1	right	1.0	1.0	0.0	1	0.08	blockFiles/set_52/main_safe/rightBlue\GB_RB_3.xlsx
6	main_safe	True	0.0	159	0	0.0	0.0	1.0	1	right	1.0	0.0	0.0	1	0.08	blockFiles/set_52/main_safe/rightBlue\GB_RB_3.xlsx
7	main_safe	True	0.0	159	0	0.0	0.0	1.0	1	right	1.0	0.0	0.0	1	0.08	blockFiles/set_52/main_safe/rightBlue\GB_RB_3.xlsx
8	main_safe	True	0.0	159	0	0.0	0.0	0.0	1	left	1.0	1.0	1.0	0	-0.08	blockFiles/set_52/main_safe/rightBlue\GB_RB_3.xlsx
9	main_safe	True	0.0	159	0	0.0	0.0	0.0	1	left	1.0	1.0	1.0	0	-0.08	blockFiles/set_52/main_safe/rightBlue\GB_RB_3.xlsx
10	main_safe	True	0.0	159	0	0.0	0.0	0.0	1	left	1.0	1.0	1.0	0	-0.08	blockFiles/set_52/main_safe/rightBlue\GB_RB_3.xlsx
11	main_safe	True	0.0	159	0	0.0	0.0	0.0	1	left	1.0	1.0	1.0	0	-0.08	blockFiles/set_52/main_safe/rightBlue\GB_RB_3.xlsx
12	main_safe	True	0.0	159	0	0.0	0.0	0.0	1	left	1.0	1.0	1.0	0	-0.08	blockFiles/set_52/main_safe/rightBlue\GB_RB_3.xlsx
13	main_safe	True	0.0	159	0	0.0	0.0	0.0	1	left	1.0	1.0	1.0	0	-0.08	blockFiles/set_52/main_safe/rightBlue\GB_RB_3.xlsx
14	main_safe	True	0.0	159	0	0.0	0.0	1.0	1	right	2.0	1.0	1.0	1	0.08	blockFiles/set_52/main_safe/rightBlue\GB_RB_3.xlsx
15	main_safe	True	0.0	159	0	0.0	0.0	0.0	1	left	1.0	1.0	1.0	0	-0.08	blockFiles/set_52/main_safe/rightBlue\GB_RB_3.xlsx
16	main_safe	True	0.0	159	0	0.0	0.0	1.0	1	right	2.0	1.0	1.0	1	0.08	blockFiles/set_52/main_safe/rightBlue\GB_RB_3.xlsx
17	main_safe	True	0.0	159	0	0.0	0.0	1.0	1	right	2.0	1.0	1.0	1	0.08	blockFiles/set_52/main_safe/rightBlue\GB_RB_3.xlsx
18	main_safe	True	0.0	159	0	0.0	0.0	0.0	1	left	1.0	1.0	1.0	0	-0.08	blockFiles/set_52/main_safe/rightBlue\GB_RB_3.xlsx
19	main_safe	True	0.0	159	0	0.0	0.0	1.0	1	right	2.0	0.0	1.0	1	0.08	blockFiles/set_52/main_safe/rightBlue\GB_RB_3.xlsx
20	main_safe	True	0.0	159	0	0.0	0.0	0.0	1	left	1.0	1.0	1.0	0	-0.08	blockFiles/set_52/main_safe/rightBlue\GB_RB_3.xlsx
21	main_safe	True	0.0	159	0	0.0	0.0	1.0	1	right	2.0	1.0	1.0	1	0.08	blockFiles/set_52/main_safe/rightBlue\GB_RB_3.xlsx
22	main_safe	True	0.0	159	0	0.0	0.0	0.0	1	left	1.0	1.0	1.0	0	-0.08	blockFiles/set_52/main_safe/rightBlue\GB_RB_3.xlsx
23	main_safe	True	0.0	159	0	0.0	0.0	0.0	1	left	1.0	1.0	1.0	0	-0.08	blockFiles/set_52/main_safe/rightBlue\GB_RB_3.xlsx
24	main_safe	True	0.0	159	0	0.0	0.0	1.0	1	right	2.0	1.0	1.0	1	0.08	blockFiles/set_52/main_safe/rightBlue\GB_RB_3.xlsx
25	main_safe	True	0.0	159	0	0.0	0.0	0.0	1	left	1.0	1.0	1.0	0	-0.08	blockFiles/set_52/main_safe/rightBlue\GB_RB_3.xlsx
26	main_safe	True	0.0	159	0	1.0	1.0	0.0	1	left	2.0	1.0	1.0	0	-0.08	blockFiles/set_52/main_safe/leftBlue\GB_LB_2.xlsx
27	main_safe	True	0.0	159	0	1.0	1.0	0.0	1	left	2.0	1.0	1.0	0	-0.08	blockFiles/set_52/main_safe/leftBlue\GB_LB_2.xlsx
28	main_safe	True	0.0	159	0	1.0	1.0	1.0	1	right	1.0	1.0	1.0	1	0.08	blockFiles/set_52/main_safe/leftBlue\GB_LB_2.xlsx
29	main_safe	True	0.0	159	0	1.0	1.0	1.0	1	right	1.0	1.0	1.0	1	0.08	blockFiles/set_52/main_safe/leftBlue\GB_LB_2.xlsx
30	main_safe	True	0.0	159	0	1.0	1.0	0.0	1	left	2.0	1.0	1.0	0	-0.08	blockFiles/set_52/main_safe/leftBlue\GB_LB_2.xlsx
31	main_safe	True	0.0	159	0	1.0	1.0	1.0	1	right	1.0	1.0	1.0	1	0.08	blockFiles/set_52/main_safe/leftBlue\GB_LB_2.xlsx
32	main_safe	True	0.0	159	0	1.0	1.0	0.0	1	left	2.0	1.0	1.0	0	-0.08	blockFiles/set_52/main_safe/leftBlue\GB_LB_2.xlsx
33	main_safe	True	0.0	159	0	1.0	1.0	1.0	1	right	1.0	0.0	1.0	1	0.08	blockFiles/set_52/main_safe/leftBlue\GB_LB_2.xlsx
34	main_safe	True	0.0	159	0	1.0	1.0	0.0	1	left	2.0	1.0	1.0	0	-0.08	blockFiles/set_52/main_safe/leftBlue\GB_LB_2.xlsx
35	main_safe	True	0.0	159	0	1.0	1.0	1.0	1	right	1.0	1.0	1.0	1	0.08	blockFiles/set_52/main_safe/leftBlue\GB_LB_2.xlsx
36	main_safe	True	0.0	159	0	1.0	1.0	0.0	1	left	2.0	1.0	1.0	0	-0.08	blockFiles/set_52/main_safe/leftBlue\GB_LB_2.xlsx
37	main_safe	True	0.0	159	0	1.0	1.0	1.0	1	right	1.0	1.0	1.0	1	0.08	blockFiles/set_52/main_safe/leftBlue\GB_LB_2.xlsx
38	main_safe	True	0.0	159	0	1.0	1.0	0.0	1	left	2.0	1.0	1.0	0	-0.08	blockFiles/set_52/main_safe/leftBlue\GB_LB_2.xlsx
39	main_safe	True	0.0	159	0	1.0	1.0	1.0	1	right	1.0	1.0	1.0	1	0.08	blockFiles/set_52/main_safe/leftBlue\GB_LB_2.xlsx
40	main_safe	True	0.0	159	0	1.0	1.0	1.0	1	right	1.0	0.0	1.0	1	0.08	blockFiles/set_52/main_safe/leftBlue\GB_LB_2.xlsx
41	main_safe	True	0.0	159	0	1.0	1.0	0.0	1	left	2.0	1.0	1.0	0	-0.08	blockFiles/set_52/main_safe/leftBlue\GB_LB_2.xlsx
42	main_safe	True	0.0	159	0	1.0	1.0	1.0	1	right	1.0	1.0	1.0	1	0.08	blockFiles/set_52/main_safe/leftBlue\GB_LB_2.xlsx
43	main_safe	True	0.0	159	0	1.0	1.0	1.0	1	right	1.0	0.0	1.0	1	0.08	blockFiles/set_52/main_safe/leftBlue\GB_LB_2.xlsx
44	main_safe	True	0.0	159	0	1.0	1.0	0.0	1	left	2.0	1.0	1.0	0	-0.08	blockFiles/set_52/main_safe/leftBlue\GB_LB_2.xlsx
45	main_safe	True	0.0	159	0	1.0	1.0	1.0	1	right	1.0	1.0	1.0	1	0.08	blockFiles/set_52/main_safe/leftBlue\GB_LB_2.xlsx
46	main_safe	True	0.0	159	0	1.0	1.0	1.0	1	right	1.0	1.0	1.0	1	0.08	blockFiles/set_52/main_safe/leftBlue\GB_LB_2.xlsx
47	main_safe	True	0.0	159	0	1.0	1.0	0.0	1	left	2.0	1.0	1.0	0	-0.08	blockFiles/set_52/main_safe/leftBlue\GB_LB_2.xlsx
48	main_safe	True	0.0	159	0	1.0	1.0	1.0	1	right	1.0	1.0	1.0	1	0.08	blockFiles/set_52/main_safe/leftBlue\GB_LB_2.xlsx
49	main_safe	True	0.0	159	0	1.0	1.0	0.0	1	left	2.0	1.0	1.0	0	-0.08	blockFiles/set_52/main_safe/leftBlue\GB_LB_2.xlsx
50	main_safe	True	0.0	159	0	1.0	1.0	1.0	1	right	1.0	0.0	1.0	1	0.08	blockFiles/set_52/main_safe/leftBlue\GB_LB_2.xlsx
51	main_safe	True	0.0	159	0	2.0	2.0	1.0	1	right	1.0	1.0	0.0	1	0.08	blockFiles/set_52/main_safe/rightBlue\GB_RB_2.xlsx
52	main_safe	True	0.0	159	0	2.0	2.0	1.0	1	right	1.0	0.0	0.0	1	0.08	blockFiles/set_52/main_safe/rightBlue\GB_RB_2.xlsx
53	main_safe	True	0.0	159	0	2.0	2.0	1.0	1	right	2.0	1.0	1.0	1	0.08	blockFiles/set_52/main_safe/rightBlue\GB_RB_2.xlsx
54	main_safe	True	0.0	159	0	2.0	2.0	1.0	1	right	2.0	1.0	1.0	1	0.08	blockFiles/set_52/main_safe/rightBlue\GB_RB_2.xlsx
55	main_safe	True	0.0	159	0	2.0	2.0	0.0	1	left	1.0	0.0	1.0	0	-0.08	blockFiles/set_52/main_safe/rightBlue\GB_RB_2.xlsx
56	main_safe	True	0.0	159	0	2.0	2.0	1.0	1	right	2.0	1.0	1.0	1	0.08	blockFiles/set_52/main_safe/rightBlue\GB_RB_2.xlsx
57	main_safe	True	0.0	159	0	2.0	2.0	0.0	1	left	1.0	1.0	1.0	0	-0.08	blockFiles/set_52/main_safe/rightBlue\GB_RB_2.xlsx
58	main_safe	True	0.0	159	0	2.0	2.0	0.0	1	left	1.0	1.0	1.0	0	-0.08	blockFiles/set_52/main_safe/rightBlue\GB_RB_2.xlsx
59	main_safe	True	0.0	159	0	2.0	2.0	0.0	1	left	1.0	1.0	1.0	0	-0.08	blockFiles/set_52/main_safe/rightBlue\GB_RB_2.xlsx
60	main_safe	True	0.0	159	0	2.0	2.0	0.0	1	left	1.0	1.0	1.0	0	-0.08	blockFiles/set_52/main_safe/rightBlue\GB_RB_2.xlsx
61	main_safe	True	0.0	159	0	2.0	2.0	0.0	1	left	1.0	0.0	1.0	0	-0.08	blockFiles/set_52/main_safe/rightBlue\GB_RB_2.xlsx
62	main_safe	True	0.0	159	0	2.0	2.0	0.0	1	left	1.0	0.0	1.0	0	-0.08	blockFiles/set_52/main_safe/rightBlue\GB_RB_2.xlsx
63	main_safe	True	0.0	159	0	2.0	2.0	1.0	1	right	2.0	1.0	1.0	1	0.08	blockFiles/set_52/main_safe/rightBlue\GB_RB_2.xlsx
64	main_safe	True	0.0	159	0	2.0	2.0	0.0	1	left	1.0	1.0	1.0	0	-0.08	blockFiles/set_52/main_safe/rightBlue\GB_RB_2.xlsx
65	main_safe	True	0.0	159	0	2.0	2.0	0.0	1	left	1.0	1.0	1.0	0	-0.08	blockFiles/set_52/main_safe/rightBlue\GB_RB_2.xlsx
66	main_safe	True	0.0	159	0	2.0	2.0	0.0	1	left	1.0	1.0	1.0	0	-0.08	blockFiles/set_52/main_safe/rightBlue\GB_RB_2.xlsx
67	main_safe	True	0.0	159	0	2.0	2.0	1.0	1	right	2.0	1.0	1.0	1	0.08	blockFiles/set_52/main_safe/rightBlue\GB_RB_2.xlsx
68	main_safe	True	0.0	159	0	2.0	2.0	0.0	1	left	1.0	0.0	1.0	0	-0.08	blockFiles/set_52/main_safe/rightBlue\GB_RB_2.xlsx
69	main_safe	True	0.0	159	0	2.0	2.0	1.0	1	right	2.0	1.0	1.0	1	0.08	blockFiles/set_52/main_safe/rightBlue\GB_RB_2.xlsx
70	main_safe	True	0.0	159	0	2.0	2.0	1.0	1	right	2.0	1.0	1.0	1	0.08	blockFiles/set_52/main_safe/rightBlue\GB_RB_2.xlsx
71	main_safe	True	0.0	159	0	2.0	2.0	1.0	1	right	2.0	1.0	1.0	1	0.08	blockFiles/set_52/main_safe/rightBlue\GB_RB_2.xlsx
72	main_safe	True	0.0	159	0	2.0	2.0	1.0	1	right	2.0	1.0	1.0	1	0.08	blockFiles/set_52/main_safe/rightBlue\GB_RB_2.xlsx
73	main_safe	True	0.0	159	0	2.0	2.0	1.0	1	right	2.0	1.0	1.0	1	0.08	blockFiles/set_52/main_safe/rightBlue\GB_RB_2.xlsx
74	main_safe	True	1.0	159	0	2.0	2.0	0.0	1	left	n/a	0.0	n/a	0	-0.08	blockFiles/set_52/main_safe/rightBlue\GB_RB_2.xlsx
75	main_safe	True	0.0	159	0	2.0	2.0	1.0	1	right	2.0	1.0	1.0	1	0.08	blockFiles/set_52/main_safe/rightBlue\GB_RB_2.xlsx
76	main_safe	True	0.0	159	0	2.0	2.0	0.0	1	left	1.0	1.0	1.0	0	-0.08	blockFiles/set_52/main_safe/rightBlue\GB_RB_2.xlsx
77	main_safe	True	0.0	159	0	3.0	3.0	0.0	1	left	1.0	0.0	0.0	0	-0.08	blockFiles/set_52/main_safe/leftBlue\GB_LB_3.xlsx
78	main_safe	True	0.0	159	0	3.0	3.0	0.0	1	left	2.0	1.0	1.0	0	-0.08	blockFiles/set_52/main_safe/leftBlue\GB_LB_3.xlsx
79	main_safe	True	0.0	159	0	3.0	3.0	0.0	1	left	2.0	0.0	1.0	0	-0.08	blockFiles/set_52/main_safe/leftBlue\GB_LB_3.xlsx
80	main_safe	True	0.0	159	0	3.0	3.0	0.0	1	left	2.0	1.0	1.0	0	-0.08	blockFiles/set_52/main_safe/leftBlue\GB_LB_3.xlsx
81	main_safe	True	0.0	159	0	3.0	3.0	0.0	1	left	2.0	1.0	1.0	0	-0.08	blockFiles/set_52/main_safe/leftBlue\GB_LB_3.xlsx
82	main_safe	True	0.0	159	0	3.0	3.0	0.0	1	left	2.0	1.0	1.0	0	-0.08	blockFiles/set_52/main_safe/leftBlue\GB_LB_3.xlsx
83	main_safe	True	0.0	159	0	3.0	3.0	1.0	1	right	1.0	1.0	1.0	1	0.08	blockFiles/set_52/main_safe/leftBlue\GB_LB_3.xlsx
84	main_safe	True	0.0	159	0	3.0	3.0	1.0	1	right	1.0	1.0	1.0	1	0.08	blockFiles/set_52/main_safe/leftBlue\GB_LB_3.xlsx
85	main_safe	True	0.0	159	0	3.0	3.0	0.0	1	left	2.0	1.0	1.0	0	-0.08	blockFiles/set_52/main_safe/leftBlue\GB_LB_3.xlsx
86	main_safe	True	0.0	159	0	3.0	3.0	1.0	1	right	1.0	0.0	1.0	1	0.08	blockFiles/set_52/main_safe/leftBlue\GB_LB_3.xlsx
87	main_safe	True	0.0	159	0	3.0	3.0	0.0	1	left	2.0	1.0	1.0	0	-0.08	blockFiles/set_52/main_safe/leftBlue\GB_LB_3.xlsx
88	main_safe	True	0.0	159	0	3.0	3.0	0.0	1	left	2.0	1.0	1.0	0	-0.08	blockFiles/set_52/main_safe/leftBlue\GB_LB_3.xlsx
89	main_safe	True	0.0	159	0	3.0	3.0	0.0	1	left	2.0	0.0	1.0	0	-0.08	blockFiles/set_52/main_safe/leftBlue\GB_LB_3.xlsx
90	main_safe	True	0.0	159	0	3.0	3.0	1.0	1	right	1.0	1.0	1.0	1	0.08	blockFiles/set_52/main_safe/leftBlue\GB_LB_3.xlsx
91	main_safe	True	0.0	159	0	3.0	3.0	1.0	1	right	1.0	1.0	1.0	1	0.08	blockFiles/set_52/main_safe/leftBlue\GB_LB_3.xlsx
92	main_safe	True	0.0	159	0	3.0	3.0	1.0	1	right	1.0	1.0	1.0	1	0.08	blockFiles/set_52/main_safe/leftBlue\GB_LB_3.xlsx
93	main_safe	True	0.0	159	0	3.0	3.0	1.0	1	right	1.0	1.0	1.0	1	0.08	blockFiles/set_52/main_safe/leftBlue\GB_LB_3.xlsx
94	main_safe	True	0.0	159	0	3.0	3.0	1.0	1	right	1.0	1.0	1.0	1	0.08	blockFiles/set_52/main_safe/leftBlue\GB_LB_3.xlsx
95	main_safe	True	0.0	159	0	3.0	3.0	0.0	1	left	2.0	1.0	1.0	0	-0.08	blockFiles/set_52/main_safe/leftBlue\GB_LB_3.xlsx
96	main_safe	True	0.0	159	0	3.0	3.0	1.0	1	right	1.0	1.0	1.0	1	0.08	blockFiles/set_52/main_safe/leftBlue\GB_LB_3.xlsx
97	main_safe	True	0.0	159	0	3.0	3.0	0.0	1	left	2.0	1.0	1.0	0	-0.08	blockFiles/set_52/main_safe/leftBlue\GB_LB_3.xlsx
98	main_safe	True	0.0	159	0	3.0	3.0	1.0	1	right	1.0	1.0	1.0	1	0.08	blockFiles/set_52/main_safe/leftBlue\GB_LB_3.xlsx
99	main_safe	True	0.0	159	0	3.0	3.0	0.0	1	left	1.0	0.0	0.0	0	-0.08	blockFiles/set_52/main_safe/leftBlue\GB_LB_3.xlsx
100	main_safe	True	0.0	159	0	3.0	3.0	1.0	1	right	1.0	0.0	1.0	1	0.08	blockFiles/set_52/main_safe/leftBlue\GB_LB_3.xlsx
101	main_safe	True	0.0	159	0	3.0	3.0	1.0	1	right	1.0	1.0	1.0	1	0.08	blockFiles/set_52/main_safe/leftBlue\GB_LB_3.xlsx
102	main_safe	True	0.0	159	0	4.0	4.0	1.0	1	right	2.0	0.0	0.0	1	0.08	blockFiles/set_52/main_safe/leftBlue\GB_LB_1.xlsx
103	main_safe	True	0.0	159	0	4.0	4.0	1.0	1	right	1.0	1.0	1.0	1	0.08	blockFiles/set_52/main_safe/leftBlue\GB_LB_1.xlsx
104	main_safe	True	0.0	159	0	4.0	4.0	1.0	1	right	1.0	1.0	1.0	1	0.08	blockFiles/set_52/main_safe/leftBlue\GB_LB_1.xlsx
105	main_safe	True	0.0	159	0	4.0	4.0	0.0	1	left	2.0	1.0	1.0	0	-0.08	blockFiles/set_52/main_safe/leftBlue\GB_LB_1.xlsx
106	main_safe	True	0.0	159	0	4.0	4.0	0.0	1	left	2.0	1.0	1.0	0	-0.08	blockFiles/set_52/main_safe/leftBlue\GB_LB_1.xlsx
107	main_safe	True	0.0	159	0	4.0	4.0	1.0	1	right	1.0	1.0	1.0	1	0.08	blockFiles/set_52/main_safe/leftBlue\GB_LB_1.xlsx
108	main_safe	True	0.0	159	0	4.0	4.0	1.0	1	right	1.0	1.0	1.0	1	0.08	blockFiles/set_52/main_safe/leftBlue\GB_LB_1.xlsx
109	main_safe	True	0.0	159	0	4.0	4.0	0.0	1	left	2.0	0.0	1.0	0	-0.08	blockFiles/set_52/main_safe/leftBlue\GB_LB_1.xlsx
110	main_safe	True	0.0	159	0	4.0	4.0	1.0	1	right	1.0	0.0	1.0	1	0.08	blockFiles/set_52/main_safe/leftBlue\GB_LB_1.xlsx
111	main_safe	True	0.0	159	0	4.0	4.0	0.0	1	left	2.0	1.0	1.0	0	-0.08	blockFiles/set_52/main_safe/leftBlue\GB_LB_1.xlsx
112	main_safe	True	0.0	159	0	4.0	4.0	0.0	1	left	2.0	1.0	1.0	0	-0.08	blockFiles/set_52/main_safe/leftBlue\GB_LB_1.xlsx
113	main_safe	True	0.0	159	0	4.0	4.0	1.0	1	right	1.0	0.0	1.0	1	0.08	blockFiles/set_52/main_safe/leftBlue\GB_LB_1.xlsx
114	main_safe	True	0.0	159	0	4.0	4.0	1.0	1	right	1.0	1.0	1.0	1	0.08	blockFiles/set_52/main_safe/leftBlue\GB_LB_1.xlsx
115	main_safe	True	0.0	159	0	4.0	4.0	0.0	1	left	2.0	1.0	1.0	0	-0.08	blockFiles/set_52/main_safe/leftBlue\GB_LB_1.xlsx
116	main_safe	True	0.0	159	0	4.0	4.0	0.0	1	left	2.0	1.0	1.0	0	-0.08	blockFiles/set_52/main_safe/leftBlue\GB_LB_1.xlsx
117	main_safe	True	0.0	159	0	4.0	4.0	0.0	1	left	2.0	0.0	1.0	0	-0.08	blockFiles/set_52/main_safe/leftBlue\GB_LB_1.xlsx
118	main_safe	True	0.0	159	0	4.0	4.0	0.0	1	left	2.0	1.0	1.0	0	-0.08	blockFiles/set_52/main_safe/leftBlue\GB_LB_1.xlsx
119	main_safe	True	0.0	159	0	4.0	4.0	1.0	1	right	1.0	0.0	1.0	1	0.08	blockFiles/set_52/main_safe/leftBlue\GB_LB_1.xlsx
120	main_safe	True	0.0	159	0	4.0	4.0	1.0	1	right	1.0	1.0	1.0	1	0.08	blockFiles/set_52/main_safe/leftBlue\GB_LB_1.xlsx
121	main_safe	True	0.0	159	0	4.0	4.0	1.0	1	right	1.0	1.0	1.0	1	0.08	blockFiles/set_52/main_safe/leftBlue\GB_LB_1.xlsx
122	main_safe	True	0.0	159	0	4.0	4.0	0.0	1	left	2.0	1.0	1.0	0	-0.08	blockFiles/set_52/main_safe/leftBlue\GB_LB_1.xlsx
123	main_safe	True	1.0	159	0	4.0	4.0	0.0	1	left	n/a	0.0	n/a	0	-0.08	blockFiles/set_52/main_safe/leftBlue\GB_LB_1.xlsx
124	main_safe	True	0.0	159	0	4.0	4.0	1.0	1	right	1.0	1.0	1.0	1	0.08	blockFiles/set_52/main_safe/leftBlue\GB_LB_1.xlsx
125	main_safe	True	0.0	159	0	4.0	4.0	1.0	1	right	1.0	1.0	1.0	1	0.08	blockFiles/set_52/main_safe/leftBlue\GB_LB_1.xlsx
126	main_safe	True	0.0	159	0	4.0	4.0	0.0	1	left	2.0	1.0	1.0	0	-0.08	blockFiles/set_52/main_safe/leftBlue\GB_LB_1.xlsx
127	main_safe	True	0.0	159	0	4.0	4.0	0.0	1	left	2.0	1.0	1.0	0	-0.08	blockFiles/set_52/main_safe/leftBlue\GB_LB_1.xlsx
128	main_safe	True	0.0	159	0	5.0	5.0	1.0	1	right	2.0	0.0	1.0	1	0.08	blockFiles/set_52/main_safe/rightBlue\GB_RB_1.xlsx
129	main_safe	True	0.0	159	0	5.0	5.0	0.0	1	left	2.0	0.0	0.0	0	-0.08	blockFiles/set_52/main_safe/rightBlue\GB_RB_1.xlsx
130	main_safe	True	0.0	159	0	5.0	5.0	1.0	1	right	2.0	1.0	1.0	1	0.08	blockFiles/set_52/main_safe/rightBlue\GB_RB_1.xlsx
131	main_safe	True	0.0	159	0	5.0	5.0	1.0	1	right	2.0	1.0	1.0	1	0.08	blockFiles/set_52/main_safe/rightBlue\GB_RB_1.xlsx
132	main_safe	True	0.0	159	0	5.0	5.0	1.0	1	right	2.0	1.0	1.0	1	0.08	blockFiles/set_52/main_safe/rightBlue\GB_RB_1.xlsx
133	main_safe	True	0.0	159	0	5.0	5.0	0.0	1	left	1.0	0.0	1.0	0	-0.08	blockFiles/set_52/main_safe/rightBlue\GB_RB_1.xlsx
134	main_safe	True	0.0	159	0	5.0	5.0	0.0	1	left	1.0	1.0	1.0	0	-0.08	blockFiles/set_52/main_safe/rightBlue\GB_RB_1.xlsx
135	main_safe	True	0.0	159	0	5.0	5.0	1.0	1	right	2.0	1.0	1.0	1	0.08	blockFiles/set_52/main_safe/rightBlue\GB_RB_1.xlsx
136	main_safe	True	0.0	159	0	5.0	5.0	1.0	1	right	2.0	0.0	1.0	1	0.08	blockFiles/set_52/main_safe/rightBlue\GB_RB_1.xlsx
137	main_safe	True	0.0	159	0	5.0	5.0	0.0	1	left	1.0	1.0	1.0	0	-0.08	blockFiles/set_52/main_safe/rightBlue\GB_RB_1.xlsx
138	main_safe	True	0.0	159	0	5.0	5.0	0.0	1	left	1.0	1.0	1.0	0	-0.08	blockFiles/set_52/main_safe/rightBlue\GB_RB_1.xlsx
139	main_safe	True	0.0	159	0	5.0	5.0	1.0	1	right	2.0	1.0	1.0	1	0.08	blockFiles/set_52/main_safe/rightBlue\GB_RB_1.xlsx
140	main_safe	True	0.0	159	0	5.0	5.0	0.0	1	left	1.0	1.0	1.0	0	-0.08	blockFiles/set_52/main_safe/rightBlue\GB_RB_1.xlsx
141	main_safe	True	0.0	159	0	5.0	5.0	0.0	1	left	1.0	0.0	1.0	0	-0.08	blockFiles/set_52/main_safe/rightBlue\GB_RB_1.xlsx
142	main_safe	True	0.0	159	0	5.0	5.0	0.0	1	left	1.0	1.0	1.0	0	-0.08	blockFiles/set_52/main_safe/rightBlue\GB_RB_1.xlsx
143	main_safe	True	0.0	159	0	5.0	5.0	0.0	1	left	1.0	1.0	1.0	0	-0.08	blockFiles/set_52/main_safe/rightBlue\GB_RB_1.xlsx
144	main_safe	True	0.0	159	0	5.0	5.0	0.0	1	left	1.0	1.0	1.0	0	-0.08	blockFiles/set_52/main_safe/rightBlue\GB_RB_1.xlsx
145	main_safe	True	0.0	159	0	5.0	5.0	0.0	1	left	1.0	1.0	1.0	0	-0.08	blockFiles/set_52/main_safe/rightBlue\GB_RB_1.xlsx
146	main_safe	True	0.0	159	0	5.0	5.0	1.0	1	right	2.0	1.0	1.0	1	0.08	blockFiles/set_52/main_safe/rightBlue\GB_RB_1.xlsx
147	main_safe	True	0.0	159	0	5.0	5.0	1.0	1	right	2.0	1.0	1.0	1	0.08	blockFiles/set_52/main_safe/rightBlue\GB_RB_1.xlsx
148	main_safe	True	0.0	159	0	5.0	5.0	1.0	1	right	2.0	1.0	1.0	1	0.08	blockFiles/set_52/main_safe/rightBlue\GB_RB_1.xlsx
149	main_safe	True	0.0	159	0	5.0	5.0	1.0	1	right	2.0	1.0	1.0	1	0.08	blockFiles/set_52/main_safe/rightBlue\GB_RB_1.xlsx
150	main_safe	True	0.0	159	0	5.0	5.0	0.0	1	left	1.0	1.0	1.0	0	-0.08	blockFiles/set_52/main_safe/rightBlue\GB_RB_1.xlsx
151	main_safe	True	0.0	159	0	5.0	5.0	0.0	1	left	1.0	1.0	1.0	0	-0.08	blockFiles/set_52/main_safe/rightBlue\GB_RB_1.xlsx
152	main_safe	True	0.0	159	0	5.0	5.0	0.0	1	left	1.0	1.0	1.0	0	-0.08	blockFiles/set_52/main_safe/rightBlue\GB_RB_1.xlsx
153	patches	True	n/a	159	0	n/a	n/a	0.0	1	left	n/a	n/a	n/a	0	-0.0150654895976	blockFiles/set_52/main_PD/GB_runPatches1.xlsx
154	patches	True	n/a	159	0	n/a	n/a	0.0	0	left	n/a	n/a	n/a	1	0.0232712022401	blockFiles/set_52/main_PD/GB_runPatches1.xlsx
155	patches	True	n/a	159	0	n/a	n/a	1.0	1	right	n/a	n/a	n/a	1	0.0780697772652	blockFiles/set_52/main_PD/GB_runPatches1.xlsx
156	patches	True	n/a	159	0	n/a	n/a	1.0	1	right	n/a	n/a	n/a	1	0.0700652505457	blockFiles/set_52/main_PD/GB_runPatches1.xlsx
157	patches	True	n/a	159	0	n/a	n/a	0.0	1	left	n/a	n/a	n/a	0	-0.038990448992699996	blockFiles/set_52/main_PD/GB_runPatches1.xlsx
158	patches	True	n/a	159	0	n/a	n/a	1.0	1	right	n/a	n/a	n/a	1	0.0661659311689	blockFiles/set_52/main_PD/GB_runPatches1.xlsx
159	patches	True	n/a	159	0	n/a	n/a	1.0	1	right	n/a	n/a	n/a	1	0.0349366773851	blockFiles/set_52/main_PD/GB_runPatches1.xlsx
160	patches	True	n/a	159	0	n/a	n/a	1.0	1	right	n/a	n/a	n/a	1	0.000984925869852	blockFiles/set_52/main_PD/GB_runPatches1.xlsx
161	patches	True	n/a	159	0	n/a	n/a	0.0	1	left	n/a	n/a	n/a	0	-0.0160605759919	blockFiles/set_52/main_PD/GB_runPatches1.xlsx
162	patches	True	n/a	159	0	n/a	n/a	1.0	1	right	n/a	n/a	n/a	1	0.0281004262343	blockFiles/set_52/main_PD/GB_runPatches1.xlsx
163	patches	True	n/a	159	0	n/a	n/a	1.0	1	right	n/a	n/a	n/a	1	0.0258201217465	blockFiles/set_52/main_PD/GB_runPatches1.xlsx
164	patches	True	n/a	159	0	n/a	n/a	1.0	1	right	n/a	n/a	n/a	1	0.0487037046626	blockFiles/set_52/main_PD/GB_runPatches1.xlsx
165	patches	True	n/a	159	0	n/a	n/a	1.0	1	right	n/a	n/a	n/a	1	0.0618056119233	blockFiles/set_52/main_PD/GB_runPatches1.xlsx
166	patches	True	n/a	159	0	n/a	n/a	0.0	1	left	n/a	n/a	n/a	0	-0.0352118076012	blockFiles/set_52/main_PD/GB_runPatches1.xlsx
167	patches	True	n/a	159	0	n/a	n/a	1.0	1	right	n/a	n/a	n/a	1	0.0323440283164	blockFiles/set_52/main_PD/GB_runPatches1.xlsx
168	patches	True	n/a	159	0	n/a	n/a	0.0	1	left	n/a	n/a	n/a	0	-0.0012838023901	blockFiles/set_52/main_PD/GB_runPatches1.xlsx
169	patches	True	n/a	159	0	n/a	n/a	1.0	1	right	n/a	n/a	n/a	1	0.0350055550039	blockFiles/set_52/main_PD/GB_runPatches1.xlsx
170	patches	True	n/a	159	0	n/a	n/a	0.0	1	left	n/a	n/a	n/a	0	-0.052460100948800006	blockFiles/set_52/main_PD/GB_runPatches1.xlsx
171	patches	True	n/a	159	0	n/a	n/a	1.0	1	right	n/a	n/a	n/a	1	0.0165988658927	blockFiles/set_52/main_PD/GB_runPatches1.xlsx
172	patches	True	n/a	159	0	n/a	n/a	1.0	1	right	n/a	n/a	n/a	1	0.0711164010875	blockFiles/set_52/main_PD/GB_runPatches1.xlsx
173	patches	True	n/a	159	0	n/a	n/a	0.0	1	left	n/a	n/a	n/a	0	-0.0254799617082	blockFiles/set_52/main_PD/GB_runPatches1.xlsx
174	patches	True	n/a	159	0	n/a	n/a	0.0	0	left	n/a	n/a	n/a	1	0.0144330917485	blockFiles/set_52/main_PD/GB_runPatches1.xlsx
175	patches	True	n/a	159	0	n/a	n/a	1.0	1	right	n/a	n/a	n/a	1	0.0537529334985	blockFiles/set_52/main_PD/GB_runPatches1.xlsx
176	patches	True	n/a	159	0	n/a	n/a	0.0	1	left	n/a	n/a	n/a	0	-0.034515165668	blockFiles/set_52/main_PD/GB_runPatches1.xlsx
177	patches	True	n/a	159	0	n/a	n/a	1.0	1	right	n/a	n/a	n/a	1	0.0281824043393	blockFiles/set_52/main_PD/GB_runPatches1.xlsx
178	patches	True	n/a	159	0	n/a	n/a	1.0	1	right	n/a	n/a	n/a	1	0.052364244554199996	blockFiles/set_52/main_PD/GB_runPatches1.xlsx
179	patches	True	n/a	159	0	n/a	n/a	1.0	1	right	n/a	n/a	n/a	1	0.07405364319680001	blockFiles/set_52/main_PD/GB_runPatches1.xlsx
180	patches	True	n/a	159	0	n/a	n/a	0.0	1	left	n/a	n/a	n/a	0	-0.0379156836681	blockFiles/set_52/main_PD/GB_runPatches1.xlsx
181	patches	True	n/a	159	0	n/a	n/a	1.0	0	right	n/a	n/a	n/a	0	-0.0147412667237	blockFiles/set_52/main_PD/GB_runPatches1.xlsx
182	patches	True	n/a	159	0	n/a	n/a	1.0	1	right	n/a	n/a	n/a	1	0.07113229695710001	blockFiles/set_52/main_PD/GB_runPatches1.xlsx
183	patches	True	n/a	159	0	n/a	n/a	0.0	1	left	n/a	n/a	n/a	0	-0.0220735568181	blockFiles/set_52/main_PD/GB_runPatches1.xlsx
184	patches	True	n/a	159	0	n/a	n/a	0.0	1	left	n/a	n/a	n/a	0	-0.0169473796897	blockFiles/set_52/main_PD/GB_runPatches1.xlsx
185	patches	True	n/a	159	0	n/a	n/a	1.0	1	right	n/a	n/a	n/a	1	0.06572224460540001	blockFiles/set_52/main_PD/GB_runPatches1.xlsx
186	patches	True	n/a	159	0	n/a	n/a	1.0	1	right	n/a	n/a	n/a	1	0.0452954443544	blockFiles/set_52/main_PD/GB_runPatches1.xlsx
187	patches	True	n/a	159	0	n/a	n/a	0.0	0	left	n/a	n/a	n/a	1	0.0136496075429	blockFiles/set_52/main_PD/GB_runPatches1.xlsx
188	patches	True	n/a	159	0	n/a	n/a	1.0	0	right	n/a	n/a	n/a	0	-0.0234952504747	blockFiles/set_52/main_PD/GB_runPatches1.xlsx
189	patches	True	n/a	159	0	n/a	n/a	1.0	1	right	n/a	n/a	n/a	1	0.0669470237754	blockFiles/set_52/main_PD/GB_runPatches1.xlsx
190	patches	True	n/a	159	0	n/a	n/a	0.0	1	left	n/a	n/a	n/a	0	-0.0379082942568	blockFiles/set_52/main_PD/GB_runPatches1.xlsx
191	patches	True	n/a	159	0	n/a	n/a	1.0	1	right	n/a	n/a	n/a	1	0.0187873600423	blockFiles/set_52/main_PD/GB_runPatches1.xlsx
192	patches	True	n/a	159	0	n/a	n/a	1.0	1	right	n/a	n/a	n/a	1	0.0443150444515	blockFiles/set_52/main_PD/GB_runPatches1.xlsx
193	patches	True	n/a	159	0	n/a	n/a	1.0	1	right	n/a	n/a	n/a	1	0.0389484175667	blockFiles/set_52/main_PD/GB_runPatches1.xlsx
194	patches	True	n/a	159	0	n/a	n/a	0.0	1	left	n/a	n/a	n/a	0	-0.0346315776557	blockFiles/set_52/main_PD/GB_runPatches1.xlsx
195	patches	True	n/a	159	0	n/a	n/a	1.0	0	right	n/a	n/a	n/a	0	-0.04732914211230001	blockFiles/set_52/main_PD/GB_runPatches1.xlsx
196	patches	True	n/a	159	0	n/a	n/a	n/a	0	None	n/a	n/a	n/a	0	-0.0224360441417	blockFiles/set_52/main_PD/GB_runPatches1.xlsx
197	patches	True	n/a	159	0	n/a	n/a	1.0	0	right	n/a	n/a	n/a	0	-0.04585458347569999	blockFiles/set_52/main_PD/GB_runPatches1.xlsx
198	patches	True	n/a	159	0	n/a	n/a	1.0	1	right	n/a	n/a	n/a	1	0.0385151463374	blockFiles/set_52/main_PD/GB_runPatches1.xlsx
199	patches	True	n/a	159	0	n/a	n/a	0.0	1	left	n/a	n/a	n/a	0	-0.042959749214399996	blockFiles/set_52/main_PD/GB_runPatches1.xlsx
200	patches	True	n/a	159	0	n/a	n/a	0.0	1	left	n/a	n/a	n/a	0	-0.0727104743943	blockFiles/set_52/main_PD/GB_runPatches1.xlsx
201	patches	True	n/a	159	0	n/a	n/a	1.0	0	right	n/a	n/a	n/a	0	-0.023644302226599998	blockFiles/set_52/main_PD/GB_runPatches1.xlsx
202	patches	True	n/a	159	0	n/a	n/a	n/a	0	None	n/a	n/a	n/a	0	-0.047756872084	blockFiles/set_52/main_PD/GB_runPatches1.xlsx
203	patches	True	n/a	159	0	n/a	n/a	0.0	1	left	n/a	n/a	n/a	0	-0.0668489134125	blockFiles/set_52/main_PD/GB_runPatches1.xlsx
204	patches	True	n/a	159	0	n/a	n/a	1.0	1	right	n/a	n/a	n/a	1	0.0273408217356	blockFiles/set_52/main_PD/GB_runPatches1.xlsx
205	patches	True	n/a	159	0	n/a	n/a	0.0	1	left	n/a	n/a	n/a	0	-0.06152852421630001	blockFiles/set_52/main_PD/GB_runPatches1.xlsx
206	patches	True	n/a	159	0	n/a	n/a	1.0	0	right	n/a	n/a	n/a	0	-0.0285935502127	blockFiles/set_52/main_PD/GB_runPatches1.xlsx
207	patches	True	n/a	159	0	n/a	n/a	1.0	1	right	n/a	n/a	n/a	1	0.0453780163825	blockFiles/set_52/main_PD/GB_runPatches1.xlsx
208	patches	True	n/a	159	0	n/a	n/a	1.0	0	right	n/a	n/a	n/a	0	-0.07121817827219999	blockFiles/set_52/main_PD/GB_runPatches1.xlsx
209	patches	True	n/a	159	0	n/a	n/a	0.0	1	left	n/a	n/a	n/a	0	-0.026453536506699998	blockFiles/set_52/main_PD/GB_runPatches1.xlsx
210	patches	True	n/a	159	0	n/a	n/a	1.0	1	right	n/a	n/a	n/a	1	0.07218202015389999	blockFiles/set_52/main_PD/GB_runPatches1.xlsx
211	patches	True	n/a	159	0	n/a	n/a	0.0	1	left	n/a	n/a	n/a	0	-0.004683346673850001	blockFiles/set_52/main_PD/GB_runPatches1.xlsx
212	patches	True	n/a	159	0	n/a	n/a	1.0	1	right	n/a	n/a	n/a	1	0.040206919573199995	blockFiles/set_52/main_PD/GB_runPatches1.xlsx
213	patches	True	n/a	159	0	n/a	n/a	1.0	1	right	n/a	n/a	n/a	1	0.00450432579964	blockFiles/set_52/main_PD/GB_runPatches1.xlsx
214	patches	True	n/a	159	0	n/a	n/a	1.0	1	right	n/a	n/a	n/a	1	0.01769678941	blockFiles/set_52/main_PD/GB_runPatches1.xlsx
215	patches	True	n/a	159	0	n/a	n/a	0.0	1	left	n/a	n/a	n/a	0	-0.042982854582400004	blockFiles/set_52/main_PD/GB_runPatches1.xlsx
216	patches	True	n/a	159	0	n/a	n/a	0.0	1	left	n/a	n/a	n/a	0	-0.0782744320668	blockFiles/set_52/main_PD/GB_runPatches1.xlsx
217	patches	True	n/a	159	0	n/a	n/a	0.0	1	left	n/a	n/a	n/a	0	-0.040903985723900006	blockFiles/set_52/main_PD/GB_runPatches1.xlsx
218	patches	True	n/a	159	0	n/a	n/a	n/a	0	None	n/a	n/a	n/a	0	-0.0797718653269	blockFiles/set_52/main_PD/GB_runPatches1.xlsx
219	patches	True	n/a	159	0	n/a	n/a	1.0	0	right	n/a	n/a	n/a	0	-0.00498088700697	blockFiles/set_52/main_PD/GB_runPatches1.xlsx
220	patches	True	n/a	159	0	n/a	n/a	1.0	1	right	n/a	n/a	n/a	1	0.0480193631724	blockFiles/set_52/main_PD/GB_runPatches1.xlsx
221	patches	True	n/a	159	0	n/a	n/a	0.0	1	left	n/a	n/a	n/a	0	-0.021739425565999997	blockFiles/set_52/main_PD/GB_runPatches1.xlsx
222	patches	True	n/a	159	0	n/a	n/a	0.0	1	left	n/a	n/a	n/a	0	-0.00756388781592	blockFiles/set_52/main_PD/GB_runPatches1.xlsx
223	patches	True	n/a	159	0	n/a	n/a	0.0	1	left	n/a	n/a	n/a	0	-0.0654546165839	blockFiles/set_52/main_PD/GB_runPatches1.xlsx
224	patches	True	n/a	159	0	n/a	n/a	1.0	1	right	n/a	n/a	n/a	1	0.0434425641224	blockFiles/set_52/main_PD/GB_runPatches1.xlsx
225	patches	True	n/a	159	0	n/a	n/a	0.0	1	left	n/a	n/a	n/a	0	-0.0651558000594	blockFiles/set_52/main_PD/GB_runPatches1.xlsx
226	patches	True	n/a	159	0	n/a	n/a	1.0	1	right	n/a	n/a	n/a	1	0.059700278416300004	blockFiles/set_52/main_PD/GB_runPatches1.xlsx
227	patches	True	n/a	159	0	n/a	n/a	1.0	0	right	n/a	n/a	n/a	0	-0.00265452159569	blockFiles/set_52/main_PD/GB_runPatches1.xlsx
228	patches	True	n/a	159	0	n/a	n/a	0.0	0	left	n/a	n/a	n/a	1	0.00868052525446	blockFiles/set_52/main_PD/GB_runPatches1.xlsx
229	patches	True	n/a	159	0	n/a	n/a	1.0	1	right	n/a	n/a	n/a	1	0.05820804717019999	blockFiles/set_52/main_PD/GB_runPatches1.xlsx
230	patches	True	n/a	159	0	n/a	n/a	1.0	0	right	n/a	n/a	n/a	0	-0.0188462772965	blockFiles/set_52/main_PD/GB_runPatches1.xlsx
231	patches	True	n/a	159	0	n/a	n/a	1.0	1	right	n/a	n/a	n/a	1	0.049873352181199995	blockFiles/set_52/main_PD/GB_runPatches1.xlsx
232	patches	True	n/a	159	0	n/a	n/a	1.0	1	right	n/a	n/a	n/a	1	0.053169890102	blockFiles/set_52/main_PD/GB_runPatches1.xlsx
233	patches	True	n/a	159	0	n/a	n/a	0.0	1	left	n/a	n/a	n/a	0	-0.0356768034771	blockFiles/set_52/main_PD/GB_runPatches1.xlsx
234	patches	True	n/a	159	0	n/a	n/a	0.0	1	left	n/a	n/a	n/a	0	-0.06861682025719999	blockFiles/set_52/main_PD/GB_runPatches1.xlsx
235	patches	True	n/a	159	0	n/a	n/a	n/a	0	None	n/a	n/a	n/a	0	-0.0314996652119	blockFiles/set_52/main_PD/GB_runPatches1.xlsx
236	patches	True	n/a	159	0	n/a	n/a	0.0	1	left	n/a	n/a	n/a	0	-0.06299075795339999	blockFiles/set_52/main_PD/GB_runPatches1.xlsx
237	patches	True	n/a	159	0	n/a	n/a	1.0	0	right	n/a	n/a	n/a	0	-0.05193512903530001	blockFiles/set_52/main_PD/GB_runPatches1.xlsx
238	patches	True	n/a	159	0	n/a	n/a	1.0	1	right	n/a	n/a	n/a	1	0.0389438782074	blockFiles/set_52/main_PD/GB_runPatches1.xlsx
239	patches	True	n/a	159	0	n/a	n/a	0.0	0	left	n/a	n/a	n/a	1	0.00206422800198	blockFiles/set_52/main_PD/GB_runPatches1.xlsx
240	patches	True	n/a	159	0	n/a	n/a	1.0	1	right	n/a	n/a	n/a	1	0.0496860432625	blockFiles/set_52/main_PD/GB_runPatches1.xlsx
241	patches	True	n/a	159	0	n/a	n/a	0.0	1	left	n/a	n/a	n/a	0	-0.018600634858	blockFiles/set_52/main_PD/GB_runPatches1.xlsx
242	patches	True	n/a	159	0	n/a	n/a	1.0	0	right	n/a	n/a	n/a	0	-0.0194949530624	blockFiles/set_52/main_PD/GB_runPatches1.xlsx
243	patches	True	n/a	159	0	n/a	n/a	1.0	1	right	n/a	n/a	n/a	1	0.0768241280504	blockFiles/set_52/main_PD/GB_runPatches1.xlsx
244	patches	True	n/a	159	0	n/a	n/a	1.0	1	right	n/a	n/a	n/a	1	0.032078532818700004	blockFiles/set_52/main_PD/GB_runPatches1.xlsx
245	patches	True	n/a	159	0	n/a	n/a	0.0	1	left	n/a	n/a	n/a	0	-0.037611766196800005	blockFiles/set_52/main_PD/GB_runPatches1.xlsx
246	patches	True	n/a	159	0	n/a	n/a	1.0	0	right	n/a	n/a	n/a	0	-0.0265075709112	blockFiles/set_52/main_PD/GB_runPatches1.xlsx
247	patches	True	n/a	159	0	n/a	n/a	1.0	1	right	n/a	n/a	n/a	1	0.0292579407431	blockFiles/set_52/main_PD/GB_runPatches1.xlsx
248	patches	True	n/a	159	0	n/a	n/a	0.0	0	left	n/a	n/a	n/a	1	0.00222617449239	blockFiles/set_52/main_PD/GB_runPatches1.xlsx
249	patches	True	n/a	159	0	n/a	n/a	0.0	1	left	n/a	n/a	n/a	0	-0.0652492281236	blockFiles/set_52/main_PD/GB_runPatches1.xlsx
250	patches	True	n/a	159	0	n/a	n/a	n/a	0	None	n/a	n/a	n/a	1	0.042601811178	blockFiles/set_52/main_PD/GB_runPatches1.xlsx
251	patches	True	n/a	159	0	n/a	n/a	1.0	1	right	n/a	n/a	n/a	1	0.0751579129882	blockFiles/set_52/main_PD/GB_runPatches1.xlsx
252	patches	True	n/a	159	0	n/a	n/a	0.0	1	left	n/a	n/a	n/a	0	-0.0760336261801	blockFiles/set_52/main_PD/GB_runPatches1.xlsx
253	main_unc	True	1.0	159	0	0.0	0.0	1.0	1	right	n/a	0.0	n/a	1	0.0725330909714	blockFiles/set_52/main_unc/leftBlue\GB_LB_2.xlsx
254	main_unc	True	0.0	159	0	0.0	0.0	1.0	0	right	1.0	0.0	0.0	0	-0.028307595010799998	blockFiles/set_52/main_unc/leftBlue\GB_LB_2.xlsx
255	main_unc	True	0.0	159	0	0.0	0.0	0.0	0	left	1.0	1.0	1.0	1	0.0309581475891	blockFiles/set_52/main_unc/leftBlue\GB_LB_2.xlsx
256	main_unc	True	0.0	159	0	0.0	0.0	0.0	1	left	1.0	0.0	0.0	0	-0.044997121486800004	blockFiles/set_52/main_unc/leftBlue\GB_LB_2.xlsx
257	main_unc	True	0.0	159	0	0.0	0.0	0.0	1	left	2.0	1.0	1.0	0	-0.07979394247760001	blockFiles/set_52/main_unc/leftBlue\GB_LB_2.xlsx
258	main_unc	True	0.0	159	0	0.0	0.0	0.0	1	left	2.0	1.0	1.0	0	-0.0606933648139	blockFiles/set_52/main_unc/leftBlue\GB_LB_2.xlsx
259	main_unc	True	0.0	159	0	0.0	0.0	0.0	1	left	2.0	0.0	1.0	0	-0.0167785480432	blockFiles/set_52/main_unc/leftBlue\GB_LB_2.xlsx
260	main_unc	True	0.0	159	0	0.0	0.0	1.0	1	right	1.0	1.0	1.0	1	0.042586755417300004	blockFiles/set_52/main_unc/leftBlue\GB_LB_2.xlsx
261	main_unc	True	0.0	159	0	0.0	0.0	0.0	1	left	2.0	1.0	1.0	0	-0.0566757115908	blockFiles/set_52/main_unc/leftBlue\GB_LB_2.xlsx
262	main_unc	True	0.0	159	0	0.0	0.0	1.0	1	right	1.0	1.0	1.0	1	0.06603273849930001	blockFiles/set_52/main_unc/leftBlue\GB_LB_2.xlsx
263	main_unc	True	0.0	159	0	0.0	0.0	0.0	0	left	1.0	1.0	1.0	1	0.008087898064399999	blockFiles/set_52/main_unc/leftBlue\GB_LB_2.xlsx
264	main_unc	True	0.0	159	0	0.0	0.0	1.0	1	right	1.0	0.0	1.0	1	0.0480679943226	blockFiles/set_52/main_unc/leftBlue\GB_LB_2.xlsx
265	main_unc	True	0.0	159	0	0.0	0.0	1.0	1	right	1.0	1.0	1.0	1	0.057934187743800006	blockFiles/set_52/main_unc/leftBlue\GB_LB_2.xlsx
266	main_unc	True	0.0	159	0	0.0	0.0	1.0	1	right	1.0	0.0	1.0	1	0.0327717961557	blockFiles/set_52/main_unc/leftBlue\GB_LB_2.xlsx
267	main_unc	True	0.0	159	0	0.0	0.0	1.0	1	right	1.0	1.0	1.0	1	0.0129104419984	blockFiles/set_52/main_unc/leftBlue\GB_LB_2.xlsx
268	main_unc	True	1.0	159	0	0.0	0.0	n/a	0	None	n/a	0.0	n/a	0	-0.0430926188827	blockFiles/set_52/main_unc/leftBlue\GB_LB_2.xlsx
269	main_unc	True	0.0	159	0	0.0	0.0	0.0	1	left	2.0	1.0	1.0	0	-0.07968748230489998	blockFiles/set_52/main_unc/leftBlue\GB_LB_2.xlsx
270	main_unc	True	0.0	159	0	0.0	0.0	0.0	1	left	2.0	1.0	1.0	0	-0.0593638330884	blockFiles/set_52/main_unc/leftBlue\GB_LB_2.xlsx
271	main_unc	True	0.0	159	0	0.0	0.0	1.0	1	right	1.0	0.0	1.0	1	0.046174448896199996	blockFiles/set_52/main_unc/leftBlue\GB_LB_2.xlsx
272	main_unc	True	0.0	159	0	0.0	0.0	0.0	1	left	2.0	1.0	1.0	0	-0.0407217280194	blockFiles/set_52/main_unc/leftBlue\GB_LB_2.xlsx
273	main_unc	True	0.0	159	0	0.0	0.0	0.0	1	left	2.0	1.0	1.0	0	-0.0789707982726	blockFiles/set_52/main_unc/leftBlue\GB_LB_2.xlsx
274	main_unc	True	0.0	159	0	0.0	0.0	0.0	1	left	2.0	1.0	1.0	0	-0.00598397547379	blockFiles/set_52/main_unc/leftBlue\GB_LB_2.xlsx
275	main_unc	True	0.0	159	0	0.0	0.0	0.0	0	left	2.0	0.0	0.0	1	0.007236011065539999	blockFiles/set_52/main_unc/leftBlue\GB_LB_2.xlsx
276	main_unc	True	0.0	159	0	0.0	0.0	0.0	1	left	2.0	1.0	1.0	0	-0.0684069055691	blockFiles/set_52/main_unc/leftBlue\GB_LB_2.xlsx
277	main_unc	True	0.0	159	0	0.0	0.0	0.0	1	left	2.0	0.0	1.0	0	-0.025813694559	blockFiles/set_52/main_unc/leftBlue\GB_LB_2.xlsx
278	main_unc	True	0.0	159	0	0.0	0.0	1.0	1	right	1.0	1.0	1.0	1	0.0725330909714	blockFiles/set_52/main_unc/leftBlue\GB_LB_2.xlsx
279	main_unc	True	0.0	159	0	0.0	0.0	0.0	1	left	2.0	1.0	1.0	0	-0.0430926188827	blockFiles/set_52/main_unc/leftBlue\GB_LB_2.xlsx
280	main_unc	True	0.0	159	0	1.0	1.0	1.0	1	right	1.0	1.0	1.0	1	0.0393775136024	blockFiles/set_52/main_unc/leftBlue\GB_LB_4.xlsx
281	main_unc	True	0.0	159	0	1.0	1.0	1.0	1	right	1.0	0.0	1.0	1	0.0533137961105	blockFiles/set_52/main_unc/leftBlue\GB_LB_4.xlsx
282	main_unc	True	0.0	159	0	1.0	1.0	1.0	0	right	2.0	1.0	1.0	0	-0.021727014239900002	blockFiles/set_52/main_unc/leftBlue\GB_LB_4.xlsx
283	main_unc	True	0.0	159	0	1.0	1.0	1.0	1	right	1.0	1.0	1.0	1	0.0736836079136	blockFiles/set_52/main_unc/leftBlue\GB_LB_4.xlsx
284	main_unc	True	0.0	159	0	1.0	1.0	0.0	1	left	2.0	1.0	1.0	0	-0.06626435818149999	blockFiles/set_52/main_unc/leftBlue\GB_LB_4.xlsx
285	main_unc	True	1.0	159	0	1.0	1.0	0.0	1	left	n/a	0.0	n/a	0	-0.00704275231808	blockFiles/set_52/main_unc/leftBlue\GB_LB_4.xlsx
286	main_unc	True	0.0	159	0	1.0	1.0	0.0	1	left	2.0	1.0	1.0	0	-0.0731293396838	blockFiles/set_52/main_unc/leftBlue\GB_LB_4.xlsx
287	main_unc	True	0.0	159	0	1.0	1.0	1.0	0	right	1.0	0.0	0.0	0	-0.0027701676078100003	blockFiles/set_52/main_unc/leftBlue\GB_LB_4.xlsx
288	main_unc	True	1.0	159	0	1.0	1.0	0.0	1	left	n/a	0.0	n/a	0	-0.0589287454449	blockFiles/set_52/main_unc/leftBlue\GB_LB_4.xlsx
289	main_unc	True	0.0	159	0	1.0	1.0	1.0	1	right	1.0	1.0	1.0	1	0.0754384534247	blockFiles/set_52/main_unc/leftBlue\GB_LB_4.xlsx
290	main_unc	True	0.0	159	0	1.0	1.0	1.0	1	right	1.0	0.0	1.0	1	0.0116612904519	blockFiles/set_52/main_unc/leftBlue\GB_LB_4.xlsx
291	main_unc	True	0.0	159	0	1.0	1.0	0.0	1	left	2.0	1.0	1.0	0	-0.0214192233235	blockFiles/set_52/main_unc/leftBlue\GB_LB_4.xlsx
292	main_unc	True	0.0	159	0	1.0	1.0	1.0	1	right	1.0	1.0	1.0	1	0.00115141738206	blockFiles/set_52/main_unc/leftBlue\GB_LB_4.xlsx
293	main_unc	True	0.0	159	0	1.0	1.0	0.0	1	left	2.0	0.0	1.0	0	-0.0657125583664	blockFiles/set_52/main_unc/leftBlue\GB_LB_4.xlsx
294	main_unc	True	0.0	159	0	1.0	1.0	0.0	1	left	2.0	0.0	1.0	0	-0.0297301238589	blockFiles/set_52/main_unc/leftBlue\GB_LB_4.xlsx
295	main_unc	True	0.0	159	0	1.0	1.0	0.0	1	left	2.0	1.0	1.0	0	-0.0747963855602	blockFiles/set_52/main_unc/leftBlue\GB_LB_4.xlsx
296	main_unc	True	0.0	159	0	1.0	1.0	0.0	1	left	2.0	1.0	1.0	0	-0.0729556129687	blockFiles/set_52/main_unc/leftBlue\GB_LB_4.xlsx
297	main_unc	True	0.0	159	0	1.0	1.0	1.0	0	right	1.0	0.0	0.0	0	-0.012942463662499999	blockFiles/set_52/main_unc/leftBlue\GB_LB_4.xlsx
298	main_unc	True	0.0	159	0	1.0	1.0	0.0	1	left	2.0	0.0	1.0	0	-0.037780172806199996	blockFiles/set_52/main_unc/leftBlue\GB_LB_4.xlsx
299	main_unc	True	0.0	159	0	1.0	1.0	1.0	1	right	1.0	1.0	1.0	1	0.0617587761395	blockFiles/set_52/main_unc/leftBlue\GB_LB_4.xlsx
300	main_unc	True	0.0	159	0	1.0	1.0	1.0	1	right	1.0	1.0	1.0	1	0.0379092859849	blockFiles/set_52/main_unc/leftBlue\GB_LB_4.xlsx
301	main_unc	True	0.0	159	0	1.0	1.0	1.0	1	right	2.0	0.0	0.0	1	0.021635857448	blockFiles/set_52/main_unc/leftBlue\GB_LB_4.xlsx
302	main_unc	True	0.0	159	0	1.0	1.0	1.0	1	right	1.0	1.0	1.0	1	0.0485059709847	blockFiles/set_52/main_unc/leftBlue\GB_LB_4.xlsx
303	main_unc	True	0.0	159	0	1.0	1.0	1.0	1	right	1.0	1.0	1.0	1	0.0433898664266	blockFiles/set_52/main_unc/leftBlue\GB_LB_4.xlsx
304	main_unc	True	0.0	159	0	1.0	1.0	0.0	1	left	2.0	1.0	1.0	0	-0.0154826482199	blockFiles/set_52/main_unc/leftBlue\GB_LB_4.xlsx
305	main_unc	True	0.0	159	0	1.0	1.0	0.0	1	left	2.0	1.0	1.0	0	-0.00704275231808	blockFiles/set_52/main_unc/leftBlue\GB_LB_4.xlsx
306	main_unc	True	0.0	159	0	1.0	1.0	0.0	1	left	2.0	0.0	1.0	0	-0.0589287454449	blockFiles/set_52/main_unc/leftBlue\GB_LB_4.xlsx
307	main_unc	True	0.0	159	0	2.0	2.0	0.0	1	left	2.0	1.0	0.0	0	-0.00884036237374	blockFiles/set_52/main_unc/rightBlue\GB_RB_3.xlsx
308	main_unc	True	0.0	159	0	2.0	2.0	0.0	1	left	2.0	0.0	0.0	0	-0.037819781918099996	blockFiles/set_52/main_unc/rightBlue\GB_RB_3.xlsx
309	main_unc	True	0.0	159	0	2.0	2.0	1.0	1	right	2.0	1.0	1.0	1	0.018729714229700004	blockFiles/set_52/main_unc/rightBlue\GB_RB_3.xlsx
310	main_unc	True	0.0	159	0	2.0	2.0	1.0	1	right	2.0	0.0	1.0	1	0.0367352973297	blockFiles/set_52/main_unc/rightBlue\GB_RB_3.xlsx
311	main_unc	True	0.0	159	0	2.0	2.0	1.0	1	right	2.0	0.0	1.0	1	0.026004483774299997	blockFiles/set_52/main_unc/rightBlue\GB_RB_3.xlsx
312	main_unc	True	0.0	159	0	2.0	2.0	0.0	1	left	2.0	0.0	0.0	0	-0.0290486429818	blockFiles/set_52/main_unc/rightBlue\GB_RB_3.xlsx
313	main_unc	True	0.0	159	0	2.0	2.0	1.0	1	right	1.0	0.0	0.0	1	0.0569025665149	blockFiles/set_52/main_unc/rightBlue\GB_RB_3.xlsx
314	main_unc	True	0.0	159	0	2.0	2.0	0.0	1	left	2.0	0.0	0.0	0	-0.0377834216692	blockFiles/set_52/main_unc/rightBlue\GB_RB_3.xlsx
315	main_unc	True	0.0	159	0	2.0	2.0	1.0	1	right	2.0	1.0	1.0	1	0.0578960710205	blockFiles/set_52/main_unc/rightBlue\GB_RB_3.xlsx
316	main_unc	True	0.0	159	0	2.0	2.0	0.0	1	left	1.0	1.0	1.0	0	-0.0450234841928	blockFiles/set_52/main_unc/rightBlue\GB_RB_3.xlsx
317	main_unc	True	0.0	159	0	2.0	2.0	1.0	1	right	2.0	0.0	1.0	1	0.0317663901486	blockFiles/set_52/main_unc/rightBlue\GB_RB_3.xlsx
318	main_unc	True	0.0	159	0	2.0	2.0	1.0	1	right	2.0	1.0	1.0	1	0.05050475506109999	blockFiles/set_52/main_unc/rightBlue\GB_RB_3.xlsx
319	main_unc	True	0.0	159	0	2.0	2.0	1.0	1	right	2.0	0.0	1.0	1	0.058900400847199996	blockFiles/set_52/main_unc/rightBlue\GB_RB_3.xlsx
320	main_unc	True	0.0	159	0	2.0	2.0	0.0	1	left	1.0	1.0	1.0	0	-0.022129144705799998	blockFiles/set_52/main_unc/rightBlue\GB_RB_3.xlsx
321	main_unc	True	0.0	159	0	2.0	2.0	0.0	0	left	2.0	1.0	1.0	1	0.0113762010448	blockFiles/set_52/main_unc/rightBlue\GB_RB_3.xlsx
322	main_unc	True	0.0	159	0	2.0	2.0	1.0	1	right	2.0	1.0	1.0	1	0.061560822147900006	blockFiles/set_52/main_unc/rightBlue\GB_RB_3.xlsx
323	main_unc	True	0.0	159	0	2.0	2.0	1.0	1	right	2.0	1.0	1.0	1	0.0499785956554	blockFiles/set_52/main_unc/rightBlue\GB_RB_3.xlsx
324	main_unc	True	0.0	159	0	2.0	2.0	0.0	1	left	1.0	1.0	1.0	0	-0.008036116119470001	blockFiles/set_52/main_unc/rightBlue\GB_RB_3.xlsx
325	main_unc	True	0.0	159	0	2.0	2.0	0.0	1	left	1.0	1.0	1.0	0	-0.029302952867	blockFiles/set_52/main_unc/rightBlue\GB_RB_3.xlsx
326	main_unc	True	0.0	159	0	2.0	2.0	0.0	1	left	1.0	1.0	1.0	0	-0.0543851226009	blockFiles/set_52/main_unc/rightBlue\GB_RB_3.xlsx
327	main_unc	True	0.0	159	0	2.0	2.0	1.0	0	right	2.0	0.0	0.0	0	-0.010759078711299998	blockFiles/set_52/main_unc/rightBlue\GB_RB_3.xlsx
328	main_unc	True	0.0	159	0	2.0	2.0	1.0	1	right	2.0	1.0	1.0	1	0.0789034520276	blockFiles/set_52/main_unc/rightBlue\GB_RB_3.xlsx
329	main_unc	True	0.0	159	0	2.0	2.0	0.0	1	left	2.0	0.0	0.0	0	-0.00377387134358	blockFiles/set_52/main_unc/rightBlue\GB_RB_3.xlsx
330	main_unc	True	0.0	159	0	2.0	2.0	1.0	1	right	2.0	1.0	1.0	1	0.0713197744079	blockFiles/set_52/main_unc/rightBlue\GB_RB_3.xlsx
331	main_unc	True	0.0	159	0	2.0	2.0	0.0	1	left	1.0	0.0	1.0	0	-0.069444028046	blockFiles/set_52/main_unc/rightBlue\GB_RB_3.xlsx
332	main_unc	True	0.0	159	0	3.0	3.0	1.0	1	right	1.0	1.0	1.0	1	0.037414838336400004	blockFiles/set_52/main_unc/leftBlue\GB_LB_1.xlsx
333	main_unc	True	0.0	159	0	3.0	3.0	1.0	1	right	1.0	0.0	1.0	1	0.023107941076199998	blockFiles/set_52/main_unc/leftBlue\GB_LB_1.xlsx
334	main_unc	True	0.0	159	0	3.0	3.0	1.0	0	right	2.0	0.0	1.0	0	-0.0075119422562399995	blockFiles/set_52/main_unc/leftBlue\GB_LB_1.xlsx
335	main_unc	True	0.0	159	0	3.0	3.0	1.0	1	right	1.0	1.0	1.0	1	0.039899578485599996	blockFiles/set_52/main_unc/leftBlue\GB_LB_1.xlsx
336	main_unc	True	0.0	159	0	3.0	3.0	0.0	1	left	2.0	1.0	1.0	0	-0.07227892944589999	blockFiles/set_52/main_unc/leftBlue\GB_LB_1.xlsx
337	main_unc	True	0.0	159	0	3.0	3.0	1.0	1	right	1.0	1.0	1.0	1	0.0135491535999	blockFiles/set_52/main_unc/leftBlue\GB_LB_1.xlsx
338	main_unc	True	0.0	159	0	3.0	3.0	0.0	1	left	2.0	1.0	1.0	0	-0.063354555741	blockFiles/set_52/main_unc/leftBlue\GB_LB_1.xlsx
339	main_unc	True	0.0	159	0	3.0	3.0	1.0	1	right	1.0	1.0	1.0	1	0.01923288038	blockFiles/set_52/main_unc/leftBlue\GB_LB_1.xlsx
340	main_unc	True	0.0	159	0	3.0	3.0	1.0	1	right	1.0	0.0	1.0	1	0.0509939744137	blockFiles/set_52/main_unc/leftBlue\GB_LB_1.xlsx
341	main_unc	True	0.0	159	0	3.0	3.0	0.0	1	left	2.0	1.0	1.0	0	-0.05402609426530001	blockFiles/set_52/main_unc/leftBlue\GB_LB_1.xlsx
342	main_unc	True	0.0	159	0	3.0	3.0	0.0	1	left	2.0	1.0	1.0	0	-0.0161545440182	blockFiles/set_52/main_unc/leftBlue\GB_LB_1.xlsx
343	main_unc	True	0.0	159	0	3.0	3.0	1.0	1	right	1.0	1.0	1.0	1	0.0075293873809300004	blockFiles/set_52/main_unc/leftBlue\GB_LB_1.xlsx
344	main_unc	True	0.0	159	0	3.0	3.0	0.0	1	left	2.0	1.0	1.0	0	-0.029216998834199998	blockFiles/set_52/main_unc/leftBlue\GB_LB_1.xlsx
345	main_unc	True	0.0	159	0	3.0	3.0	1.0	1	right	1.0	1.0	1.0	1	0.044885276276599995	blockFiles/set_52/main_unc/leftBlue\GB_LB_1.xlsx
346	main_unc	True	0.0	159	0	3.0	3.0	1.0	1	right	1.0	1.0	1.0	1	0.0620158638246	blockFiles/set_52/main_unc/leftBlue\GB_LB_1.xlsx
347	main_unc	True	0.0	159	0	3.0	3.0	1.0	1	right	1.0	0.0	1.0	1	0.06371822221199999	blockFiles/set_52/main_unc/leftBlue\GB_LB_1.xlsx
348	main_unc	True	0.0	159	0	3.0	3.0	0.0	1	left	2.0	1.0	1.0	0	-0.0670626327395	blockFiles/set_52/main_unc/leftBlue\GB_LB_1.xlsx
349	main_unc	True	0.0	159	0	3.0	3.0	0.0	1	left	2.0	0.0	1.0	0	-0.0608259373158	blockFiles/set_52/main_unc/leftBlue\GB_LB_1.xlsx
350	main_unc	True	0.0	159	0	3.0	3.0	0.0	1	left	2.0	1.0	1.0	0	-0.0405214350484	blockFiles/set_52/main_unc/leftBlue\GB_LB_1.xlsx
351	main_unc	True	0.0	159	0	3.0	3.0	0.0	1	left	2.0	0.0	1.0	0	-0.0053521579504	blockFiles/set_52/main_unc/leftBlue\GB_LB_1.xlsx
352	main_unc	True	0.0	159	0	3.0	3.0	0.0	0	left	2.0	0.0	0.0	1	0.00378413692117	blockFiles/set_52/main_unc/leftBlue\GB_LB_1.xlsx
353	main_unc	True	0.0	159	0	3.0	3.0	1.0	1	right	1.0	1.0	1.0	1	0.07879627313460001	blockFiles/set_52/main_unc/leftBlue\GB_LB_1.xlsx
354	main_unc	True	0.0	159	0	3.0	3.0	1.0	1	right	1.0	1.0	1.0	1	0.05649106934669999	blockFiles/set_52/main_unc/leftBlue\GB_LB_1.xlsx
355	main_unc	True	0.0	159	0	3.0	3.0	0.0	1	left	2.0	1.0	1.0	0	-0.06763435900209999	blockFiles/set_52/main_unc/leftBlue\GB_LB_1.xlsx
356	main_unc	True	0.0	159	0	3.0	3.0	0.0	1	left	2.0	1.0	1.0	0	-0.0522212315723	blockFiles/set_52/main_unc/leftBlue\GB_LB_1.xlsx
357	main_unc	True	0.0	159	0	4.0	4.0	0.0	1	left	2.0	0.0	0.0	0	-0.0688182909973	blockFiles/set_52/main_unc/rightBlue\GB_RB_6.xlsx
358	main_unc	True	0.0	159	0	4.0	4.0	1.0	1	right	2.0	1.0	1.0	1	0.054298469480099996	blockFiles/set_52/main_unc/rightBlue\GB_RB_6.xlsx
359	main_unc	True	0.0	159	0	4.0	4.0	0.0	1	left	1.0	0.0	1.0	0	-0.049143925570000004	blockFiles/set_52/main_unc/rightBlue\GB_RB_6.xlsx
360	main_unc	True	0.0	159	0	4.0	4.0	1.0	1	right	2.0	1.0	1.0	1	0.0387637494691	blockFiles/set_52/main_unc/rightBlue\GB_RB_6.xlsx
361	main_unc	True	0.0	159	0	4.0	4.0	1.0	0	right	1.0	1.0	1.0	0	-0.00977873081341	blockFiles/set_52/main_unc/rightBlue\GB_RB_6.xlsx
362	main_unc	True	0.0	159	0	4.0	4.0	1.0	1	right	2.0	1.0	1.0	1	0.0756539961509	blockFiles/set_52/main_unc/rightBlue\GB_RB_6.xlsx
363	main_unc	True	0.0	159	0	4.0	4.0	1.0	1	right	2.0	1.0	1.0	1	0.020857518483	blockFiles/set_52/main_unc/rightBlue\GB_RB_6.xlsx
364	main_unc	True	0.0	159	0	4.0	4.0	0.0	1	left	1.0	1.0	1.0	0	-0.00717143297195	blockFiles/set_52/main_unc/rightBlue\GB_RB_6.xlsx
365	main_unc	True	0.0	159	0	4.0	4.0	0.0	1	left	1.0	1.0	1.0	0	-0.0363750790432	blockFiles/set_52/main_unc/rightBlue\GB_RB_6.xlsx
366	main_unc	True	0.0	159	0	4.0	4.0	0.0	1	left	1.0	0.0	1.0	0	-0.05252084167669999	blockFiles/set_52/main_unc/rightBlue\GB_RB_6.xlsx
367	main_unc	True	0.0	159	0	4.0	4.0	0.0	1	left	1.0	1.0	1.0	0	-0.06355799373240001	blockFiles/set_52/main_unc/rightBlue\GB_RB_6.xlsx
368	main_unc	True	0.0	159	0	4.0	4.0	0.0	1	left	2.0	0.0	0.0	0	-0.031401148829600004	blockFiles/set_52/main_unc/rightBlue\GB_RB_6.xlsx
369	main_unc	True	0.0	159	0	4.0	4.0	1.0	0	right	2.0	0.0	0.0	0	-0.000776864811778	blockFiles/set_52/main_unc/rightBlue\GB_RB_6.xlsx
370	main_unc	True	0.0	159	0	4.0	4.0	1.0	1	right	2.0	1.0	1.0	1	0.029045725502100002	blockFiles/set_52/main_unc/rightBlue\GB_RB_6.xlsx
371	main_unc	True	0.0	159	0	4.0	4.0	1.0	1	right	2.0	1.0	1.0	1	0.036584482714499995	blockFiles/set_52/main_unc/rightBlue\GB_RB_6.xlsx
372	main_unc	True	0.0	159	0	4.0	4.0	0.0	1	left	1.0	1.0	1.0	0	-0.0775152225979	blockFiles/set_52/main_unc/rightBlue\GB_RB_6.xlsx
373	main_unc	True	0.0	159	0	4.0	4.0	1.0	1	right	2.0	1.0	1.0	1	0.07452005589380001	blockFiles/set_52/main_unc/rightBlue\GB_RB_6.xlsx
374	main_unc	True	0.0	159	0	4.0	4.0	1.0	0	right	2.0	0.0	0.0	0	-0.012301899362399999	blockFiles/set_52/main_unc/rightBlue\GB_RB_6.xlsx
375	main_unc	True	0.0	159	0	4.0	4.0	0.0	1	left	1.0	0.0	1.0	0	-0.0180740108155	blockFiles/set_52/main_unc/rightBlue\GB_RB_6.xlsx
376	main_unc	True	0.0	159	0	4.0	4.0	1.0	1	right	2.0	0.0	1.0	1	0.0427767962776	blockFiles/set_52/main_unc/rightBlue\GB_RB_6.xlsx
377	main_unc	True	0.0	159	0	4.0	4.0	1.0	1	right	2.0	1.0	1.0	1	0.038397717811199994	blockFiles/set_52/main_unc/rightBlue\GB_RB_6.xlsx
378	main_unc	True	1.0	159	0	4.0	4.0	n/a	0	None	n/a	0.0	n/a	1	0.0295255467854	blockFiles/set_52/main_unc/rightBlue\GB_RB_6.xlsx
379	main_unc	True	0.0	159	0	4.0	4.0	1.0	0	right	2.0	0.0	0.0	0	-0.0118940026872	blockFiles/set_52/main_unc/rightBlue\GB_RB_6.xlsx
380	main_unc	True	0.0	159	0	4.0	4.0	0.0	1	left	1.0	1.0	1.0	0	-0.07668084654960002	blockFiles/set_52/main_unc/rightBlue\GB_RB_6.xlsx
381	main_unc	True	0.0	159	0	4.0	4.0	1.0	1	right	2.0	1.0	1.0	1	0.04829312531280001	blockFiles/set_52/main_unc/rightBlue\GB_RB_6.xlsx
382	main_unc	True	0.0	159	0	4.0	4.0	1.0	1	right	2.0	1.0	1.0	1	0.0295255467854	blockFiles/set_52/main_unc/rightBlue\GB_RB_6.xlsx
383	main_unc	True	0.0	159	0	5.0	5.0	0.0	1	left	1.0	1.0	1.0	0	-0.0377323621884	blockFiles/set_52/main_unc/rightBlue\GB_RB_1.xlsx
384	main_unc	True	0.0	159	0	5.0	5.0	1.0	1	right	2.0	0.0	1.0	1	0.0135863773897	blockFiles/set_52/main_unc/rightBlue\GB_RB_1.xlsx
385	main_unc	True	0.0	159	0	5.0	5.0	1.0	1	right	2.0	0.0	1.0	1	0.0144956777617	blockFiles/set_52/main_unc/rightBlue\GB_RB_1.xlsx
386	main_unc	True	0.0	159	0	5.0	5.0	1.0	1	right	1.0	0.0	0.0	1	0.0799132920243	blockFiles/set_52/main_unc/rightBlue\GB_RB_1.xlsx
387	main_unc	True	0.0	159	0	5.0	5.0	0.0	1	left	1.0	1.0	1.0	0	-0.0289107718132	blockFiles/set_52/main_unc/rightBlue\GB_RB_1.xlsx
388	main_unc	True	0.0	159	0	5.0	5.0	1.0	1	right	2.0	1.0	1.0	1	0.0249507834576	blockFiles/set_52/main_unc/rightBlue\GB_RB_1.xlsx
389	main_unc	True	0.0	159	0	5.0	5.0	0.0	1	left	1.0	1.0	1.0	0	-0.059990043845	blockFiles/set_52/main_unc/rightBlue\GB_RB_1.xlsx
390	main_unc	True	0.0	159	0	5.0	5.0	0.0	1	left	1.0	1.0	1.0	0	-0.054812691845000004	blockFiles/set_52/main_unc/rightBlue\GB_RB_1.xlsx
391	main_unc	True	0.0	159	0	5.0	5.0	0.0	1	left	1.0	1.0	1.0	0	-0.0534034087509	blockFiles/set_52/main_unc/rightBlue\GB_RB_1.xlsx
392	main_unc	True	0.0	159	0	5.0	5.0	0.0	1	left	1.0	0.0	1.0	0	-0.06745594484730001	blockFiles/set_52/main_unc/rightBlue\GB_RB_1.xlsx
393	main_unc	True	0.0	159	0	5.0	5.0	0.0	0	left	1.0	0.0	0.0	1	0.0113473951444	blockFiles/set_52/main_unc/rightBlue\GB_RB_1.xlsx
394	main_unc	True	0.0	159	0	5.0	5.0	1.0	1	right	2.0	1.0	1.0	1	0.0608824164234	blockFiles/set_52/main_unc/rightBlue\GB_RB_1.xlsx
395	main_unc	True	0.0	159	0	5.0	5.0	1.0	1	right	2.0	0.0	1.0	1	0.0564520970546	blockFiles/set_52/main_unc/rightBlue\GB_RB_1.xlsx
396	main_unc	True	0.0	159	0	5.0	5.0	0.0	1	left	2.0	0.0	0.0	0	-0.015839447286	blockFiles/set_52/main_unc/rightBlue\GB_RB_1.xlsx
397	main_unc	True	0.0	159	0	5.0	5.0	1.0	1	right	2.0	0.0	1.0	1	0.0789303599112	blockFiles/set_52/main_unc/rightBlue\GB_RB_1.xlsx
398	main_unc	True	0.0	159	0	5.0	5.0	1.0	0	right	2.0	0.0	0.0	0	-0.005331646595149999	blockFiles/set_52/main_unc/rightBlue\GB_RB_1.xlsx
399	main_unc	True	0.0	159	0	5.0	5.0	0.0	1	left	1.0	1.0	1.0	0	-0.050296765807999994	blockFiles/set_52/main_unc/rightBlue\GB_RB_1.xlsx
400	main_unc	True	0.0	159	0	5.0	5.0	1.0	1	right	2.0	1.0	1.0	1	0.0639659022726	blockFiles/set_52/main_unc/rightBlue\GB_RB_1.xlsx
401	main_unc	True	1.0	159	0	5.0	5.0	1.0	0	right	n/a	0.0	n/a	0	-0.010332654845	blockFiles/set_52/main_unc/rightBlue\GB_RB_1.xlsx
402	main_unc	True	0.0	159	0	5.0	5.0	1.0	1	right	2.0	1.0	1.0	1	0.058637685663999996	blockFiles/set_52/main_unc/rightBlue\GB_RB_1.xlsx
403	main_unc	True	0.0	159	0	5.0	5.0	0.0	1	left	1.0	1.0	1.0	0	-0.0047651858069	blockFiles/set_52/main_unc/rightBlue\GB_RB_1.xlsx
404	main_unc	True	0.0	159	0	5.0	5.0	0.0	1	left	1.0	1.0	1.0	0	-0.04336765984069999	blockFiles/set_52/main_unc/rightBlue\GB_RB_1.xlsx
405	main_unc	True	0.0	159	0	5.0	5.0	1.0	1	right	2.0	0.0	1.0	1	0.059238345790699996	blockFiles/set_52/main_unc/rightBlue\GB_RB_1.xlsx
406	main_unc	True	0.0	159	0	5.0	5.0	0.0	1	left	1.0	1.0	1.0	0	-0.0388961638696	blockFiles/set_52/main_unc/rightBlue\GB_RB_1.xlsx
407	main_unc	True	0.0	159	0	5.0	5.0	1.0	1	right	2.0	1.0	1.0	1	0.041029385458699996	blockFiles/set_52/main_unc/rightBlue\GB_RB_1.xlsx
408	main_unc	True	0.0	159	0	5.0	5.0	0.0	1	left	1.0	1.0	1.0	0	-0.010332654845	blockFiles/set_52/main_unc/rightBlue\GB_RB_1.xlsx
409	main_unc	True	0.0	159	0	6.0	6.0	1.0	1	right	1.0	1.0	1.0	1	0.06166636614130001	blockFiles/set_52/main_unc/leftBlue\GB_LB_6.xlsx
410	main_unc	True	0.0	159	0	6.0	6.0	0.0	1	left	2.0	1.0	1.0	0	-0.050567046832300004	blockFiles/set_52/main_unc/leftBlue\GB_LB_6.xlsx
411	main_unc	True	0.0	159	0	6.0	6.0	1.0	1	right	1.0	0.0	1.0	1	0.0269791621715	blockFiles/set_52/main_unc/leftBlue\GB_LB_6.xlsx
412	main_unc	True	0.0	159	0	6.0	6.0	0.0	1	left	2.0	1.0	1.0	0	-0.015287707261700001	blockFiles/set_52/main_unc/leftBlue\GB_LB_6.xlsx
413	main_unc	True	0.0	159	0	6.0	6.0	1.0	1	right	1.0	1.0	1.0	1	0.063978999164	blockFiles/set_52/main_unc/leftBlue\GB_LB_6.xlsx
414	main_unc	True	1.0	159	0	6.0	6.0	n/a	0	None	n/a	0.0	n/a	0	-0.00861641980708	blockFiles/set_52/main_unc/leftBlue\GB_LB_6.xlsx
415	main_unc	True	0.0	159	0	6.0	6.0	1.0	0	right	2.0	1.0	1.0	0	-0.014239458721100001	blockFiles/set_52/main_unc/leftBlue\GB_LB_6.xlsx
416	main_unc	True	0.0	159	0	6.0	6.0	1.0	1	right	1.0	1.0	1.0	1	0.0777248424105	blockFiles/set_52/main_unc/leftBlue\GB_LB_6.xlsx
417	main_unc	True	0.0	159	0	6.0	6.0	0.0	1	left	2.0	1.0	1.0	0	-0.054667631462199995	blockFiles/set_52/main_unc/leftBlue\GB_LB_6.xlsx
418	main_unc	True	0.0	159	0	6.0	6.0	0.0	0	left	2.0	1.0	0.0	1	0.004406362101439999	blockFiles/set_52/main_unc/leftBlue\GB_LB_6.xlsx
419	main_unc	True	0.0	159	0	6.0	6.0	0.0	0	left	2.0	1.0	0.0	1	0.0162494252063	blockFiles/set_52/main_unc/leftBlue\GB_LB_6.xlsx
420	main_unc	True	0.0	159	0	6.0	6.0	0.0	1	left	2.0	1.0	1.0	0	-0.0649049179628	blockFiles/set_52/main_unc/leftBlue\GB_LB_6.xlsx
421	main_unc	True	0.0	159	0	6.0	6.0	0.0	1	left	2.0	0.0	1.0	0	-0.0176217300631	blockFiles/set_52/main_unc/leftBlue\GB_LB_6.xlsx
422	main_unc	True	0.0	159	0	6.0	6.0	0.0	1	left	2.0	1.0	1.0	0	-0.040486305784400003	blockFiles/set_52/main_unc/leftBlue\GB_LB_6.xlsx
423	main_unc	True	0.0	159	0	6.0	6.0	1.0	1	right	1.0	1.0	1.0	1	0.06919002875689999	blockFiles/set_52/main_unc/leftBlue\GB_LB_6.xlsx
424	main_unc	True	0.0	159	0	6.0	6.0	1.0	1	right	1.0	1.0	1.0	1	0.0540725927986	blockFiles/set_52/main_unc/leftBlue\GB_LB_6.xlsx
425	main_unc	True	0.0	159	0	6.0	6.0	1.0	1	right	1.0	1.0	1.0	1	0.0277182477526	blockFiles/set_52/main_unc/leftBlue\GB_LB_6.xlsx
426	main_unc	True	0.0	159	0	6.0	6.0	0.0	0	left	2.0	0.0	0.0	1	0.0188942174613	blockFiles/set_52/main_unc/leftBlue\GB_LB_6.xlsx
427	main_unc	True	0.0	159	0	6.0	6.0	0.0	1	left	2.0	1.0	1.0	0	-0.054986598324	blockFiles/set_52/main_unc/leftBlue\GB_LB_6.xlsx
428	main_unc	True	1.0	159	0	6.0	6.0	1.0	1	right	n/a	0.0	n/a	1	0.0564624574967	blockFiles/set_52/main_unc/leftBlue\GB_LB_6.xlsx
429	main_unc	True	0.0	159	0	6.0	6.0	1.0	0	right	1.0	0.0	0.0	0	-0.0006998138315980001	blockFiles/set_52/main_unc/leftBlue\GB_LB_6.xlsx
430	main_unc	True	0.0	159	0	6.0	6.0	0.0	1	left	2.0	0.0	1.0	0	-0.07903837513180001	blockFiles/set_52/main_unc/leftBlue\GB_LB_6.xlsx
431	main_unc	True	0.0	159	0	6.0	6.0	0.0	1	left	2.0	1.0	1.0	0	-0.06917945416639999	blockFiles/set_52/main_unc/leftBlue\GB_LB_6.xlsx
432	main_unc	True	0.0	159	0	6.0	6.0	1.0	1	right	2.0	0.0	0.0	1	0.030701698642199998	blockFiles/set_52/main_unc/leftBlue\GB_LB_6.xlsx
433	main_unc	True	0.0	159	0	6.0	6.0	1.0	1	right	1.0	0.0	1.0	1	0.0323467190191	blockFiles/set_52/main_unc/leftBlue\GB_LB_6.xlsx
434	main_unc	True	0.0	159	0	6.0	6.0	0.0	1	left	2.0	1.0	1.0	0	-0.00861641980708	blockFiles/set_52/main_unc/leftBlue\GB_LB_6.xlsx
435	main_unc	True	0.0	159	0	6.0	6.0	1.0	1	right	1.0	1.0	1.0	1	0.0564624574967	blockFiles/set_52/main_unc/leftBlue\GB_LB_6.xlsx
436	main_unc	True	0.0	159	0	7.0	7.0	0.0	1	left	2.0	0.0	0.0	0	-0.0287771700323	blockFiles/set_52/main_unc/rightBlue\GB_RB_4.xlsx
437	main_unc	True	0.0	159	0	7.0	7.0	1.0	1	right	2.0	0.0	1.0	1	0.0134708721377	blockFiles/set_52/main_unc/rightBlue\GB_RB_4.xlsx
438	main_unc	True	0.0	159	0	7.0	7.0	1.0	1	right	2.0	1.0	1.0	1	0.013443216085399999	blockFiles/set_52/main_unc/rightBlue\GB_RB_4.xlsx
439	main_unc	True	0.0	159	0	7.0	7.0	0.0	1	left	1.0	0.0	1.0	0	-0.0732669184543	blockFiles/set_52/main_unc/rightBlue\GB_RB_4.xlsx
440	main_unc	True	0.0	159	0	7.0	7.0	1.0	1	right	2.0	1.0	1.0	1	0.034604392945800005	blockFiles/set_52/main_unc/rightBlue\GB_RB_4.xlsx
441	main_unc	True	0.0	159	0	7.0	7.0	1.0	1	right	2.0	1.0	1.0	1	0.0548687832803	blockFiles/set_52/main_unc/rightBlue\GB_RB_4.xlsx
442	main_unc	True	0.0	159	0	7.0	7.0	1.0	1	right	2.0	1.0	1.0	1	0.037947959937199995	blockFiles/set_52/main_unc/rightBlue\GB_RB_4.xlsx
443	main_unc	True	0.0	159	0	7.0	7.0	1.0	1	right	2.0	1.0	1.0	1	0.0037040429934899997	blockFiles/set_52/main_unc/rightBlue\GB_RB_4.xlsx
444	main_unc	True	0.0	159	0	7.0	7.0	1.0	1	right	2.0	1.0	1.0	1	0.024938567448400003	blockFiles/set_52/main_unc/rightBlue\GB_RB_4.xlsx
445	main_unc	True	0.0	159	0	7.0	7.0	1.0	1	right	2.0	1.0	1.0	1	0.0775316310115	blockFiles/set_52/main_unc/rightBlue\GB_RB_4.xlsx
446	main_unc	True	0.0	159	0	7.0	7.0	1.0	1	right	2.0	0.0	1.0	1	0.0608438710123	blockFiles/set_52/main_unc/rightBlue\GB_RB_4.xlsx
447	main_unc	True	0.0	159	0	7.0	7.0	1.0	1	right	2.0	1.0	1.0	1	0.0760540774278	blockFiles/set_52/main_unc/rightBlue\GB_RB_4.xlsx
448	main_unc	True	0.0	159	0	7.0	7.0	1.0	0	right	2.0	0.0	0.0	0	-0.0103322719224	blockFiles/set_52/main_unc/rightBlue\GB_RB_4.xlsx
449	main_unc	True	0.0	159	0	7.0	7.0	0.0	1	left	1.0	1.0	1.0	0	-0.04504680307580001	blockFiles/set_52/main_unc/rightBlue\GB_RB_4.xlsx
450	main_unc	True	0.0	159	0	7.0	7.0	0.0	1	left	1.0	1.0	1.0	0	-0.0347174600326	blockFiles/set_52/main_unc/rightBlue\GB_RB_4.xlsx
451	main_unc	True	0.0	159	0	7.0	7.0	0.0	1	left	1.0	1.0	1.0	0	-0.0473113058507	blockFiles/set_52/main_unc/rightBlue\GB_RB_4.xlsx
452	main_unc	True	0.0	159	0	7.0	7.0	0.0	1	left	1.0	1.0	1.0	0	-0.030722876824400003	blockFiles/set_52/main_unc/rightBlue\GB_RB_4.xlsx
453	main_unc	True	0.0	159	0	7.0	7.0	0.0	1	left	1.0	0.0	1.0	0	-0.0795538520254	blockFiles/set_52/main_unc/rightBlue\GB_RB_4.xlsx
454	main_unc	True	0.0	159	0	7.0	7.0	1.0	1	right	2.0	0.0	1.0	1	0.043255325742100004	blockFiles/set_52/main_unc/rightBlue\GB_RB_4.xlsx
455	main_unc	True	0.0	159	0	7.0	7.0	0.0	1	left	1.0	1.0	1.0	0	-0.0544215202518	blockFiles/set_52/main_unc/rightBlue\GB_RB_4.xlsx
456	main_unc	True	0.0	159	0	7.0	7.0	0.0	1	left	1.0	1.0	1.0	0	-0.0451705047116	blockFiles/set_52/main_unc/rightBlue\GB_RB_4.xlsx
457	main_unc	True	0.0	159	0	7.0	7.0	0.0	1	left	1.0	0.0	1.0	0	-0.0431002692506	blockFiles/set_52/main_unc/rightBlue\GB_RB_4.xlsx
458	main_unc	True	0.0	159	0	7.0	7.0	0.0	1	left	1.0	1.0	1.0	0	-0.0295625081286	blockFiles/set_52/main_unc/rightBlue\GB_RB_4.xlsx
459	main_unc	True	0.0	159	0	7.0	7.0	0.0	0	left	1.0	0.0	0.0	1	0.006782435607170001	blockFiles/set_52/main_unc/rightBlue\GB_RB_4.xlsx
460	main_unc	True	0.0	159	0	7.0	7.0	0.0	1	left	1.0	1.0	1.0	0	-0.0635766008683	blockFiles/set_52/main_unc/rightBlue\GB_RB_4.xlsx
461	main_unc	True	0.0	159	0	8.0	8.0	0.0	1	left	1.0	0.0	0.0	0	-0.019656216818799997	blockFiles/set_52/main_unc/leftBlue\GB_LB_5.xlsx
462	main_unc	True	0.0	159	0	8.0	8.0	1.0	1	right	1.0	1.0	1.0	1	0.073540632911	blockFiles/set_52/main_unc/leftBlue\GB_LB_5.xlsx
463	main_unc	True	0.0	159	0	8.0	8.0	1.0	1	right	1.0	1.0	1.0	1	0.016261774152500002	blockFiles/set_52/main_unc/leftBlue\GB_LB_5.xlsx
464	main_unc	True	0.0	159	0	8.0	8.0	1.0	1	right	1.0	0.0	1.0	1	0.0535210129805	blockFiles/set_52/main_unc/leftBlue\GB_LB_5.xlsx
465	main_unc	True	0.0	159	0	8.0	8.0	0.0	1	left	2.0	1.0	1.0	0	-0.038719920478800005	blockFiles/set_52/main_unc/leftBlue\GB_LB_5.xlsx
466	main_unc	True	0.0	159	0	8.0	8.0	1.0	1	right	1.0	0.0	1.0	1	0.0391654033959	blockFiles/set_52/main_unc/leftBlue\GB_LB_5.xlsx
467	main_unc	True	0.0	159	0	8.0	8.0	0.0	1	left	2.0	1.0	1.0	0	-0.0591814443842	blockFiles/set_52/main_unc/leftBlue\GB_LB_5.xlsx
468	main_unc	True	0.0	159	0	8.0	8.0	0.0	1	left	2.0	1.0	1.0	0	-0.00684995327145	blockFiles/set_52/main_unc/leftBlue\GB_LB_5.xlsx
469	main_unc	True	0.0	159	0	8.0	8.0	0.0	1	left	2.0	1.0	1.0	0	-0.0418498914875	blockFiles/set_52/main_unc/leftBlue\GB_LB_5.xlsx
470	main_unc	True	0.0	159	0	8.0	8.0	0.0	1	left	2.0	1.0	1.0	0	-0.037351290788500004	blockFiles/set_52/main_unc/leftBlue\GB_LB_5.xlsx
471	main_unc	True	0.0	159	0	8.0	8.0	1.0	1	right	1.0	1.0	1.0	1	0.019175172429500002	blockFiles/set_52/main_unc/leftBlue\GB_LB_5.xlsx
472	main_unc	True	0.0	159	0	8.0	8.0	1.0	1	right	1.0	1.0	1.0	1	0.030478324070599996	blockFiles/set_52/main_unc/leftBlue\GB_LB_5.xlsx
473	main_unc	True	0.0	159	0	8.0	8.0	0.0	0	left	2.0	0.0	0.0	1	0.0221213603579	blockFiles/set_52/main_unc/leftBlue\GB_LB_5.xlsx
474	main_unc	True	0.0	159	0	8.0	8.0	0.0	1	left	2.0	1.0	1.0	0	-0.0599513406493	blockFiles/set_52/main_unc/leftBlue\GB_LB_5.xlsx
475	main_unc	True	0.0	159	0	8.0	8.0	0.0	1	left	2.0	1.0	1.0	0	-0.0391466696374	blockFiles/set_52/main_unc/leftBlue\GB_LB_5.xlsx
476	main_unc	True	0.0	159	0	8.0	8.0	1.0	1	right	1.0	1.0	1.0	1	0.0577027865499	blockFiles/set_52/main_unc/leftBlue\GB_LB_5.xlsx
477	main_unc	True	0.0	159	0	8.0	8.0	1.0	1	right	1.0	1.0	1.0	1	0.016772760916500002	blockFiles/set_52/main_unc/leftBlue\GB_LB_5.xlsx
478	main_unc	True	0.0	159	0	8.0	8.0	1.0	1	right	1.0	1.0	1.0	1	0.0334247968905	blockFiles/set_52/main_unc/leftBlue\GB_LB_5.xlsx
479	main_unc	True	0.0	159	0	8.0	8.0	0.0	1	left	2.0	0.0	1.0	0	-0.0407118937187	blockFiles/set_52/main_unc/leftBlue\GB_LB_5.xlsx
480	main_unc	True	0.0	159	0	8.0	8.0	1.0	1	right	1.0	1.0	1.0	1	0.0770234763063	blockFiles/set_52/main_unc/leftBlue\GB_LB_5.xlsx
481	main_unc	True	0.0	159	0	8.0	8.0	0.0	1	left	2.0	1.0	1.0	0	-0.011938050314799999	blockFiles/set_52/main_unc/leftBlue\GB_LB_5.xlsx
482	main_unc	True	0.0	159	0	8.0	8.0	1.0	1	right	1.0	0.0	1.0	1	0.0750122070871	blockFiles/set_52/main_unc/leftBlue\GB_LB_5.xlsx
483	main_unc	True	0.0	159	0	8.0	8.0	1.0	1	right	1.0	1.0	1.0	1	0.016421435289100002	blockFiles/set_52/main_unc/leftBlue\GB_LB_5.xlsx
484	main_unc	True	0.0	159	0	8.0	8.0	0.0	1	left	2.0	1.0	1.0	0	-0.0386364014447	blockFiles/set_52/main_unc/leftBlue\GB_LB_5.xlsx
485	main_unc	True	0.0	159	0	8.0	8.0	0.0	1	left	2.0	0.0	1.0	0	-0.0358941484988	blockFiles/set_52/main_unc/leftBlue\GB_LB_5.xlsx
486	main_unc	True	0.0	159	0	9.0	9.0	1.0	1	right	1.0	0.0	0.0	1	0.0775401020795	blockFiles/set_52/main_unc/rightBlue\GB_RB_5.xlsx
487	main_unc	True	0.0	159	0	9.0	9.0	1.0	1	right	2.0	1.0	1.0	1	0.062054692525399996	blockFiles/set_52/main_unc/rightBlue\GB_RB_5.xlsx
488	main_unc	True	0.0	159	0	9.0	9.0	0.0	1	left	1.0	1.0	1.0	0	-0.0167295235954	blockFiles/set_52/main_unc/rightBlue\GB_RB_5.xlsx
489	main_unc	True	0.0	159	0	9.0	9.0	1.0	1	right	2.0	0.0	1.0	1	0.016820874121	blockFiles/set_52/main_unc/rightBlue\GB_RB_5.xlsx
490	main_unc	True	0.0	159	0	9.0	9.0	0.0	1	left	1.0	0.0	1.0	0	-0.0662463958003	blockFiles/set_52/main_unc/rightBlue\GB_RB_5.xlsx
491	main_unc	True	0.0	159	0	9.0	9.0	0.0	0	left	1.0	0.0	0.0	1	0.0059751098044199995	blockFiles/set_52/main_unc/rightBlue\GB_RB_5.xlsx
492	main_unc	True	1.0	159	0	9.0	9.0	n/a	0	None	n/a	0.0	n/a	0	-0.00942886633798	blockFiles/set_52/main_unc/rightBlue\GB_RB_5.xlsx
493	main_unc	True	0.0	159	0	9.0	9.0	1.0	1	right	2.0	1.0	1.0	1	0.0599949967302	blockFiles/set_52/main_unc/rightBlue\GB_RB_5.xlsx
494	main_unc	True	0.0	159	0	9.0	9.0	1.0	1	right	2.0	1.0	1.0	1	0.012350597009100002	blockFiles/set_52/main_unc/rightBlue\GB_RB_5.xlsx
495	main_unc	True	0.0	159	0	9.0	9.0	1.0	1	right	2.0	0.0	1.0	1	0.06962812675160002	blockFiles/set_52/main_unc/rightBlue\GB_RB_5.xlsx
496	main_unc	True	0.0	159	0	9.0	9.0	1.0	1	right	1.0	0.0	0.0	1	0.00582360984758	blockFiles/set_52/main_unc/rightBlue\GB_RB_5.xlsx
497	main_unc	True	0.0	159	0	9.0	9.0	1.0	1	right	2.0	0.0	1.0	1	0.049337453953900004	blockFiles/set_52/main_unc/rightBlue\GB_RB_5.xlsx
498	main_unc	True	0.0	159	0	9.0	9.0	1.0	1	right	2.0	1.0	1.0	1	0.0385284128785	blockFiles/set_52/main_unc/rightBlue\GB_RB_5.xlsx
499	main_unc	True	0.0	159	0	9.0	9.0	0.0	1	left	1.0	1.0	1.0	0	-0.078240893539	blockFiles/set_52/main_unc/rightBlue\GB_RB_5.xlsx
500	main_unc	True	0.0	159	0	9.0	9.0	0.0	1	left	1.0	1.0	1.0	0	-0.0495541162789	blockFiles/set_52/main_unc/rightBlue\GB_RB_5.xlsx
501	main_unc	True	0.0	159	0	9.0	9.0	0.0	1	left	1.0	1.0	1.0	0	-0.0474298458174	blockFiles/set_52/main_unc/rightBlue\GB_RB_5.xlsx
502	main_unc	True	0.0	159	0	9.0	9.0	1.0	0	right	2.0	0.0	0.0	0	-0.008326568081970001	blockFiles/set_52/main_unc/rightBlue\GB_RB_5.xlsx
503	main_unc	True	0.0	159	0	9.0	9.0	0.0	1	left	1.0	1.0	1.0	0	-0.04505458872769999	blockFiles/set_52/main_unc/rightBlue\GB_RB_5.xlsx
504	main_unc	True	0.0	159	0	9.0	9.0	0.0	1	left	1.0	1.0	1.0	0	-0.056383065097	blockFiles/set_52/main_unc/rightBlue\GB_RB_5.xlsx
505	main_unc	True	0.0	159	0	9.0	9.0	0.0	1	left	1.0	1.0	1.0	0	-0.0230282440782	blockFiles/set_52/main_unc/rightBlue\GB_RB_5.xlsx
506	main_unc	True	0.0	159	0	9.0	9.0	1.0	1	right	2.0	0.0	1.0	1	0.017803286239499998	blockFiles/set_52/main_unc/rightBlue\GB_RB_5.xlsx
507	main_unc	True	0.0	159	0	9.0	9.0	1.0	1	right	2.0	1.0	1.0	1	0.0376759718359	blockFiles/set_52/main_unc/rightBlue\GB_RB_5.xlsx
508	main_unc	True	0.0	159	0	9.0	9.0	0.0	1	left	1.0	0.0	1.0	0	-0.07755220346149999	blockFiles/set_52/main_unc/rightBlue\GB_RB_5.xlsx
509	main_unc	True	0.0	159	0	9.0	9.0	0.0	1	left	1.0	1.0	1.0	0	-0.03946907643230001	blockFiles/set_52/main_unc/rightBlue\GB_RB_5.xlsx
510	main_unc	True	0.0	159	0	9.0	9.0	0.0	1	left	1.0	1.0	1.0	0	-0.0612287961505	blockFiles/set_52/main_unc/rightBlue\GB_RB_5.xlsx
511	main_unc	True	0.0	159	0	9.0	9.0	0.0	1	left	2.0	0.0	0.0	0	-0.00942886633798	blockFiles/set_52/main_unc/rightBlue\GB_RB_5.xlsx
512	main_unc	True	0.0	159	0	10.0	10.0	1.0	1	right	1.0	1.0	1.0	1	0.028642447143799998	blockFiles/set_52/main_unc/leftBlue\GB_LB_3.xlsx
513	main_unc	True	0.0	159	0	10.0	10.0	0.0	1	left	2.0	1.0	1.0	0	-0.0415602092817	blockFiles/set_52/main_unc/leftBlue\GB_LB_3.xlsx
514	main_unc	True	0.0	159	0	10.0	10.0	0.0	1	left	2.0	1.0	1.0	0	-0.00163724154234	blockFiles/set_52/main_unc/leftBlue\GB_LB_3.xlsx
515	main_unc	True	0.0	159	0	10.0	10.0	0.0	0	left	2.0	1.0	0.0	1	0.0146110161766	blockFiles/set_52/main_unc/leftBlue\GB_LB_3.xlsx
516	main_unc	True	0.0	159	0	10.0	10.0	1.0	1	right	1.0	1.0	1.0	1	0.012649576980600001	blockFiles/set_52/main_unc/leftBlue\GB_LB_3.xlsx
517	main_unc	True	0.0	159	0	10.0	10.0	1.0	1	right	1.0	1.0	1.0	1	0.07277564613149999	blockFiles/set_52/main_unc/leftBlue\GB_LB_3.xlsx
518	main_unc	True	0.0	159	0	10.0	10.0	0.0	1	left	2.0	1.0	1.0	0	-0.0621907067299	blockFiles/set_52/main_unc/leftBlue\GB_LB_3.xlsx
519	main_unc	True	0.0	159	0	10.0	10.0	1.0	1	right	1.0	1.0	1.0	1	0.0695854156278	blockFiles/set_52/main_unc/leftBlue\GB_LB_3.xlsx
520	main_unc	True	0.0	159	0	10.0	10.0	0.0	0	left	2.0	0.0	0.0	1	0.0098813826777	blockFiles/set_52/main_unc/leftBlue\GB_LB_3.xlsx
521	main_unc	True	0.0	159	0	10.0	10.0	1.0	1	right	1.0	1.0	1.0	1	0.042469865959099996	blockFiles/set_52/main_unc/leftBlue\GB_LB_3.xlsx
522	main_unc	True	0.0	159	0	10.0	10.0	0.0	1	left	2.0	0.0	1.0	0	-0.0430163618363	blockFiles/set_52/main_unc/leftBlue\GB_LB_3.xlsx
523	main_unc	True	0.0	159	0	10.0	10.0	0.0	1	left	1.0	1.0	0.0	0	-0.0011134736985	blockFiles/set_52/main_unc/leftBlue\GB_LB_3.xlsx
524	main_unc	True	0.0	159	0	10.0	10.0	0.0	1	left	2.0	1.0	1.0	0	-0.0657614747435	blockFiles/set_52/main_unc/leftBlue\GB_LB_3.xlsx
525	main_unc	True	0.0	159	0	10.0	10.0	1.0	1	right	1.0	1.0	1.0	1	0.0650200627744	blockFiles/set_52/main_unc/leftBlue\GB_LB_3.xlsx
526	main_unc	True	0.0	159	0	10.0	10.0	1.0	0	right	2.0	0.0	1.0	0	-0.016116578411299997	blockFiles/set_52/main_unc/leftBlue\GB_LB_3.xlsx
527	main_unc	True	0.0	159	0	10.0	10.0	0.0	1	left	2.0	1.0	1.0	0	-0.044782754313199995	blockFiles/set_52/main_unc/leftBlue\GB_LB_3.xlsx
528	main_unc	True	0.0	159	0	10.0	10.0	1.0	1	right	1.0	1.0	1.0	1	0.0346787883341	blockFiles/set_52/main_unc/leftBlue\GB_LB_3.xlsx
529	main_unc	True	0.0	159	0	10.0	10.0	0.0	0	left	1.0	1.0	1.0	1	0.0115518100746	blockFiles/set_52/main_unc/leftBlue\GB_LB_3.xlsx
530	main_unc	True	0.0	159	0	10.0	10.0	0.0	1	left	2.0	1.0	1.0	0	-0.0734324780107	blockFiles/set_52/main_unc/leftBlue\GB_LB_3.xlsx
531	main_unc	True	0.0	159	0	10.0	10.0	1.0	1	right	1.0	1.0	1.0	1	0.0151425831579	blockFiles/set_52/main_unc/leftBlue\GB_LB_3.xlsx
532	main_unc	True	0.0	159	0	10.0	10.0	0.0	1	left	2.0	1.0	1.0	0	-0.0653873191215	blockFiles/set_52/main_unc/leftBlue\GB_LB_3.xlsx
533	main_unc	True	1.0	159	0	10.0	10.0	n/a	0	None	n/a	0.0	n/a	0	-0.0382649112307	blockFiles/set_52/main_unc/leftBlue\GB_LB_3.xlsx
534	main_unc	True	0.0	159	0	10.0	10.0	0.0	1	left	2.0	1.0	1.0	0	-0.0486491091363	blockFiles/set_52/main_unc/leftBlue\GB_LB_3.xlsx
535	main_unc	True	0.0	159	0	10.0	10.0	0.0	1	left	2.0	1.0	1.0	0	-0.0524512063526	blockFiles/set_52/main_unc/leftBlue\GB_LB_3.xlsx
536	main_unc	True	0.0	159	0	10.0	10.0	1.0	1	right	1.0	0.0	1.0	1	0.0528484698571	blockFiles/set_52/main_unc/leftBlue\GB_LB_3.xlsx
537	main_unc	True	0.0	159	0	10.0	10.0	0.0	1	left	2.0	1.0	1.0	0	-0.0382649112307	blockFiles/set_52/main_unc/leftBlue\GB_LB_3.xlsx
538	main_unc	True	0.0	159	0	11.0	11.0	0.0	1	left	1.0	1.0	1.0	0	-0.07455091362819999	blockFiles/set_52/main_unc/rightBlue\GB_RB_2.xlsx
539	main_unc	True	0.0	159	0	11.0	11.0	0.0	0	left	2.0	1.0	1.0	1	0.0020876049622899997	blockFiles/set_52/main_unc/rightBlue\GB_RB_2.xlsx
540	main_unc	True	0.0	159	0	11.0	11.0	1.0	1	right	2.0	0.0	1.0	1	0.0317979661003	blockFiles/set_52/main_unc/rightBlue\GB_RB_2.xlsx
541	main_unc	True	0.0	159	0	11.0	11.0	1.0	1	right	2.0	1.0	1.0	1	0.0245867593028	blockFiles/set_52/main_unc/rightBlue\GB_RB_2.xlsx
542	main_unc	True	0.0	159	0	11.0	11.0	0.0	1	left	1.0	1.0	1.0	0	-0.0638929206505	blockFiles/set_52/main_unc/rightBlue\GB_RB_2.xlsx
543	main_unc	True	0.0	159	0	11.0	11.0	0.0	1	left	1.0	1.0	1.0	0	-0.0311444376409	blockFiles/set_52/main_unc/rightBlue\GB_RB_2.xlsx
544	main_unc	True	0.0	159	0	11.0	11.0	1.0	1	right	2.0	1.0	1.0	1	0.050076956749	blockFiles/set_52/main_unc/rightBlue\GB_RB_2.xlsx
545	main_unc	True	0.0	159	0	11.0	11.0	0.0	1	left	1.0	1.0	1.0	0	-0.057092569768400006	blockFiles/set_52/main_unc/rightBlue\GB_RB_2.xlsx
546	main_unc	True	0.0	159	0	11.0	11.0	0.0	1	left	1.0	0.0	1.0	0	-0.0778719700687	blockFiles/set_52/main_unc/rightBlue\GB_RB_2.xlsx
547	main_unc	True	0.0	159	0	11.0	11.0	0.0	1	left	1.0	0.0	1.0	0	-0.0273072468676	blockFiles/set_52/main_unc/rightBlue\GB_RB_2.xlsx
548	main_unc	True	0.0	159	0	11.0	11.0	0.0	1	left	1.0	1.0	1.0	0	-0.052590519879	blockFiles/set_52/main_unc/rightBlue\GB_RB_2.xlsx
549	main_unc	True	0.0	159	0	11.0	11.0	0.0	1	left	1.0	1.0	1.0	0	-0.0391761057265	blockFiles/set_52/main_unc/rightBlue\GB_RB_2.xlsx
550	main_unc	True	0.0	159	0	11.0	11.0	0.0	0	left	2.0	0.0	1.0	1	0.013143758699299998	blockFiles/set_52/main_unc/rightBlue\GB_RB_2.xlsx
551	main_unc	True	0.0	159	0	11.0	11.0	1.0	1	right	2.0	1.0	1.0	1	0.0717819608189	blockFiles/set_52/main_unc/rightBlue\GB_RB_2.xlsx
552	main_unc	True	0.0	159	0	11.0	11.0	0.0	1	left	1.0	1.0	1.0	0	-0.027026987820900003	blockFiles/set_52/main_unc/rightBlue\GB_RB_2.xlsx
553	main_unc	True	0.0	159	0	11.0	11.0	1.0	1	right	2.0	1.0	1.0	1	0.0608967529237	blockFiles/set_52/main_unc/rightBlue\GB_RB_2.xlsx
554	main_unc	True	0.0	159	0	11.0	11.0	1.0	1	right	2.0	0.0	1.0	1	0.05745698295530001	blockFiles/set_52/main_unc/rightBlue\GB_RB_2.xlsx
555	main_unc	True	0.0	159	0	11.0	11.0	0.0	1	left	1.0	1.0	1.0	0	-0.0509545071237	blockFiles/set_52/main_unc/rightBlue\GB_RB_2.xlsx
556	main_unc	True	0.0	159	0	11.0	11.0	0.0	0	left	1.0	0.0	0.0	1	0.00134752575308	blockFiles/set_52/main_unc/rightBlue\GB_RB_2.xlsx
557	main_unc	True	0.0	159	0	11.0	11.0	0.0	0	left	1.0	0.0	0.0	1	0.024487484320999998	blockFiles/set_52/main_unc/rightBlue\GB_RB_2.xlsx
558	main_unc	True	0.0	159	0	11.0	11.0	0.0	0	left	2.0	1.0	1.0	1	0.0722969969921	blockFiles/set_52/main_unc/rightBlue\GB_RB_2.xlsx
559	main_unc	True	0.0	159	0	11.0	11.0	0.0	1	left	1.0	1.0	1.0	0	-0.022773739136799996	blockFiles/set_52/main_unc/rightBlue\GB_RB_2.xlsx
560	main_unc	True	0.0	159	0	11.0	11.0	0.0	1	left	1.0	1.0	1.0	0	-0.014083758331799999	blockFiles/set_52/main_unc/rightBlue\GB_RB_2.xlsx
561	main_unc	True	0.0	159	0	11.0	11.0	1.0	1	right	2.0	1.0	1.0	1	0.0564272543788	blockFiles/set_52/main_unc/rightBlue\GB_RB_2.xlsx
562	main_unc	True	0.0	159	0	11.0	11.0	0.0	1	left	2.0	0.0	0.0	0	-0.0752519048192	blockFiles/set_52/main_unc/rightBlue\GB_RB_2.xlsx
