	trial_type	complete	missIndex	participant	id	blockNumber	b_t	d_t	decision1.corr	decision1.keys	a_t	r_t	decision2.corr	s_t	u_t	block_file
0	main_safe	True	0.0	209	0	0.0	0.0	1.0	1	right	1.0	0.0	0.0	1	0.08	blockFiles/set_32/main_safe/rightBlue\GB_RB_3.xlsx
1	main_safe	True	0.0	209	0	0.0	0.0	1.0	1	right	2.0	0.0	1.0	1	0.08	blockFiles/set_32/main_safe/rightBlue\GB_RB_3.xlsx
2	main_safe	True	0.0	209	0	0.0	0.0	0.0	1	left	1.0	1.0	1.0	0	-0.08	blockFiles/set_32/main_safe/rightBlue\GB_RB_3.xlsx
3	main_safe	True	0.0	209	0	0.0	0.0	1.0	1	right	2.0	1.0	1.0	1	0.08	blockFiles/set_32/main_safe/rightBlue\GB_RB_3.xlsx
4	main_safe	True	0.0	209	0	0.0	0.0	0.0	1	left	1.0	1.0	1.0	0	-0.08	blockFiles/set_32/main_safe/rightBlue\GB_RB_3.xlsx
5	main_safe	True	0.0	209	0	0.0	0.0	0.0	1	left	1.0	0.0	1.0	0	-0.08	blockFiles/set_32/main_safe/rightBlue\GB_RB_3.xlsx
6	main_safe	True	0.0	209	0	0.0	0.0	1.0	1	right	2.0	1.0	1.0	1	0.08	blockFiles/set_32/main_safe/rightBlue\GB_RB_3.xlsx
7	main_safe	True	0.0	209	0	0.0	0.0	0.0	1	left	1.0	1.0	1.0	0	-0.08	blockFiles/set_32/main_safe/rightBlue\GB_RB_3.xlsx
8	main_safe	True	0.0	209	0	0.0	0.0	1.0	1	right	2.0	0.0	1.0	1	0.08	blockFiles/set_32/main_safe/rightBlue\GB_RB_3.xlsx
9	main_safe	True	0.0	209	0	0.0	0.0	0.0	1	left	1.0	1.0	1.0	0	-0.08	blockFiles/set_32/main_safe/rightBlue\GB_RB_3.xlsx
10	main_safe	True	0.0	209	0	0.0	0.0	0.0	1	left	1.0	1.0	1.0	0	-0.08	blockFiles/set_32/main_safe/rightBlue\GB_RB_3.xlsx
11	main_safe	True	0.0	209	0	0.0	0.0	1.0	1	right	2.0	1.0	1.0	1	0.08	blockFiles/set_32/main_safe/rightBlue\GB_RB_3.xlsx
12	main_safe	True	0.0	209	0	0.0	0.0	0.0	1	left	1.0	1.0	1.0	0	-0.08	blockFiles/set_32/main_safe/rightBlue\GB_RB_3.xlsx
13	main_safe	True	0.0	209	0	0.0	0.0	0.0	1	left	1.0	1.0	1.0	0	-0.08	blockFiles/set_32/main_safe/rightBlue\GB_RB_3.xlsx
14	main_safe	True	0.0	209	0	0.0	0.0	1.0	1	right	2.0	1.0	1.0	1	0.08	blockFiles/set_32/main_safe/rightBlue\GB_RB_3.xlsx
15	main_safe	True	0.0	209	0	0.0	0.0	0.0	1	left	1.0	0.0	1.0	0	-0.08	blockFiles/set_32/main_safe/rightBlue\GB_RB_3.xlsx
16	main_safe	True	0.0	209	0	0.0	0.0	0.0	1	left	1.0	1.0	1.0	0	-0.08	blockFiles/set_32/main_safe/rightBlue\GB_RB_3.xlsx
17	main_safe	True	0.0	209	0	0.0	0.0	1.0	1	right	2.0	1.0	1.0	1	0.08	blockFiles/set_32/main_safe/rightBlue\GB_RB_3.xlsx
18	main_safe	True	0.0	209	0	0.0	0.0	0.0	1	left	1.0	1.0	1.0	0	-0.08	blockFiles/set_32/main_safe/rightBlue\GB_RB_3.xlsx
19	main_safe	True	0.0	209	0	0.0	0.0	1.0	1	right	2.0	1.0	1.0	1	0.08	blockFiles/set_32/main_safe/rightBlue\GB_RB_3.xlsx
20	main_safe	True	0.0	209	0	0.0	0.0	0.0	1	left	1.0	1.0	1.0	0	-0.08	blockFiles/set_32/main_safe/rightBlue\GB_RB_3.xlsx
21	main_safe	True	0.0	209	0	0.0	0.0	1.0	1	right	2.0	1.0	1.0	1	0.08	blockFiles/set_32/main_safe/rightBlue\GB_RB_3.xlsx
22	main_safe	True	0.0	209	0	0.0	0.0	0.0	1	left	1.0	1.0	1.0	0	-0.08	blockFiles/set_32/main_safe/rightBlue\GB_RB_3.xlsx
23	main_safe	True	0.0	209	0	0.0	0.0	1.0	1	right	2.0	1.0	1.0	1	0.08	blockFiles/set_32/main_safe/rightBlue\GB_RB_3.xlsx
24	main_safe	True	0.0	209	0	0.0	0.0	1.0	1	right	2.0	1.0	1.0	1	0.08	blockFiles/set_32/main_safe/rightBlue\GB_RB_3.xlsx
25	main_safe	True	0.0	209	0	1.0	1.0	0.0	1	left	1.0	0.0	0.0	0	-0.08	blockFiles/set_32/main_safe/leftBlue\GB_LB_1.xlsx
26	main_safe	True	0.0	209	0	1.0	1.0	1.0	1	right	1.0	1.0	1.0	1	0.08	blockFiles/set_32/main_safe/leftBlue\GB_LB_1.xlsx
27	main_safe	True	0.0	209	0	1.0	1.0	1.0	1	right	1.0	0.0	1.0	1	0.08	blockFiles/set_32/main_safe/leftBlue\GB_LB_1.xlsx
28	main_safe	True	0.0	209	0	1.0	1.0	1.0	1	right	1.0	1.0	1.0	1	0.08	blockFiles/set_32/main_safe/leftBlue\GB_LB_1.xlsx
29	main_safe	True	0.0	209	0	1.0	1.0	0.0	1	left	2.0	1.0	1.0	0	-0.08	blockFiles/set_32/main_safe/leftBlue\GB_LB_1.xlsx
30	main_safe	True	0.0	209	0	1.0	1.0	0.0	1	left	2.0	1.0	1.0	0	-0.08	blockFiles/set_32/main_safe/leftBlue\GB_LB_1.xlsx
31	main_safe	True	0.0	209	0	1.0	1.0	0.0	1	left	2.0	1.0	1.0	0	-0.08	blockFiles/set_32/main_safe/leftBlue\GB_LB_1.xlsx
32	main_safe	True	0.0	209	0	1.0	1.0	0.0	1	left	2.0	1.0	1.0	0	-0.08	blockFiles/set_32/main_safe/leftBlue\GB_LB_1.xlsx
33	main_safe	True	0.0	209	0	1.0	1.0	0.0	1	left	2.0	0.0	1.0	0	-0.08	blockFiles/set_32/main_safe/leftBlue\GB_LB_1.xlsx
34	main_safe	True	0.0	209	0	1.0	1.0	0.0	1	left	2.0	1.0	1.0	0	-0.08	blockFiles/set_32/main_safe/leftBlue\GB_LB_1.xlsx
35	main_safe	True	0.0	209	0	1.0	1.0	0.0	1	left	2.0	1.0	1.0	0	-0.08	blockFiles/set_32/main_safe/leftBlue\GB_LB_1.xlsx
36	main_safe	True	0.0	209	0	1.0	1.0	1.0	1	right	1.0	1.0	1.0	1	0.08	blockFiles/set_32/main_safe/leftBlue\GB_LB_1.xlsx
37	main_safe	True	0.0	209	0	1.0	1.0	0.0	1	left	2.0	1.0	1.0	0	-0.08	blockFiles/set_32/main_safe/leftBlue\GB_LB_1.xlsx
38	main_safe	True	0.0	209	0	1.0	1.0	0.0	1	left	2.0	1.0	1.0	0	-0.08	blockFiles/set_32/main_safe/leftBlue\GB_LB_1.xlsx
39	main_safe	True	0.0	209	0	1.0	1.0	0.0	1	left	2.0	0.0	1.0	0	-0.08	blockFiles/set_32/main_safe/leftBlue\GB_LB_1.xlsx
40	main_safe	True	0.0	209	0	1.0	1.0	1.0	1	right	1.0	1.0	1.0	1	0.08	blockFiles/set_32/main_safe/leftBlue\GB_LB_1.xlsx
41	main_safe	True	0.0	209	0	1.0	1.0	0.0	1	left	2.0	1.0	1.0	0	-0.08	blockFiles/set_32/main_safe/leftBlue\GB_LB_1.xlsx
42	main_safe	True	0.0	209	0	1.0	1.0	1.0	1	right	1.0	1.0	1.0	1	0.08	blockFiles/set_32/main_safe/leftBlue\GB_LB_1.xlsx
43	main_safe	True	0.0	209	0	1.0	1.0	1.0	1	right	1.0	0.0	1.0	1	0.08	blockFiles/set_32/main_safe/leftBlue\GB_LB_1.xlsx
44	main_safe	True	0.0	209	0	1.0	1.0	1.0	1	right	1.0	1.0	1.0	1	0.08	blockFiles/set_32/main_safe/leftBlue\GB_LB_1.xlsx
45	main_safe	True	0.0	209	0	1.0	1.0	1.0	1	right	1.0	1.0	1.0	1	0.08	blockFiles/set_32/main_safe/leftBlue\GB_LB_1.xlsx
46	main_safe	True	0.0	209	0	1.0	1.0	1.0	1	right	1.0	1.0	1.0	1	0.08	blockFiles/set_32/main_safe/leftBlue\GB_LB_1.xlsx
47	main_safe	True	0.0	209	0	1.0	1.0	1.0	1	right	1.0	1.0	1.0	1	0.08	blockFiles/set_32/main_safe/leftBlue\GB_LB_1.xlsx
48	main_safe	True	0.0	209	0	1.0	1.0	1.0	1	right	1.0	1.0	1.0	1	0.08	blockFiles/set_32/main_safe/leftBlue\GB_LB_1.xlsx
49	main_safe	True	0.0	209	0	1.0	1.0	1.0	1	right	1.0	1.0	1.0	1	0.08	blockFiles/set_32/main_safe/leftBlue\GB_LB_1.xlsx
50	main_safe	True	0.0	209	0	2.0	2.0	0.0	1	left	2.0	1.0	0.0	0	-0.08	blockFiles/set_32/main_safe/rightBlue\GB_RB_2.xlsx
51	main_safe	True	0.0	209	0	2.0	2.0	0.0	1	left	2.0	0.0	0.0	0	-0.08	blockFiles/set_32/main_safe/rightBlue\GB_RB_2.xlsx
52	main_safe	True	0.0	209	0	2.0	2.0	0.0	1	left	2.0	0.0	0.0	0	-0.08	blockFiles/set_32/main_safe/rightBlue\GB_RB_2.xlsx
53	main_safe	True	0.0	209	0	2.0	2.0	1.0	1	right	2.0	1.0	1.0	1	0.08	blockFiles/set_32/main_safe/rightBlue\GB_RB_2.xlsx
54	main_safe	True	0.0	209	0	2.0	2.0	1.0	1	right	2.0	1.0	1.0	1	0.08	blockFiles/set_32/main_safe/rightBlue\GB_RB_2.xlsx
55	main_safe	True	0.0	209	0	2.0	2.0	0.0	1	left	1.0	1.0	1.0	0	-0.08	blockFiles/set_32/main_safe/rightBlue\GB_RB_2.xlsx
56	main_safe	True	0.0	209	0	2.0	2.0	0.0	1	left	1.0	1.0	1.0	0	-0.08	blockFiles/set_32/main_safe/rightBlue\GB_RB_2.xlsx
57	main_safe	True	0.0	209	0	2.0	2.0	1.0	1	right	2.0	1.0	1.0	1	0.08	blockFiles/set_32/main_safe/rightBlue\GB_RB_2.xlsx
58	main_safe	True	0.0	209	0	2.0	2.0	1.0	1	right	2.0	1.0	1.0	1	0.08	blockFiles/set_32/main_safe/rightBlue\GB_RB_2.xlsx
59	main_safe	True	0.0	209	0	2.0	2.0	1.0	1	right	2.0	1.0	1.0	1	0.08	blockFiles/set_32/main_safe/rightBlue\GB_RB_2.xlsx
60	main_safe	True	0.0	209	0	2.0	2.0	0.0	1	left	1.0	1.0	1.0	0	-0.08	blockFiles/set_32/main_safe/rightBlue\GB_RB_2.xlsx
61	main_safe	True	0.0	209	0	2.0	2.0	1.0	1	right	2.0	1.0	1.0	1	0.08	blockFiles/set_32/main_safe/rightBlue\GB_RB_2.xlsx
62	main_safe	True	0.0	209	0	2.0	2.0	1.0	1	right	2.0	0.0	1.0	1	0.08	blockFiles/set_32/main_safe/rightBlue\GB_RB_2.xlsx
63	main_safe	True	0.0	209	0	2.0	2.0	1.0	1	right	2.0	1.0	1.0	1	0.08	blockFiles/set_32/main_safe/rightBlue\GB_RB_2.xlsx
64	main_safe	True	0.0	209	0	2.0	2.0	0.0	1	left	1.0	1.0	1.0	0	-0.08	blockFiles/set_32/main_safe/rightBlue\GB_RB_2.xlsx
65	main_safe	True	0.0	209	0	2.0	2.0	0.0	1	left	1.0	1.0	1.0	0	-0.08	blockFiles/set_32/main_safe/rightBlue\GB_RB_2.xlsx
66	main_safe	True	0.0	209	0	2.0	2.0	0.0	1	left	1.0	1.0	1.0	0	-0.08	blockFiles/set_32/main_safe/rightBlue\GB_RB_2.xlsx
67	main_safe	True	0.0	209	0	2.0	2.0	0.0	1	left	1.0	0.0	1.0	0	-0.08	blockFiles/set_32/main_safe/rightBlue\GB_RB_2.xlsx
68	main_safe	True	0.0	209	0	2.0	2.0	1.0	1	right	2.0	0.0	1.0	1	0.08	blockFiles/set_32/main_safe/rightBlue\GB_RB_2.xlsx
69	main_safe	True	0.0	209	0	2.0	2.0	1.0	1	right	2.0	1.0	1.0	1	0.08	blockFiles/set_32/main_safe/rightBlue\GB_RB_2.xlsx
70	main_safe	True	0.0	209	0	2.0	2.0	1.0	1	right	2.0	0.0	1.0	1	0.08	blockFiles/set_32/main_safe/rightBlue\GB_RB_2.xlsx
71	main_safe	True	0.0	209	0	2.0	2.0	0.0	1	left	1.0	1.0	1.0	0	-0.08	blockFiles/set_32/main_safe/rightBlue\GB_RB_2.xlsx
72	main_safe	True	0.0	209	0	2.0	2.0	0.0	1	left	1.0	0.0	1.0	0	-0.08	blockFiles/set_32/main_safe/rightBlue\GB_RB_2.xlsx
73	main_safe	True	0.0	209	0	2.0	2.0	0.0	1	left	1.0	1.0	1.0	0	-0.08	blockFiles/set_32/main_safe/rightBlue\GB_RB_2.xlsx
74	main_safe	True	0.0	209	0	2.0	2.0	1.0	1	right	2.0	1.0	1.0	1	0.08	blockFiles/set_32/main_safe/rightBlue\GB_RB_2.xlsx
75	main_safe	True	0.0	209	0	3.0	3.0	0.0	1	left	1.0	1.0	0.0	0	-0.08	blockFiles/set_32/main_safe/leftBlue\GB_LB_2.xlsx
76	main_safe	True	0.0	209	0	3.0	3.0	1.0	1	right	2.0	0.0	0.0	1	0.08	blockFiles/set_32/main_safe/leftBlue\GB_LB_2.xlsx
77	main_safe	True	0.0	209	0	3.0	3.0	1.0	1	right	1.0	1.0	1.0	1	0.08	blockFiles/set_32/main_safe/leftBlue\GB_LB_2.xlsx
78	main_safe	True	0.0	209	0	3.0	3.0	1.0	1	right	1.0	0.0	1.0	1	0.08	blockFiles/set_32/main_safe/leftBlue\GB_LB_2.xlsx
79	main_safe	True	0.0	209	0	3.0	3.0	1.0	1	right	1.0	1.0	1.0	1	0.08	blockFiles/set_32/main_safe/leftBlue\GB_LB_2.xlsx
80	main_safe	True	0.0	209	0	3.0	3.0	1.0	1	right	1.0	1.0	1.0	1	0.08	blockFiles/set_32/main_safe/leftBlue\GB_LB_2.xlsx
81	main_safe	True	0.0	209	0	3.0	3.0	0.0	1	left	2.0	1.0	1.0	0	-0.08	blockFiles/set_32/main_safe/leftBlue\GB_LB_2.xlsx
82	main_safe	True	0.0	209	0	3.0	3.0	1.0	1	right	1.0	1.0	1.0	1	0.08	blockFiles/set_32/main_safe/leftBlue\GB_LB_2.xlsx
83	main_safe	True	0.0	209	0	3.0	3.0	0.0	1	left	2.0	1.0	1.0	0	-0.08	blockFiles/set_32/main_safe/leftBlue\GB_LB_2.xlsx
84	main_safe	True	0.0	209	0	3.0	3.0	1.0	1	right	1.0	1.0	1.0	1	0.08	blockFiles/set_32/main_safe/leftBlue\GB_LB_2.xlsx
85	main_safe	True	0.0	209	0	3.0	3.0	0.0	1	left	2.0	1.0	1.0	0	-0.08	blockFiles/set_32/main_safe/leftBlue\GB_LB_2.xlsx
86	main_safe	True	0.0	209	0	3.0	3.0	1.0	1	right	1.0	1.0	1.0	1	0.08	blockFiles/set_32/main_safe/leftBlue\GB_LB_2.xlsx
87	main_safe	True	0.0	209	0	3.0	3.0	0.0	1	left	2.0	1.0	1.0	0	-0.08	blockFiles/set_32/main_safe/leftBlue\GB_LB_2.xlsx
88	main_safe	True	0.0	209	0	3.0	3.0	0.0	1	left	1.0	1.0	0.0	0	-0.08	blockFiles/set_32/main_safe/leftBlue\GB_LB_2.xlsx
89	main_safe	True	0.0	209	0	3.0	3.0	1.0	1	right	2.0	1.0	0.0	1	0.08	blockFiles/set_32/main_safe/leftBlue\GB_LB_2.xlsx
90	main_safe	True	0.0	209	0	3.0	3.0	0.0	1	left	1.0	0.0	0.0	0	-0.08	blockFiles/set_32/main_safe/leftBlue\GB_LB_2.xlsx
91	main_safe	True	0.0	209	0	3.0	3.0	0.0	1	left	1.0	1.0	0.0	0	-0.08	blockFiles/set_32/main_safe/leftBlue\GB_LB_2.xlsx
92	main_safe	True	0.0	209	0	3.0	3.0	1.0	1	right	2.0	0.0	0.0	1	0.08	blockFiles/set_32/main_safe/leftBlue\GB_LB_2.xlsx
93	main_safe	True	1.0	209	0	3.0	3.0	0.0	1	left	n/a	0.0	n/a	0	-0.08	blockFiles/set_32/main_safe/leftBlue\GB_LB_2.xlsx
94	main_safe	True	0.0	209	0	3.0	3.0	1.0	1	right	1.0	0.0	1.0	1	0.08	blockFiles/set_32/main_safe/leftBlue\GB_LB_2.xlsx
95	main_safe	True	0.0	209	0	3.0	3.0	0.0	1	left	2.0	1.0	1.0	0	-0.08	blockFiles/set_32/main_safe/leftBlue\GB_LB_2.xlsx
96	main_safe	True	0.0	209	0	3.0	3.0	0.0	1	left	2.0	1.0	1.0	0	-0.08	blockFiles/set_32/main_safe/leftBlue\GB_LB_2.xlsx
97	main_safe	True	0.0	209	0	3.0	3.0	0.0	1	left	2.0	1.0	1.0	0	-0.08	blockFiles/set_32/main_safe/leftBlue\GB_LB_2.xlsx
98	main_safe	True	0.0	209	0	3.0	3.0	1.0	1	right	1.0	1.0	1.0	1	0.08	blockFiles/set_32/main_safe/leftBlue\GB_LB_2.xlsx
99	main_safe	True	0.0	209	0	3.0	3.0	1.0	1	right	1.0	1.0	1.0	1	0.08	blockFiles/set_32/main_safe/leftBlue\GB_LB_2.xlsx
100	main_safe	True	0.0	209	0	3.0	3.0	0.0	1	left	2.0	1.0	1.0	0	-0.08	blockFiles/set_32/main_safe/leftBlue\GB_LB_2.xlsx
101	main_safe	True	0.0	209	0	4.0	4.0	1.0	1	right	2.0	1.0	1.0	1	0.08	blockFiles/set_32/main_safe/rightBlue\GB_RB_1.xlsx
102	main_safe	True	0.0	209	0	4.0	4.0	1.0	1	right	2.0	1.0	1.0	1	0.08	blockFiles/set_32/main_safe/rightBlue\GB_RB_1.xlsx
103	main_safe	True	0.0	209	0	4.0	4.0	0.0	1	left	1.0	1.0	1.0	0	-0.08	blockFiles/set_32/main_safe/rightBlue\GB_RB_1.xlsx
104	main_safe	True	0.0	209	0	4.0	4.0	1.0	1	right	2.0	0.0	1.0	1	0.08	blockFiles/set_32/main_safe/rightBlue\GB_RB_1.xlsx
105	main_safe	True	0.0	209	0	4.0	4.0	0.0	1	left	1.0	1.0	1.0	0	-0.08	blockFiles/set_32/main_safe/rightBlue\GB_RB_1.xlsx
106	main_safe	True	0.0	209	0	4.0	4.0	1.0	1	right	2.0	1.0	1.0	1	0.08	blockFiles/set_32/main_safe/rightBlue\GB_RB_1.xlsx
107	main_safe	True	0.0	209	0	4.0	4.0	0.0	1	left	1.0	0.0	1.0	0	-0.08	blockFiles/set_32/main_safe/rightBlue\GB_RB_1.xlsx
108	main_safe	True	0.0	209	0	4.0	4.0	0.0	1	left	1.0	1.0	1.0	0	-0.08	blockFiles/set_32/main_safe/rightBlue\GB_RB_1.xlsx
109	main_safe	True	0.0	209	0	4.0	4.0	0.0	1	left	1.0	1.0	1.0	0	-0.08	blockFiles/set_32/main_safe/rightBlue\GB_RB_1.xlsx
110	main_safe	True	0.0	209	0	4.0	4.0	1.0	1	right	2.0	1.0	1.0	1	0.08	blockFiles/set_32/main_safe/rightBlue\GB_RB_1.xlsx
111	main_safe	True	1.0	209	0	4.0	4.0	0.0	1	left	n/a	0.0	n/a	0	-0.08	blockFiles/set_32/main_safe/rightBlue\GB_RB_1.xlsx
112	main_safe	True	0.0	209	0	4.0	4.0	1.0	1	right	2.0	1.0	1.0	1	0.08	blockFiles/set_32/main_safe/rightBlue\GB_RB_1.xlsx
113	main_safe	True	0.0	209	0	4.0	4.0	1.0	1	right	2.0	0.0	1.0	1	0.08	blockFiles/set_32/main_safe/rightBlue\GB_RB_1.xlsx
114	main_safe	True	0.0	209	0	4.0	4.0	0.0	1	left	1.0	1.0	1.0	0	-0.08	blockFiles/set_32/main_safe/rightBlue\GB_RB_1.xlsx
115	main_safe	True	0.0	209	0	4.0	4.0	1.0	1	right	2.0	1.0	1.0	1	0.08	blockFiles/set_32/main_safe/rightBlue\GB_RB_1.xlsx
116	main_safe	True	0.0	209	0	4.0	4.0	0.0	1	left	1.0	1.0	1.0	0	-0.08	blockFiles/set_32/main_safe/rightBlue\GB_RB_1.xlsx
117	main_safe	True	0.0	209	0	4.0	4.0	0.0	1	left	1.0	1.0	1.0	0	-0.08	blockFiles/set_32/main_safe/rightBlue\GB_RB_1.xlsx
118	main_safe	True	0.0	209	0	4.0	4.0	0.0	1	left	1.0	1.0	1.0	0	-0.08	blockFiles/set_32/main_safe/rightBlue\GB_RB_1.xlsx
119	main_safe	True	0.0	209	0	4.0	4.0	1.0	1	right	2.0	0.0	1.0	1	0.08	blockFiles/set_32/main_safe/rightBlue\GB_RB_1.xlsx
120	main_safe	True	0.0	209	0	4.0	4.0	1.0	1	right	2.0	1.0	1.0	1	0.08	blockFiles/set_32/main_safe/rightBlue\GB_RB_1.xlsx
121	main_safe	True	0.0	209	0	4.0	4.0	1.0	1	right	1.0	0.0	0.0	1	0.08	blockFiles/set_32/main_safe/rightBlue\GB_RB_1.xlsx
122	main_safe	True	0.0	209	0	4.0	4.0	1.0	1	right	2.0	1.0	1.0	1	0.08	blockFiles/set_32/main_safe/rightBlue\GB_RB_1.xlsx
123	main_safe	True	0.0	209	0	4.0	4.0	0.0	1	left	1.0	1.0	1.0	0	-0.08	blockFiles/set_32/main_safe/rightBlue\GB_RB_1.xlsx
124	main_safe	True	0.0	209	0	4.0	4.0	0.0	1	left	1.0	1.0	1.0	0	-0.08	blockFiles/set_32/main_safe/rightBlue\GB_RB_1.xlsx
125	main_safe	True	0.0	209	0	4.0	4.0	1.0	1	right	2.0	1.0	1.0	1	0.08	blockFiles/set_32/main_safe/rightBlue\GB_RB_1.xlsx
126	main_safe	True	0.0	209	0	4.0	4.0	0.0	1	left	1.0	1.0	1.0	0	-0.08	blockFiles/set_32/main_safe/rightBlue\GB_RB_1.xlsx
127	main_safe	True	0.0	209	0	5.0	5.0	0.0	1	left	2.0	1.0	1.0	0	-0.08	blockFiles/set_32/main_safe/leftBlue\GB_LB_3.xlsx
128	main_safe	True	0.0	209	0	5.0	5.0	1.0	1	right	1.0	1.0	1.0	1	0.08	blockFiles/set_32/main_safe/leftBlue\GB_LB_3.xlsx
129	main_safe	True	0.0	209	0	5.0	5.0	0.0	1	left	2.0	1.0	1.0	0	-0.08	blockFiles/set_32/main_safe/leftBlue\GB_LB_3.xlsx
130	main_safe	True	0.0	209	0	5.0	5.0	0.0	1	left	2.0	1.0	1.0	0	-0.08	blockFiles/set_32/main_safe/leftBlue\GB_LB_3.xlsx
131	main_safe	True	0.0	209	0	5.0	5.0	1.0	1	right	1.0	1.0	1.0	1	0.08	blockFiles/set_32/main_safe/leftBlue\GB_LB_3.xlsx
132	main_safe	True	0.0	209	0	5.0	5.0	1.0	1	right	1.0	1.0	1.0	1	0.08	blockFiles/set_32/main_safe/leftBlue\GB_LB_3.xlsx
133	main_safe	True	0.0	209	0	5.0	5.0	0.0	1	left	2.0	1.0	1.0	0	-0.08	blockFiles/set_32/main_safe/leftBlue\GB_LB_3.xlsx
134	main_safe	True	0.0	209	0	5.0	5.0	1.0	1	right	1.0	1.0	1.0	1	0.08	blockFiles/set_32/main_safe/leftBlue\GB_LB_3.xlsx
135	main_safe	True	0.0	209	0	5.0	5.0	0.0	1	left	2.0	1.0	1.0	0	-0.08	blockFiles/set_32/main_safe/leftBlue\GB_LB_3.xlsx
136	main_safe	True	0.0	209	0	5.0	5.0	1.0	1	right	1.0	1.0	1.0	1	0.08	blockFiles/set_32/main_safe/leftBlue\GB_LB_3.xlsx
137	main_safe	True	0.0	209	0	5.0	5.0	0.0	1	left	2.0	1.0	1.0	0	-0.08	blockFiles/set_32/main_safe/leftBlue\GB_LB_3.xlsx
138	main_safe	True	0.0	209	0	5.0	5.0	0.0	1	left	2.0	1.0	1.0	0	-0.08	blockFiles/set_32/main_safe/leftBlue\GB_LB_3.xlsx
139	main_safe	True	0.0	209	0	5.0	5.0	0.0	1	left	2.0	1.0	1.0	0	-0.08	blockFiles/set_32/main_safe/leftBlue\GB_LB_3.xlsx
140	main_safe	True	0.0	209	0	5.0	5.0	1.0	1	right	1.0	1.0	1.0	1	0.08	blockFiles/set_32/main_safe/leftBlue\GB_LB_3.xlsx
141	main_safe	True	0.0	209	0	5.0	5.0	1.0	1	right	1.0	0.0	1.0	1	0.08	blockFiles/set_32/main_safe/leftBlue\GB_LB_3.xlsx
142	main_safe	True	0.0	209	0	5.0	5.0	1.0	1	right	1.0	1.0	1.0	1	0.08	blockFiles/set_32/main_safe/leftBlue\GB_LB_3.xlsx
143	main_safe	True	0.0	209	0	5.0	5.0	0.0	1	left	2.0	0.0	1.0	0	-0.08	blockFiles/set_32/main_safe/leftBlue\GB_LB_3.xlsx
144	main_safe	True	0.0	209	0	5.0	5.0	0.0	1	left	2.0	1.0	1.0	0	-0.08	blockFiles/set_32/main_safe/leftBlue\GB_LB_3.xlsx
145	main_safe	True	0.0	209	0	5.0	5.0	1.0	1	right	1.0	1.0	1.0	1	0.08	blockFiles/set_32/main_safe/leftBlue\GB_LB_3.xlsx
146	main_safe	True	0.0	209	0	5.0	5.0	0.0	1	left	2.0	1.0	1.0	0	-0.08	blockFiles/set_32/main_safe/leftBlue\GB_LB_3.xlsx
147	main_safe	True	0.0	209	0	5.0	5.0	0.0	1	left	2.0	0.0	1.0	0	-0.08	blockFiles/set_32/main_safe/leftBlue\GB_LB_3.xlsx
148	main_safe	True	0.0	209	0	5.0	5.0	1.0	1	right	1.0	1.0	1.0	1	0.08	blockFiles/set_32/main_safe/leftBlue\GB_LB_3.xlsx
149	main_safe	True	0.0	209	0	5.0	5.0	0.0	1	left	2.0	0.0	1.0	0	-0.08	blockFiles/set_32/main_safe/leftBlue\GB_LB_3.xlsx
150	main_safe	True	0.0	209	0	5.0	5.0	1.0	1	right	1.0	1.0	1.0	1	0.08	blockFiles/set_32/main_safe/leftBlue\GB_LB_3.xlsx
151	main_safe	True	0.0	209	0	5.0	5.0	0.0	1	left	2.0	1.0	1.0	0	-0.08	blockFiles/set_32/main_safe/leftBlue\GB_LB_3.xlsx
152	patches	True	n/a	209	0	n/a	n/a	1.0	0	right	n/a	n/a	n/a	0	-0.010943503473	blockFiles/set_32/main_PD/GB_runPatches1.xlsx
153	patches	True	n/a	209	0	n/a	n/a	1.0	1	right	n/a	n/a	n/a	1	0.0139805924706	blockFiles/set_32/main_PD/GB_runPatches1.xlsx
154	patches	True	n/a	209	0	n/a	n/a	1.0	1	right	n/a	n/a	n/a	1	0.025912841409400002	blockFiles/set_32/main_PD/GB_runPatches1.xlsx
155	patches	True	n/a	209	0	n/a	n/a	0.0	1	left	n/a	n/a	n/a	0	-0.033325953409099995	blockFiles/set_32/main_PD/GB_runPatches1.xlsx
156	patches	True	n/a	209	0	n/a	n/a	1.0	1	right	n/a	n/a	n/a	1	0.0441054849885	blockFiles/set_32/main_PD/GB_runPatches1.xlsx
157	patches	True	n/a	209	0	n/a	n/a	1.0	0	right	n/a	n/a	n/a	0	-0.0243961227685	blockFiles/set_32/main_PD/GB_runPatches1.xlsx
158	patches	True	n/a	209	0	n/a	n/a	0.0	1	left	n/a	n/a	n/a	0	-0.0364250456728	blockFiles/set_32/main_PD/GB_runPatches1.xlsx
159	patches	True	n/a	209	0	n/a	n/a	0.0	1	left	n/a	n/a	n/a	0	-0.0561215732805	blockFiles/set_32/main_PD/GB_runPatches1.xlsx
160	patches	True	n/a	209	0	n/a	n/a	0.0	1	left	n/a	n/a	n/a	0	-0.04512749111280001	blockFiles/set_32/main_PD/GB_runPatches1.xlsx
161	patches	True	n/a	209	0	n/a	n/a	1.0	1	right	n/a	n/a	n/a	1	0.011783205606	blockFiles/set_32/main_PD/GB_runPatches1.xlsx
162	patches	True	n/a	209	0	n/a	n/a	n/a	0	None	n/a	n/a	n/a	1	0.00529955973849	blockFiles/set_32/main_PD/GB_runPatches1.xlsx
163	patches	True	n/a	209	0	n/a	n/a	1.0	1	right	n/a	n/a	n/a	1	0.0463967470638	blockFiles/set_32/main_PD/GB_runPatches1.xlsx
164	patches	True	n/a	209	0	n/a	n/a	0.0	1	left	n/a	n/a	n/a	0	-0.041208515986800004	blockFiles/set_32/main_PD/GB_runPatches1.xlsx
165	patches	True	n/a	209	0	n/a	n/a	n/a	0	None	n/a	n/a	n/a	0	-0.0103079208173	blockFiles/set_32/main_PD/GB_runPatches1.xlsx
166	patches	True	n/a	209	0	n/a	n/a	0.0	1	left	n/a	n/a	n/a	0	-0.0383820715547	blockFiles/set_32/main_PD/GB_runPatches1.xlsx
167	patches	True	n/a	209	0	n/a	n/a	1.0	1	right	n/a	n/a	n/a	1	0.0611139105074	blockFiles/set_32/main_PD/GB_runPatches1.xlsx
168	patches	True	n/a	209	0	n/a	n/a	1.0	1	right	n/a	n/a	n/a	1	0.0391091866605	blockFiles/set_32/main_PD/GB_runPatches1.xlsx
169	patches	True	n/a	209	0	n/a	n/a	1.0	1	right	n/a	n/a	n/a	1	0.072318023555	blockFiles/set_32/main_PD/GB_runPatches1.xlsx
170	patches	True	n/a	209	0	n/a	n/a	1.0	1	right	n/a	n/a	n/a	1	0.0223391157761	blockFiles/set_32/main_PD/GB_runPatches1.xlsx
171	patches	True	n/a	209	0	n/a	n/a	1.0	0	right	n/a	n/a	n/a	0	-0.029923186562999998	blockFiles/set_32/main_PD/GB_runPatches1.xlsx
172	patches	True	n/a	209	0	n/a	n/a	1.0	1	right	n/a	n/a	n/a	1	0.05606804799290001	blockFiles/set_32/main_PD/GB_runPatches1.xlsx
173	patches	True	n/a	209	0	n/a	n/a	0.0	1	left	n/a	n/a	n/a	0	-0.0682620763965	blockFiles/set_32/main_PD/GB_runPatches1.xlsx
174	patches	True	n/a	209	0	n/a	n/a	1.0	1	right	n/a	n/a	n/a	1	0.0390646269359	blockFiles/set_32/main_PD/GB_runPatches1.xlsx
175	patches	True	n/a	209	0	n/a	n/a	1.0	1	right	n/a	n/a	n/a	1	0.00726470377296	blockFiles/set_32/main_PD/GB_runPatches1.xlsx
176	patches	True	n/a	209	0	n/a	n/a	1.0	0	right	n/a	n/a	n/a	0	-0.00819053871557	blockFiles/set_32/main_PD/GB_runPatches1.xlsx
177	patches	True	n/a	209	0	n/a	n/a	1.0	1	right	n/a	n/a	n/a	1	0.0671375640482	blockFiles/set_32/main_PD/GB_runPatches1.xlsx
178	patches	True	n/a	209	0	n/a	n/a	0.0	1	left	n/a	n/a	n/a	0	-0.0677979995683	blockFiles/set_32/main_PD/GB_runPatches1.xlsx
179	patches	True	n/a	209	0	n/a	n/a	0.0	0	left	n/a	n/a	n/a	1	0.00220436276868	blockFiles/set_32/main_PD/GB_runPatches1.xlsx
180	patches	True	n/a	209	0	n/a	n/a	0.0	0	left	n/a	n/a	n/a	1	0.030506293289400004	blockFiles/set_32/main_PD/GB_runPatches1.xlsx
181	patches	True	n/a	209	0	n/a	n/a	1.0	1	right	n/a	n/a	n/a	1	0.0797419688851	blockFiles/set_32/main_PD/GB_runPatches1.xlsx
182	patches	True	n/a	209	0	n/a	n/a	1.0	0	right	n/a	n/a	n/a	0	-0.0390313075855	blockFiles/set_32/main_PD/GB_runPatches1.xlsx
183	patches	True	n/a	209	0	n/a	n/a	0.0	0	left	n/a	n/a	n/a	1	0.0380160231516	blockFiles/set_32/main_PD/GB_runPatches1.xlsx
184	patches	True	n/a	209	0	n/a	n/a	0.0	1	left	n/a	n/a	n/a	0	-0.074478701856	blockFiles/set_32/main_PD/GB_runPatches1.xlsx
185	patches	True	n/a	209	0	n/a	n/a	0.0	1	left	n/a	n/a	n/a	0	-0.025928470268799998	blockFiles/set_32/main_PD/GB_runPatches1.xlsx
186	patches	True	n/a	209	0	n/a	n/a	1.0	1	right	n/a	n/a	n/a	1	0.016634284816700002	blockFiles/set_32/main_PD/GB_runPatches1.xlsx
187	patches	True	n/a	209	0	n/a	n/a	1.0	1	right	n/a	n/a	n/a	1	0.0338122623228	blockFiles/set_32/main_PD/GB_runPatches1.xlsx
188	patches	True	n/a	209	0	n/a	n/a	0.0	0	left	n/a	n/a	n/a	1	0.020233654249499997	blockFiles/set_32/main_PD/GB_runPatches1.xlsx
189	patches	True	n/a	209	0	n/a	n/a	0.0	1	left	n/a	n/a	n/a	0	-0.0457856350765	blockFiles/set_32/main_PD/GB_runPatches1.xlsx
190	patches	True	n/a	209	0	n/a	n/a	n/a	0	None	n/a	n/a	n/a	1	0.0201364694163	blockFiles/set_32/main_PD/GB_runPatches1.xlsx
191	patches	True	n/a	209	0	n/a	n/a	0.0	1	left	n/a	n/a	n/a	0	-0.0667854651995	blockFiles/set_32/main_PD/GB_runPatches1.xlsx
192	patches	True	n/a	209	0	n/a	n/a	0.0	1	left	n/a	n/a	n/a	0	-0.0371812088601	blockFiles/set_32/main_PD/GB_runPatches1.xlsx
193	patches	True	n/a	209	0	n/a	n/a	1.0	1	right	n/a	n/a	n/a	1	0.0685863698274	blockFiles/set_32/main_PD/GB_runPatches1.xlsx
194	patches	True	n/a	209	0	n/a	n/a	0.0	0	left	n/a	n/a	n/a	1	0.0042370980978	blockFiles/set_32/main_PD/GB_runPatches1.xlsx
195	patches	True	n/a	209	0	n/a	n/a	1.0	0	right	n/a	n/a	n/a	0	-0.000432073306292	blockFiles/set_32/main_PD/GB_runPatches1.xlsx
196	patches	True	n/a	209	0	n/a	n/a	1.0	0	right	n/a	n/a	n/a	0	-0.0267541285232	blockFiles/set_32/main_PD/GB_runPatches1.xlsx
197	patches	True	n/a	209	0	n/a	n/a	0.0	1	left	n/a	n/a	n/a	0	-0.038749271500900004	blockFiles/set_32/main_PD/GB_runPatches1.xlsx
198	patches	True	n/a	209	0	n/a	n/a	1.0	1	right	n/a	n/a	n/a	1	0.0739272370934	blockFiles/set_32/main_PD/GB_runPatches1.xlsx
199	patches	True	n/a	209	0	n/a	n/a	0.0	1	left	n/a	n/a	n/a	0	-0.0464460670762	blockFiles/set_32/main_PD/GB_runPatches1.xlsx
200	patches	True	n/a	209	0	n/a	n/a	0.0	1	left	n/a	n/a	n/a	0	-0.034129092861	blockFiles/set_32/main_PD/GB_runPatches1.xlsx
201	patches	True	n/a	209	0	n/a	n/a	1.0	0	right	n/a	n/a	n/a	0	-0.0252946632914	blockFiles/set_32/main_PD/GB_runPatches1.xlsx
202	patches	True	n/a	209	0	n/a	n/a	0.0	1	left	n/a	n/a	n/a	0	-0.0318593742326	blockFiles/set_32/main_PD/GB_runPatches1.xlsx
203	patches	True	n/a	209	0	n/a	n/a	0.0	1	left	n/a	n/a	n/a	0	-0.0711802227236	blockFiles/set_32/main_PD/GB_runPatches1.xlsx
204	patches	True	n/a	209	0	n/a	n/a	0.0	1	left	n/a	n/a	n/a	0	-0.04703057684	blockFiles/set_32/main_PD/GB_runPatches1.xlsx
205	patches	True	n/a	209	0	n/a	n/a	1.0	1	right	n/a	n/a	n/a	1	0.0276900890656	blockFiles/set_32/main_PD/GB_runPatches1.xlsx
206	patches	True	n/a	209	0	n/a	n/a	1.0	1	right	n/a	n/a	n/a	1	0.0025684882327900002	blockFiles/set_32/main_PD/GB_runPatches1.xlsx
207	patches	True	n/a	209	0	n/a	n/a	n/a	0	None	n/a	n/a	n/a	0	-0.0307508405298	blockFiles/set_32/main_PD/GB_runPatches1.xlsx
208	patches	True	n/a	209	0	n/a	n/a	0.0	1	left	n/a	n/a	n/a	0	-0.0305496968701	blockFiles/set_32/main_PD/GB_runPatches1.xlsx
209	patches	True	n/a	209	0	n/a	n/a	0.0	1	left	n/a	n/a	n/a	0	-0.0532438029349	blockFiles/set_32/main_PD/GB_runPatches1.xlsx
210	patches	True	n/a	209	0	n/a	n/a	0.0	1	left	n/a	n/a	n/a	0	-0.0187051790021	blockFiles/set_32/main_PD/GB_runPatches1.xlsx
211	patches	True	n/a	209	0	n/a	n/a	0.0	1	left	n/a	n/a	n/a	0	-0.037418045364300004	blockFiles/set_32/main_PD/GB_runPatches1.xlsx
212	patches	True	n/a	209	0	n/a	n/a	0.0	1	left	n/a	n/a	n/a	0	-0.0650874207541	blockFiles/set_32/main_PD/GB_runPatches1.xlsx
213	patches	True	n/a	209	0	n/a	n/a	1.0	1	right	n/a	n/a	n/a	1	0.039749723989499997	blockFiles/set_32/main_PD/GB_runPatches1.xlsx
214	patches	True	n/a	209	0	n/a	n/a	1.0	1	right	n/a	n/a	n/a	1	0.0417977494746	blockFiles/set_32/main_PD/GB_runPatches1.xlsx
215	patches	True	n/a	209	0	n/a	n/a	0.0	0	left	n/a	n/a	n/a	1	0.0421258410066	blockFiles/set_32/main_PD/GB_runPatches1.xlsx
216	patches	True	n/a	209	0	n/a	n/a	0.0	1	left	n/a	n/a	n/a	0	-0.07120251631360001	blockFiles/set_32/main_PD/GB_runPatches1.xlsx
217	patches	True	n/a	209	0	n/a	n/a	1.0	1	right	n/a	n/a	n/a	1	0.0022503640689	blockFiles/set_32/main_PD/GB_runPatches1.xlsx
218	patches	True	n/a	209	0	n/a	n/a	0.0	0	left	n/a	n/a	n/a	1	0.0170945235714	blockFiles/set_32/main_PD/GB_runPatches1.xlsx
219	patches	True	n/a	209	0	n/a	n/a	0.0	1	left	n/a	n/a	n/a	0	-0.07099497249350001	blockFiles/set_32/main_PD/GB_runPatches1.xlsx
220	patches	True	n/a	209	0	n/a	n/a	0.0	1	left	n/a	n/a	n/a	0	-0.055174128785699994	blockFiles/set_32/main_PD/GB_runPatches1.xlsx
221	patches	True	n/a	209	0	n/a	n/a	1.0	1	right	n/a	n/a	n/a	1	0.0536740482599	blockFiles/set_32/main_PD/GB_runPatches1.xlsx
222	patches	True	n/a	209	0	n/a	n/a	1.0	0	right	n/a	n/a	n/a	0	-0.00124251523986	blockFiles/set_32/main_PD/GB_runPatches1.xlsx
223	patches	True	n/a	209	0	n/a	n/a	1.0	1	right	n/a	n/a	n/a	1	0.07718561431389999	blockFiles/set_32/main_PD/GB_runPatches1.xlsx
224	patches	True	n/a	209	0	n/a	n/a	1.0	1	right	n/a	n/a	n/a	1	0.0312130605802	blockFiles/set_32/main_PD/GB_runPatches1.xlsx
225	patches	True	n/a	209	0	n/a	n/a	1.0	1	right	n/a	n/a	n/a	1	0.04253244875	blockFiles/set_32/main_PD/GB_runPatches1.xlsx
226	patches	True	n/a	209	0	n/a	n/a	0.0	1	left	n/a	n/a	n/a	0	-0.046823827139999996	blockFiles/set_32/main_PD/GB_runPatches1.xlsx
227	patches	True	n/a	209	0	n/a	n/a	0.0	1	left	n/a	n/a	n/a	0	-0.0236249626987	blockFiles/set_32/main_PD/GB_runPatches1.xlsx
228	patches	True	n/a	209	0	n/a	n/a	1.0	1	right	n/a	n/a	n/a	1	0.0514655767381	blockFiles/set_32/main_PD/GB_runPatches1.xlsx
229	patches	True	n/a	209	0	n/a	n/a	1.0	0	right	n/a	n/a	n/a	0	-0.033511546161	blockFiles/set_32/main_PD/GB_runPatches1.xlsx
230	patches	True	n/a	209	0	n/a	n/a	0.0	1	left	n/a	n/a	n/a	0	-0.028366003446299998	blockFiles/set_32/main_PD/GB_runPatches1.xlsx
231	patches	True	n/a	209	0	n/a	n/a	0.0	1	left	n/a	n/a	n/a	0	-0.0418511330523	blockFiles/set_32/main_PD/GB_runPatches1.xlsx
232	patches	True	n/a	209	0	n/a	n/a	1.0	1	right	n/a	n/a	n/a	1	0.051561099216300005	blockFiles/set_32/main_PD/GB_runPatches1.xlsx
233	patches	True	n/a	209	0	n/a	n/a	1.0	1	right	n/a	n/a	n/a	1	0.0246805941686	blockFiles/set_32/main_PD/GB_runPatches1.xlsx
234	patches	True	n/a	209	0	n/a	n/a	1.0	1	right	n/a	n/a	n/a	1	0.0697535106353	blockFiles/set_32/main_PD/GB_runPatches1.xlsx
235	patches	True	n/a	209	0	n/a	n/a	1.0	0	right	n/a	n/a	n/a	0	-0.0024468922801300004	blockFiles/set_32/main_PD/GB_runPatches1.xlsx
236	patches	True	n/a	209	0	n/a	n/a	1.0	1	right	n/a	n/a	n/a	1	0.07707666473460001	blockFiles/set_32/main_PD/GB_runPatches1.xlsx
237	patches	True	n/a	209	0	n/a	n/a	0.0	1	left	n/a	n/a	n/a	0	-0.0275940727256	blockFiles/set_32/main_PD/GB_runPatches1.xlsx
238	patches	True	n/a	209	0	n/a	n/a	1.0	1	right	n/a	n/a	n/a	1	0.0436405473016	blockFiles/set_32/main_PD/GB_runPatches1.xlsx
239	patches	True	n/a	209	0	n/a	n/a	1.0	1	right	n/a	n/a	n/a	1	0.009620820786799999	blockFiles/set_32/main_PD/GB_runPatches1.xlsx
240	patches	True	n/a	209	0	n/a	n/a	1.0	1	right	n/a	n/a	n/a	1	0.062118448894499995	blockFiles/set_32/main_PD/GB_runPatches1.xlsx
241	patches	True	n/a	209	0	n/a	n/a	1.0	1	right	n/a	n/a	n/a	1	0.00921726498753	blockFiles/set_32/main_PD/GB_runPatches1.xlsx
242	patches	True	n/a	209	0	n/a	n/a	0.0	1	left	n/a	n/a	n/a	0	-0.0641447250172	blockFiles/set_32/main_PD/GB_runPatches1.xlsx
243	patches	True	n/a	209	0	n/a	n/a	0.0	1	left	n/a	n/a	n/a	0	-0.0513363542967	blockFiles/set_32/main_PD/GB_runPatches1.xlsx
244	patches	True	n/a	209	0	n/a	n/a	0.0	1	left	n/a	n/a	n/a	0	-0.0227589781582	blockFiles/set_32/main_PD/GB_runPatches1.xlsx
245	patches	True	n/a	209	0	n/a	n/a	0.0	1	left	n/a	n/a	n/a	0	-0.0061400647647700006	blockFiles/set_32/main_PD/GB_runPatches1.xlsx
246	patches	True	n/a	209	0	n/a	n/a	1.0	1	right	n/a	n/a	n/a	1	0.076902910769	blockFiles/set_32/main_PD/GB_runPatches1.xlsx
247	patches	True	n/a	209	0	n/a	n/a	1.0	1	right	n/a	n/a	n/a	1	0.0283095188253	blockFiles/set_32/main_PD/GB_runPatches1.xlsx
248	patches	True	n/a	209	0	n/a	n/a	1.0	1	right	n/a	n/a	n/a	1	0.049524783603800006	blockFiles/set_32/main_PD/GB_runPatches1.xlsx
249	patches	True	n/a	209	0	n/a	n/a	1.0	1	right	n/a	n/a	n/a	1	0.007033563628790001	blockFiles/set_32/main_PD/GB_runPatches1.xlsx
250	patches	True	n/a	209	0	n/a	n/a	1.0	1	right	n/a	n/a	n/a	1	0.07201325537639999	blockFiles/set_32/main_PD/GB_runPatches1.xlsx
251	patches	True	n/a	209	0	n/a	n/a	0.0	1	left	n/a	n/a	n/a	0	-0.072687634211	blockFiles/set_32/main_PD/GB_runPatches1.xlsx
252	main_unc	True	0.0	209	0	0.0	0.0	1.0	1	right	1.0	0.0	0.0	1	0.0101242659055	blockFiles/set_32/main_unc/rightBlue\GB_RB_4.xlsx
253	main_unc	True	0.0	209	0	0.0	0.0	0.0	1	left	1.0	0.0	1.0	0	-0.0487254066207	blockFiles/set_32/main_unc/rightBlue\GB_RB_4.xlsx
254	main_unc	True	0.0	209	0	0.0	0.0	0.0	1	left	2.0	1.0	0.0	0	-0.0359410939924	blockFiles/set_32/main_unc/rightBlue\GB_RB_4.xlsx
255	main_unc	True	0.0	209	0	0.0	0.0	0.0	1	left	2.0	0.0	0.0	0	-0.07832134602589999	blockFiles/set_32/main_unc/rightBlue\GB_RB_4.xlsx
256	main_unc	True	0.0	209	0	0.0	0.0	1.0	1	right	1.0	0.0	0.0	1	0.016324586682	blockFiles/set_32/main_unc/rightBlue\GB_RB_4.xlsx
257	main_unc	True	0.0	209	0	0.0	0.0	0.0	1	left	2.0	0.0	0.0	0	-0.0585330072418	blockFiles/set_32/main_unc/rightBlue\GB_RB_4.xlsx
258	main_unc	True	0.0	209	0	0.0	0.0	1.0	1	right	2.0	1.0	1.0	1	0.045453953854700004	blockFiles/set_32/main_unc/rightBlue\GB_RB_4.xlsx
259	main_unc	True	0.0	209	0	0.0	0.0	1.0	1	right	2.0	1.0	1.0	1	0.06563787397000001	blockFiles/set_32/main_unc/rightBlue\GB_RB_4.xlsx
260	main_unc	True	0.0	209	0	0.0	0.0	0.0	1	left	1.0	1.0	1.0	0	-0.036683003678900004	blockFiles/set_32/main_unc/rightBlue\GB_RB_4.xlsx
261	main_unc	True	0.0	209	0	0.0	0.0	1.0	1	right	2.0	1.0	1.0	1	0.00184799494222	blockFiles/set_32/main_unc/rightBlue\GB_RB_4.xlsx
262	main_unc	True	0.0	209	0	0.0	0.0	1.0	1	right	1.0	0.0	0.0	1	0.04106101293119999	blockFiles/set_32/main_unc/rightBlue\GB_RB_4.xlsx
263	main_unc	True	0.0	209	0	0.0	0.0	1.0	1	right	2.0	1.0	1.0	1	0.019338667877	blockFiles/set_32/main_unc/rightBlue\GB_RB_4.xlsx
264	main_unc	True	0.0	209	0	0.0	0.0	0.0	1	left	1.0	1.0	1.0	0	-0.029086540509000003	blockFiles/set_32/main_unc/rightBlue\GB_RB_4.xlsx
265	main_unc	True	1.0	209	0	0.0	0.0	n/a	0	None	n/a	0.0	n/a	0	-0.007082587499169999	blockFiles/set_32/main_unc/rightBlue\GB_RB_4.xlsx
266	main_unc	True	0.0	209	0	0.0	0.0	0.0	1	left	1.0	1.0	1.0	0	-0.06639975393190001	blockFiles/set_32/main_unc/rightBlue\GB_RB_4.xlsx
267	main_unc	True	0.0	209	0	0.0	0.0	1.0	1	right	2.0	0.0	1.0	1	0.0410148843378	blockFiles/set_32/main_unc/rightBlue\GB_RB_4.xlsx
268	main_unc	True	0.0	209	0	0.0	0.0	0.0	1	left	1.0	1.0	1.0	0	-0.03782708095390001	blockFiles/set_32/main_unc/rightBlue\GB_RB_4.xlsx
269	main_unc	True	0.0	209	0	0.0	0.0	0.0	1	left	1.0	0.0	1.0	0	-0.0355205152743	blockFiles/set_32/main_unc/rightBlue\GB_RB_4.xlsx
270	main_unc	True	0.0	209	0	0.0	0.0	1.0	1	right	2.0	1.0	1.0	1	0.0527599173039	blockFiles/set_32/main_unc/rightBlue\GB_RB_4.xlsx
271	main_unc	True	0.0	209	0	0.0	0.0	0.0	1	left	1.0	1.0	1.0	0	-0.0787818130851	blockFiles/set_32/main_unc/rightBlue\GB_RB_4.xlsx
272	main_unc	True	0.0	209	0	0.0	0.0	1.0	1	right	2.0	1.0	1.0	1	0.0100771114044	blockFiles/set_32/main_unc/rightBlue\GB_RB_4.xlsx
273	main_unc	True	0.0	209	0	0.0	0.0	1.0	1	right	2.0	1.0	1.0	1	0.0401085475832	blockFiles/set_32/main_unc/rightBlue\GB_RB_4.xlsx
274	main_unc	True	0.0	209	0	0.0	0.0	1.0	1	right	2.0	0.0	1.0	1	0.07192287495360002	blockFiles/set_32/main_unc/rightBlue\GB_RB_4.xlsx
275	main_unc	True	0.0	209	0	0.0	0.0	1.0	1	right	2.0	1.0	1.0	1	0.011878417506799998	blockFiles/set_32/main_unc/rightBlue\GB_RB_4.xlsx
276	main_unc	True	0.0	209	0	0.0	0.0	0.0	1	left	1.0	1.0	1.0	0	-0.0641788903065	blockFiles/set_32/main_unc/rightBlue\GB_RB_4.xlsx
277	main_unc	True	0.0	209	0	0.0	0.0	0.0	1	left	2.0	0.0	0.0	0	-0.007082587499169999	blockFiles/set_32/main_unc/rightBlue\GB_RB_4.xlsx
278	main_unc	True	0.0	209	0	1.0	1.0	0.0	1	left	2.0	0.0	0.0	0	-0.0520986128971	blockFiles/set_32/main_unc/rightBlue\GB_RB_2.xlsx
279	main_unc	True	0.0	209	0	1.0	1.0	1.0	1	right	1.0	0.0	0.0	1	0.0671772871166	blockFiles/set_32/main_unc/rightBlue\GB_RB_2.xlsx
280	main_unc	True	0.0	209	0	1.0	1.0	0.0	1	left	1.0	0.0	1.0	0	-0.0342112773657	blockFiles/set_32/main_unc/rightBlue\GB_RB_2.xlsx
281	main_unc	True	0.0	209	0	1.0	1.0	1.0	0	right	1.0	1.0	1.0	0	-0.003187329676	blockFiles/set_32/main_unc/rightBlue\GB_RB_2.xlsx
282	main_unc	True	0.0	209	0	1.0	1.0	1.0	1	right	1.0	0.0	0.0	1	0.007056799270209999	blockFiles/set_32/main_unc/rightBlue\GB_RB_2.xlsx
283	main_unc	True	0.0	209	0	1.0	1.0	1.0	1	right	1.0	0.0	0.0	1	0.05278309378769999	blockFiles/set_32/main_unc/rightBlue\GB_RB_2.xlsx
284	main_unc	True	1.0	209	0	1.0	1.0	n/a	0	None	n/a	0.0	n/a	1	0.0324729091488	blockFiles/set_32/main_unc/rightBlue\GB_RB_2.xlsx
285	main_unc	True	0.0	209	0	1.0	1.0	1.0	1	right	1.0	0.0	0.0	1	0.056704102884999996	blockFiles/set_32/main_unc/rightBlue\GB_RB_2.xlsx
286	main_unc	True	0.0	209	0	1.0	1.0	0.0	1	left	1.0	1.0	1.0	0	-0.0369247141667	blockFiles/set_32/main_unc/rightBlue\GB_RB_2.xlsx
287	main_unc	True	0.0	209	0	1.0	1.0	0.0	1	left	1.0	0.0	1.0	0	-0.0486799012125	blockFiles/set_32/main_unc/rightBlue\GB_RB_2.xlsx
288	main_unc	True	0.0	209	0	1.0	1.0	0.0	1	left	1.0	1.0	1.0	0	-0.0433174584806	blockFiles/set_32/main_unc/rightBlue\GB_RB_2.xlsx
289	main_unc	True	0.0	209	0	1.0	1.0	0.0	0	left	1.0	0.0	0.0	1	0.0117492777668	blockFiles/set_32/main_unc/rightBlue\GB_RB_2.xlsx
290	main_unc	True	1.0	209	0	1.0	1.0	0.0	1	left	n/a	0.0	n/a	0	-0.018915019799	blockFiles/set_32/main_unc/rightBlue\GB_RB_2.xlsx
291	main_unc	True	1.0	209	0	1.0	1.0	1.0	1	right	n/a	0.0	n/a	1	0.054305492248400006	blockFiles/set_32/main_unc/rightBlue\GB_RB_2.xlsx
292	main_unc	True	0.0	209	0	1.0	1.0	1.0	1	right	2.0	1.0	1.0	1	0.060163406971800004	blockFiles/set_32/main_unc/rightBlue\GB_RB_2.xlsx
293	main_unc	True	0.0	209	0	1.0	1.0	0.0	1	left	1.0	1.0	1.0	0	-0.0131854505464	blockFiles/set_32/main_unc/rightBlue\GB_RB_2.xlsx
294	main_unc	True	0.0	209	0	1.0	1.0	1.0	1	right	2.0	1.0	1.0	1	0.023837280925400002	blockFiles/set_32/main_unc/rightBlue\GB_RB_2.xlsx
295	main_unc	True	0.0	209	0	1.0	1.0	0.0	1	left	1.0	0.0	1.0	0	-0.0729922196083	blockFiles/set_32/main_unc/rightBlue\GB_RB_2.xlsx
296	main_unc	True	1.0	209	0	1.0	1.0	n/a	0	None	n/a	0.0	n/a	0	-0.00326480118558	blockFiles/set_32/main_unc/rightBlue\GB_RB_2.xlsx
297	main_unc	True	0.0	209	0	1.0	1.0	0.0	1	left	1.0	1.0	1.0	0	-6.56522251666e-05	blockFiles/set_32/main_unc/rightBlue\GB_RB_2.xlsx
298	main_unc	True	0.0	209	0	1.0	1.0	0.0	1	left	1.0	1.0	1.0	0	-0.0643479492888	blockFiles/set_32/main_unc/rightBlue\GB_RB_2.xlsx
299	main_unc	True	1.0	209	0	1.0	1.0	n/a	0	None	n/a	0.0	n/a	0	-0.0655450145155	blockFiles/set_32/main_unc/rightBlue\GB_RB_2.xlsx
300	main_unc	True	0.0	209	0	1.0	1.0	1.0	1	right	2.0	0.0	1.0	1	0.015516997408100001	blockFiles/set_32/main_unc/rightBlue\GB_RB_2.xlsx
301	main_unc	True	0.0	209	0	1.0	1.0	1.0	1	right	2.0	0.0	1.0	1	0.000230924952775	blockFiles/set_32/main_unc/rightBlue\GB_RB_2.xlsx
302	main_unc	True	0.0	209	0	1.0	1.0	1.0	1	right	1.0	0.0	0.0	1	0.0604136512242	blockFiles/set_32/main_unc/rightBlue\GB_RB_2.xlsx
303	main_unc	True	0.0	209	0	1.0	1.0	1.0	1	right	1.0	0.0	0.0	1	0.0324729091488	blockFiles/set_32/main_unc/rightBlue\GB_RB_2.xlsx
304	main_unc	True	0.0	209	0	1.0	1.0	0.0	1	left	2.0	0.0	0.0	0	-0.018915019799	blockFiles/set_32/main_unc/rightBlue\GB_RB_2.xlsx
305	main_unc	True	0.0	209	0	1.0	1.0	1.0	1	right	2.0	1.0	1.0	1	0.054305492248400006	blockFiles/set_32/main_unc/rightBlue\GB_RB_2.xlsx
306	main_unc	True	0.0	209	0	1.0	1.0	n/a	0	None	n/a	0.0	n/a	0	-0.00326480118558	blockFiles/set_32/main_unc/rightBlue\GB_RB_2.xlsx
307	main_unc	True	0.0	209	0	1.0	1.0	1.0	0	right	2.0	0.0	0.0	0	-0.00326480118558	blockFiles/set_32/main_unc/rightBlue\GB_RB_2.xlsx
308	main_unc	True	0.0	209	0	1.0	1.0	0.0	1	left	1.0	1.0	1.0	0	-0.0655450145155	blockFiles/set_32/main_unc/rightBlue\GB_RB_2.xlsx
309	main_unc	True	1.0	209	0	2.0	2.0	0.0	1	left	n/a	0.0	n/a	0	-0.0145635019802	blockFiles/set_32/main_unc/rightBlue\GB_RB_5.xlsx
310	main_unc	True	0.0	209	0	2.0	2.0	1.0	1	right	1.0	1.0	0.0	1	0.0669209255837	blockFiles/set_32/main_unc/rightBlue\GB_RB_5.xlsx
311	main_unc	True	0.0	209	0	2.0	2.0	1.0	1	right	1.0	0.0	0.0	1	0.0652617309242	blockFiles/set_32/main_unc/rightBlue\GB_RB_5.xlsx
312	main_unc	True	0.0	209	0	2.0	2.0	1.0	1	right	1.0	1.0	0.0	1	0.010126246195299999	blockFiles/set_32/main_unc/rightBlue\GB_RB_5.xlsx
313	main_unc	True	0.0	209	0	2.0	2.0	1.0	1	right	1.0	1.0	0.0	1	0.0340957115777	blockFiles/set_32/main_unc/rightBlue\GB_RB_5.xlsx
314	main_unc	True	0.0	209	0	2.0	2.0	1.0	1	right	1.0	0.0	0.0	1	0.0675914524682	blockFiles/set_32/main_unc/rightBlue\GB_RB_5.xlsx
315	main_unc	True	0.0	209	0	2.0	2.0	0.0	1	left	2.0	0.0	0.0	0	-0.00560240512714	blockFiles/set_32/main_unc/rightBlue\GB_RB_5.xlsx
316	main_unc	True	0.0	209	0	2.0	2.0	0.0	1	left	2.0	0.0	0.0	0	-0.05494028799240001	blockFiles/set_32/main_unc/rightBlue\GB_RB_5.xlsx
317	main_unc	True	0.0	209	0	2.0	2.0	1.0	1	right	2.0	1.0	1.0	1	0.0427367126942	blockFiles/set_32/main_unc/rightBlue\GB_RB_5.xlsx
318	main_unc	True	0.0	209	0	2.0	2.0	0.0	1	left	1.0	0.0	1.0	0	-0.014977070987200001	blockFiles/set_32/main_unc/rightBlue\GB_RB_5.xlsx
319	main_unc	True	0.0	209	0	2.0	2.0	1.0	1	right	2.0	1.0	1.0	1	0.07746374493460001	blockFiles/set_32/main_unc/rightBlue\GB_RB_5.xlsx
320	main_unc	True	0.0	209	0	2.0	2.0	1.0	1	right	2.0	1.0	1.0	1	0.041846419964	blockFiles/set_32/main_unc/rightBlue\GB_RB_5.xlsx
321	main_unc	True	0.0	209	0	2.0	2.0	0.0	1	left	1.0	1.0	1.0	0	-0.0249273245968	blockFiles/set_32/main_unc/rightBlue\GB_RB_5.xlsx
322	main_unc	True	0.0	209	0	2.0	2.0	0.0	1	left	1.0	1.0	1.0	0	-0.0521326038055	blockFiles/set_32/main_unc/rightBlue\GB_RB_5.xlsx
323	main_unc	True	0.0	209	0	2.0	2.0	1.0	1	right	2.0	0.0	1.0	1	0.0687370956317	blockFiles/set_32/main_unc/rightBlue\GB_RB_5.xlsx
324	main_unc	True	0.0	209	0	2.0	2.0	0.0	1	left	1.0	1.0	1.0	0	-0.0117958429456	blockFiles/set_32/main_unc/rightBlue\GB_RB_5.xlsx
325	main_unc	True	0.0	209	0	2.0	2.0	0.0	1	left	1.0	1.0	1.0	0	-0.061474824994800004	blockFiles/set_32/main_unc/rightBlue\GB_RB_5.xlsx
326	main_unc	True	0.0	209	0	2.0	2.0	0.0	1	left	1.0	0.0	1.0	0	-0.0451511337981	blockFiles/set_32/main_unc/rightBlue\GB_RB_5.xlsx
327	main_unc	True	0.0	209	0	2.0	2.0	0.0	1	left	1.0	1.0	1.0	0	-0.06744716065	blockFiles/set_32/main_unc/rightBlue\GB_RB_5.xlsx
328	main_unc	True	0.0	209	0	2.0	2.0	0.0	0	left	1.0	0.0	0.0	1	0.014874584395399999	blockFiles/set_32/main_unc/rightBlue\GB_RB_5.xlsx
329	main_unc	True	0.0	209	0	2.0	2.0	0.0	1	left	1.0	1.0	1.0	0	-0.0592081595957	blockFiles/set_32/main_unc/rightBlue\GB_RB_5.xlsx
330	main_unc	True	0.0	209	0	2.0	2.0	1.0	1	right	2.0	1.0	1.0	1	0.07123948192219999	blockFiles/set_32/main_unc/rightBlue\GB_RB_5.xlsx
331	main_unc	True	0.0	209	0	2.0	2.0	0.0	1	left	1.0	1.0	1.0	0	-0.04539724526930001	blockFiles/set_32/main_unc/rightBlue\GB_RB_5.xlsx
332	main_unc	True	0.0	209	0	2.0	2.0	1.0	1	right	2.0	1.0	1.0	1	0.0298458611034	blockFiles/set_32/main_unc/rightBlue\GB_RB_5.xlsx
333	main_unc	True	0.0	209	0	2.0	2.0	1.0	1	right	2.0	1.0	1.0	1	0.04822219647469999	blockFiles/set_32/main_unc/rightBlue\GB_RB_5.xlsx
334	main_unc	True	0.0	209	0	2.0	2.0	1.0	0	right	2.0	0.0	0.0	0	-0.0145635019802	blockFiles/set_32/main_unc/rightBlue\GB_RB_5.xlsx
335	main_unc	True	0.0	209	0	3.0	3.0	1.0	1	right	2.0	0.0	0.0	1	0.06150507994	blockFiles/set_32/main_unc/leftBlue\GB_LB_5.xlsx
336	main_unc	True	0.0	209	0	3.0	3.0	1.0	0	right	1.0	1.0	0.0	0	-0.00647074058652	blockFiles/set_32/main_unc/leftBlue\GB_LB_5.xlsx
337	main_unc	True	0.0	209	0	3.0	3.0	1.0	0	right	1.0	0.0	0.0	0	-2.79619731009e-05	blockFiles/set_32/main_unc/leftBlue\GB_LB_5.xlsx
338	main_unc	True	0.0	209	0	3.0	3.0	1.0	1	right	1.0	1.0	1.0	1	0.0751873650588	blockFiles/set_32/main_unc/leftBlue\GB_LB_5.xlsx
339	main_unc	True	0.0	209	0	3.0	3.0	0.0	1	left	2.0	1.0	1.0	0	-0.0704806539789	blockFiles/set_32/main_unc/leftBlue\GB_LB_5.xlsx
340	main_unc	True	1.0	209	0	3.0	3.0	n/a	0	None	n/a	0.0	n/a	0	-0.0109487096779	blockFiles/set_32/main_unc/leftBlue\GB_LB_5.xlsx
341	main_unc	True	0.0	209	0	3.0	3.0	1.0	1	right	1.0	1.0	1.0	1	0.042595743052699996	blockFiles/set_32/main_unc/leftBlue\GB_LB_5.xlsx
342	main_unc	True	0.0	209	0	3.0	3.0	1.0	1	right	1.0	1.0	1.0	1	0.0732594175264	blockFiles/set_32/main_unc/leftBlue\GB_LB_5.xlsx
343	main_unc	True	0.0	209	0	3.0	3.0	0.0	1	left	2.0	1.0	1.0	0	-0.057279011756199996	blockFiles/set_32/main_unc/leftBlue\GB_LB_5.xlsx
344	main_unc	True	0.0	209	0	3.0	3.0	0.0	1	left	2.0	1.0	1.0	0	-0.0608561615087	blockFiles/set_32/main_unc/leftBlue\GB_LB_5.xlsx
345	main_unc	True	0.0	209	0	3.0	3.0	1.0	1	right	1.0	0.0	1.0	1	0.0035024756751999998	blockFiles/set_32/main_unc/leftBlue\GB_LB_5.xlsx
346	main_unc	True	0.0	209	0	3.0	3.0	1.0	1	right	1.0	1.0	1.0	1	0.0354118926637	blockFiles/set_32/main_unc/leftBlue\GB_LB_5.xlsx
347	main_unc	True	0.0	209	0	3.0	3.0	1.0	1	right	1.0	1.0	1.0	1	0.021828517056999997	blockFiles/set_32/main_unc/leftBlue\GB_LB_5.xlsx
348	main_unc	True	0.0	209	0	3.0	3.0	0.0	1	left	2.0	1.0	1.0	0	-0.0547172526829	blockFiles/set_32/main_unc/leftBlue\GB_LB_5.xlsx
349	main_unc	True	0.0	209	0	3.0	3.0	1.0	1	right	1.0	1.0	1.0	1	0.0351091148332	blockFiles/set_32/main_unc/leftBlue\GB_LB_5.xlsx
350	main_unc	True	0.0	209	0	3.0	3.0	1.0	1	right	1.0	1.0	1.0	1	0.0515633313358	blockFiles/set_32/main_unc/leftBlue\GB_LB_5.xlsx
351	main_unc	True	0.0	209	0	3.0	3.0	1.0	1	right	1.0	0.0	1.0	1	0.0675599627942	blockFiles/set_32/main_unc/leftBlue\GB_LB_5.xlsx
352	main_unc	True	0.0	209	0	3.0	3.0	0.0	1	left	2.0	1.0	1.0	0	-0.0170217350312	blockFiles/set_32/main_unc/leftBlue\GB_LB_5.xlsx
353	main_unc	True	0.0	209	0	3.0	3.0	1.0	1	right	1.0	1.0	1.0	1	0.00858770743012	blockFiles/set_32/main_unc/leftBlue\GB_LB_5.xlsx
354	main_unc	True	0.0	209	0	3.0	3.0	1.0	1	right	1.0	1.0	1.0	1	0.043015260733699996	blockFiles/set_32/main_unc/leftBlue\GB_LB_5.xlsx
355	main_unc	True	0.0	209	0	3.0	3.0	0.0	1	left	2.0	1.0	1.0	0	-0.07347058095039999	blockFiles/set_32/main_unc/leftBlue\GB_LB_5.xlsx
356	main_unc	True	0.0	209	0	3.0	3.0	0.0	1	left	2.0	0.0	1.0	0	-0.0459315446205	blockFiles/set_32/main_unc/leftBlue\GB_LB_5.xlsx
357	main_unc	True	0.0	209	0	3.0	3.0	1.0	1	right	1.0	1.0	1.0	1	0.036242285594300004	blockFiles/set_32/main_unc/leftBlue\GB_LB_5.xlsx
358	main_unc	True	0.0	209	0	3.0	3.0	0.0	1	left	2.0	1.0	1.0	0	-0.0364173768461	blockFiles/set_32/main_unc/leftBlue\GB_LB_5.xlsx
359	main_unc	True	0.0	209	0	3.0	3.0	0.0	1	left	2.0	1.0	1.0	0	-0.020180218368799997	blockFiles/set_32/main_unc/leftBlue\GB_LB_5.xlsx
360	main_unc	True	0.0	209	0	3.0	3.0	1.0	0	right	2.0	0.0	1.0	0	-0.0109487096779	blockFiles/set_32/main_unc/leftBlue\GB_LB_5.xlsx
361	main_unc	True	0.0	209	0	4.0	4.0	0.0	1	left	2.0	0.0	0.0	0	-0.036123069450300006	blockFiles/set_32/main_unc/rightBlue\GB_RB_3.xlsx
362	main_unc	True	0.0	209	0	4.0	4.0	0.0	1	left	1.0	1.0	1.0	0	-0.047914671357699994	blockFiles/set_32/main_unc/rightBlue\GB_RB_3.xlsx
363	main_unc	True	0.0	209	0	4.0	4.0	0.0	1	left	1.0	1.0	1.0	0	-0.0674512526207	blockFiles/set_32/main_unc/rightBlue\GB_RB_3.xlsx
364	main_unc	True	0.0	209	0	4.0	4.0	0.0	1	left	1.0	1.0	1.0	0	-0.0798226885498	blockFiles/set_32/main_unc/rightBlue\GB_RB_3.xlsx
365	main_unc	True	0.0	209	0	4.0	4.0	1.0	1	right	2.0	1.0	1.0	1	0.037254018820800004	blockFiles/set_32/main_unc/rightBlue\GB_RB_3.xlsx
366	main_unc	True	0.0	209	0	4.0	4.0	1.0	1	right	2.0	1.0	1.0	1	0.0411808055453	blockFiles/set_32/main_unc/rightBlue\GB_RB_3.xlsx
367	main_unc	True	0.0	209	0	4.0	4.0	1.0	1	right	2.0	1.0	1.0	1	0.035924523957099996	blockFiles/set_32/main_unc/rightBlue\GB_RB_3.xlsx
368	main_unc	True	1.0	209	0	4.0	4.0	n/a	0	None	n/a	0.0	n/a	0	-0.00745614014566	blockFiles/set_32/main_unc/rightBlue\GB_RB_3.xlsx
369	main_unc	True	0.0	209	0	4.0	4.0	0.0	1	left	1.0	0.0	1.0	0	-0.0632316150144	blockFiles/set_32/main_unc/rightBlue\GB_RB_3.xlsx
370	main_unc	True	0.0	209	0	4.0	4.0	1.0	1	right	2.0	1.0	1.0	1	0.06318813823160001	blockFiles/set_32/main_unc/rightBlue\GB_RB_3.xlsx
371	main_unc	True	0.0	209	0	4.0	4.0	1.0	0	right	1.0	1.0	1.0	0	-0.0193657823279	blockFiles/set_32/main_unc/rightBlue\GB_RB_3.xlsx
372	main_unc	True	0.0	209	0	4.0	4.0	1.0	1	right	2.0	1.0	1.0	1	0.039906109161699996	blockFiles/set_32/main_unc/rightBlue\GB_RB_3.xlsx
373	main_unc	True	0.0	209	0	4.0	4.0	1.0	1	right	2.0	1.0	1.0	1	0.0483466366306	blockFiles/set_32/main_unc/rightBlue\GB_RB_3.xlsx
374	main_unc	True	0.0	209	0	4.0	4.0	0.0	1	left	1.0	0.0	1.0	0	-0.0562095196731	blockFiles/set_32/main_unc/rightBlue\GB_RB_3.xlsx
375	main_unc	True	1.0	209	0	4.0	4.0	n/a	0	None	n/a	0.0	n/a	0	-0.00479374308139	blockFiles/set_32/main_unc/rightBlue\GB_RB_3.xlsx
376	main_unc	True	0.0	209	0	4.0	4.0	0.0	1	left	2.0	0.0	0.0	0	-0.0459298265912	blockFiles/set_32/main_unc/rightBlue\GB_RB_3.xlsx
377	main_unc	True	0.0	209	0	4.0	4.0	1.0	1	right	2.0	0.0	1.0	1	0.0756110965647	blockFiles/set_32/main_unc/rightBlue\GB_RB_3.xlsx
378	main_unc	True	0.0	209	0	4.0	4.0	1.0	1	right	2.0	0.0	1.0	1	0.00122258232906	blockFiles/set_32/main_unc/rightBlue\GB_RB_3.xlsx
379	main_unc	True	0.0	209	0	4.0	4.0	0.0	1	left	1.0	1.0	1.0	0	-0.036012046113599996	blockFiles/set_32/main_unc/rightBlue\GB_RB_3.xlsx
380	main_unc	True	0.0	209	0	4.0	4.0	1.0	1	right	2.0	1.0	1.0	1	0.0393637824804	blockFiles/set_32/main_unc/rightBlue\GB_RB_3.xlsx
381	main_unc	True	0.0	209	0	4.0	4.0	1.0	1	right	2.0	0.0	1.0	1	0.0679590244219	blockFiles/set_32/main_unc/rightBlue\GB_RB_3.xlsx
382	main_unc	True	0.0	209	0	4.0	4.0	0.0	1	left	1.0	1.0	1.0	0	-0.0796375816688	blockFiles/set_32/main_unc/rightBlue\GB_RB_3.xlsx
383	main_unc	True	0.0	209	0	4.0	4.0	0.0	0	left	1.0	0.0	0.0	1	0.006000855546439999	blockFiles/set_32/main_unc/rightBlue\GB_RB_3.xlsx
384	main_unc	True	0.0	209	0	4.0	4.0	0.0	1	left	1.0	1.0	1.0	0	-0.0462103946321	blockFiles/set_32/main_unc/rightBlue\GB_RB_3.xlsx
385	main_unc	True	0.0	209	0	4.0	4.0	0.0	0	left	2.0	1.0	1.0	1	0.0007901035994289998	blockFiles/set_32/main_unc/rightBlue\GB_RB_3.xlsx
386	main_unc	True	0.0	209	0	4.0	4.0	0.0	1	left	1.0	1.0	1.0	0	-0.00745614014566	blockFiles/set_32/main_unc/rightBlue\GB_RB_3.xlsx
387	main_unc	True	0.0	209	0	4.0	4.0	0.0	1	left	1.0	1.0	1.0	0	-0.00479374308139	blockFiles/set_32/main_unc/rightBlue\GB_RB_3.xlsx
388	main_unc	True	0.0	209	0	5.0	5.0	1.0	1	right	1.0	0.0	0.0	1	0.0634234533273	blockFiles/set_32/main_unc/rightBlue\GB_RB_1.xlsx
389	main_unc	True	0.0	209	0	5.0	5.0	0.0	1	left	1.0	1.0	1.0	0	-0.00628971338272	blockFiles/set_32/main_unc/rightBlue\GB_RB_1.xlsx
390	main_unc	True	0.0	209	0	5.0	5.0	1.0	1	right	2.0	0.0	1.0	1	0.030039152167700003	blockFiles/set_32/main_unc/rightBlue\GB_RB_1.xlsx
391	main_unc	True	0.0	209	0	5.0	5.0	0.0	1	left	1.0	1.0	1.0	0	-0.0604518173821	blockFiles/set_32/main_unc/rightBlue\GB_RB_1.xlsx
392	main_unc	True	0.0	209	0	5.0	5.0	1.0	1	right	2.0	1.0	1.0	1	0.0621328737959	blockFiles/set_32/main_unc/rightBlue\GB_RB_1.xlsx
393	main_unc	True	0.0	209	0	5.0	5.0	0.0	1	left	1.0	1.0	1.0	0	-0.0184895430133	blockFiles/set_32/main_unc/rightBlue\GB_RB_1.xlsx
394	main_unc	True	0.0	209	0	5.0	5.0	0.0	1	left	1.0	0.0	1.0	0	-0.0746680877544	blockFiles/set_32/main_unc/rightBlue\GB_RB_1.xlsx
395	main_unc	True	0.0	209	0	5.0	5.0	1.0	1	right	2.0	1.0	1.0	1	0.019606861323099998	blockFiles/set_32/main_unc/rightBlue\GB_RB_1.xlsx
396	main_unc	True	0.0	209	0	5.0	5.0	0.0	1	left	1.0	1.0	1.0	0	-0.0731521314196	blockFiles/set_32/main_unc/rightBlue\GB_RB_1.xlsx
397	main_unc	True	0.0	209	0	5.0	5.0	1.0	1	right	2.0	1.0	1.0	1	0.0493686282262	blockFiles/set_32/main_unc/rightBlue\GB_RB_1.xlsx
398	main_unc	True	0.0	209	0	5.0	5.0	0.0	1	left	1.0	1.0	1.0	0	-0.016574409306	blockFiles/set_32/main_unc/rightBlue\GB_RB_1.xlsx
399	main_unc	True	0.0	209	0	5.0	5.0	0.0	1	left	1.0	1.0	1.0	0	-0.011216617357	blockFiles/set_32/main_unc/rightBlue\GB_RB_1.xlsx
400	main_unc	True	0.0	209	0	5.0	5.0	0.0	1	left	1.0	1.0	1.0	0	-0.0725370980054	blockFiles/set_32/main_unc/rightBlue\GB_RB_1.xlsx
401	main_unc	True	0.0	209	0	5.0	5.0	0.0	1	left	1.0	0.0	1.0	0	-0.045147331208	blockFiles/set_32/main_unc/rightBlue\GB_RB_1.xlsx
402	main_unc	True	0.0	209	0	5.0	5.0	1.0	1	right	2.0	1.0	1.0	1	0.0318172897957	blockFiles/set_32/main_unc/rightBlue\GB_RB_1.xlsx
403	main_unc	True	0.0	209	0	5.0	5.0	0.0	1	left	2.0	0.0	0.0	0	-0.0082525425218	blockFiles/set_32/main_unc/rightBlue\GB_RB_1.xlsx
404	main_unc	True	0.0	209	0	5.0	5.0	0.0	1	left	1.0	1.0	1.0	0	-0.0747842836939	blockFiles/set_32/main_unc/rightBlue\GB_RB_1.xlsx
405	main_unc	True	0.0	209	0	5.0	5.0	0.0	1	left	1.0	1.0	1.0	0	-0.03567150330169999	blockFiles/set_32/main_unc/rightBlue\GB_RB_1.xlsx
406	main_unc	True	0.0	209	0	5.0	5.0	1.0	1	right	2.0	1.0	1.0	1	0.0753768752515	blockFiles/set_32/main_unc/rightBlue\GB_RB_1.xlsx
407	main_unc	True	0.0	209	0	5.0	5.0	0.0	1	left	1.0	1.0	1.0	0	-0.0355875808932	blockFiles/set_32/main_unc/rightBlue\GB_RB_1.xlsx
408	main_unc	True	0.0	209	0	5.0	5.0	1.0	1	right	2.0	1.0	1.0	1	0.015590179748799999	blockFiles/set_32/main_unc/rightBlue\GB_RB_1.xlsx
409	main_unc	True	0.0	209	0	5.0	5.0	1.0	1	right	2.0	1.0	1.0	1	0.0597575246356	blockFiles/set_32/main_unc/rightBlue\GB_RB_1.xlsx
410	main_unc	True	0.0	209	0	5.0	5.0	1.0	1	right	2.0	1.0	1.0	1	0.0693861388788	blockFiles/set_32/main_unc/rightBlue\GB_RB_1.xlsx
411	main_unc	True	0.0	209	0	5.0	5.0	1.0	1	right	2.0	0.0	1.0	1	0.029134119860799997	blockFiles/set_32/main_unc/rightBlue\GB_RB_1.xlsx
412	main_unc	True	0.0	209	0	5.0	5.0	1.0	1	right	2.0	1.0	1.0	1	0.0453929838724	blockFiles/set_32/main_unc/rightBlue\GB_RB_1.xlsx
413	main_unc	True	0.0	209	0	6.0	6.0	0.0	1	left	1.0	1.0	0.0	0	-0.0470540418848	blockFiles/set_32/main_unc/leftBlue\GB_LB_3.xlsx
414	main_unc	True	0.0	209	0	6.0	6.0	0.0	1	left	1.0	0.0	0.0	0	-0.0401000257395	blockFiles/set_32/main_unc/leftBlue\GB_LB_3.xlsx
415	main_unc	True	0.0	209	0	6.0	6.0	1.0	1	right	2.0	0.0	0.0	1	0.032519893813900004	blockFiles/set_32/main_unc/leftBlue\GB_LB_3.xlsx
416	main_unc	True	0.0	209	0	6.0	6.0	0.0	1	left	2.0	1.0	1.0	0	-0.0559846506827	blockFiles/set_32/main_unc/leftBlue\GB_LB_3.xlsx
417	main_unc	True	0.0	209	0	6.0	6.0	1.0	1	right	1.0	1.0	1.0	1	0.0292388977297	blockFiles/set_32/main_unc/leftBlue\GB_LB_3.xlsx
418	main_unc	True	0.0	209	0	6.0	6.0	1.0	1	right	1.0	0.0	1.0	1	0.0596573510952	blockFiles/set_32/main_unc/leftBlue\GB_LB_3.xlsx
419	main_unc	True	0.0	209	0	6.0	6.0	0.0	1	left	2.0	0.0	1.0	0	-0.00470879238099	blockFiles/set_32/main_unc/leftBlue\GB_LB_3.xlsx
420	main_unc	True	0.0	209	0	6.0	6.0	0.0	1	left	2.0	1.0	1.0	0	-0.062299618572000004	blockFiles/set_32/main_unc/leftBlue\GB_LB_3.xlsx
421	main_unc	True	0.0	209	0	6.0	6.0	1.0	1	right	1.0	1.0	1.0	1	0.05642552813519999	blockFiles/set_32/main_unc/leftBlue\GB_LB_3.xlsx
422	main_unc	True	0.0	209	0	6.0	6.0	1.0	1	right	1.0	1.0	1.0	1	0.057234547287200004	blockFiles/set_32/main_unc/leftBlue\GB_LB_3.xlsx
423	main_unc	True	0.0	209	0	6.0	6.0	0.0	0	left	2.0	0.0	0.0	1	0.00104525743052	blockFiles/set_32/main_unc/leftBlue\GB_LB_3.xlsx
424	main_unc	True	1.0	209	0	6.0	6.0	n/a	0	None	n/a	0.0	n/a	0	-0.0239991909452	blockFiles/set_32/main_unc/leftBlue\GB_LB_3.xlsx
425	main_unc	True	1.0	209	0	6.0	6.0	n/a	0	None	n/a	0.0	n/a	0	-0.0046799079515	blockFiles/set_32/main_unc/leftBlue\GB_LB_3.xlsx
426	main_unc	True	0.0	209	0	6.0	6.0	1.0	1	right	1.0	1.0	1.0	1	0.06390022270380001	blockFiles/set_32/main_unc/leftBlue\GB_LB_3.xlsx
427	main_unc	True	0.0	209	0	6.0	6.0	0.0	1	left	2.0	1.0	1.0	0	-0.040128194913300004	blockFiles/set_32/main_unc/leftBlue\GB_LB_3.xlsx
428	main_unc	True	0.0	209	0	6.0	6.0	0.0	1	left	2.0	0.0	1.0	0	-0.047108311858000004	blockFiles/set_32/main_unc/leftBlue\GB_LB_3.xlsx
429	main_unc	True	0.0	209	0	6.0	6.0	0.0	1	left	2.0	1.0	1.0	0	-0.038963394165	blockFiles/set_32/main_unc/leftBlue\GB_LB_3.xlsx
430	main_unc	True	0.0	209	0	6.0	6.0	1.0	1	right	1.0	1.0	1.0	1	0.0744258155115	blockFiles/set_32/main_unc/leftBlue\GB_LB_3.xlsx
431	main_unc	True	0.0	209	0	6.0	6.0	0.0	1	left	2.0	0.0	1.0	0	-0.06155241323630001	blockFiles/set_32/main_unc/leftBlue\GB_LB_3.xlsx
432	main_unc	True	0.0	209	0	6.0	6.0	1.0	1	right	1.0	1.0	1.0	1	0.0316690331325	blockFiles/set_32/main_unc/leftBlue\GB_LB_3.xlsx
433	main_unc	True	0.0	209	0	6.0	6.0	0.0	1	left	1.0	0.0	0.0	0	-0.0044456132687600005	blockFiles/set_32/main_unc/leftBlue\GB_LB_3.xlsx
434	main_unc	True	0.0	209	0	6.0	6.0	0.0	1	left	2.0	1.0	1.0	0	-0.05526153486219999	blockFiles/set_32/main_unc/leftBlue\GB_LB_3.xlsx
435	main_unc	True	0.0	209	0	6.0	6.0	1.0	1	right	1.0	1.0	1.0	1	0.026014689020799998	blockFiles/set_32/main_unc/leftBlue\GB_LB_3.xlsx
436	main_unc	True	0.0	209	0	6.0	6.0	0.0	1	left	2.0	1.0	1.0	0	-0.0574164729193	blockFiles/set_32/main_unc/leftBlue\GB_LB_3.xlsx
437	main_unc	True	0.0	209	0	6.0	6.0	1.0	1	right	1.0	1.0	1.0	1	0.06014893770219999	blockFiles/set_32/main_unc/leftBlue\GB_LB_3.xlsx
438	main_unc	True	0.0	209	0	6.0	6.0	0.0	1	left	2.0	1.0	1.0	0	-0.0239991909452	blockFiles/set_32/main_unc/leftBlue\GB_LB_3.xlsx
439	main_unc	True	0.0	209	0	6.0	6.0	1.0	0	right	1.0	0.0	0.0	0	-0.0046799079515	blockFiles/set_32/main_unc/leftBlue\GB_LB_3.xlsx
440	main_unc	True	0.0	209	0	7.0	7.0	1.0	0	right	2.0	0.0	0.0	0	-0.00799373116344	blockFiles/set_32/main_unc/rightBlue\GB_RB_6.xlsx
441	main_unc	True	0.0	209	0	7.0	7.0	1.0	1	right	2.0	0.0	1.0	1	0.050444474928099996	blockFiles/set_32/main_unc/rightBlue\GB_RB_6.xlsx
442	main_unc	True	0.0	209	0	7.0	7.0	1.0	1	right	1.0	0.0	0.0	1	0.0526328844577	blockFiles/set_32/main_unc/rightBlue\GB_RB_6.xlsx
443	main_unc	True	0.0	209	0	7.0	7.0	0.0	1	left	2.0	0.0	0.0	0	-0.0340718871728	blockFiles/set_32/main_unc/rightBlue\GB_RB_6.xlsx
444	main_unc	True	0.0	209	0	7.0	7.0	1.0	1	right	1.0	0.0	0.0	1	0.0449395953864	blockFiles/set_32/main_unc/rightBlue\GB_RB_6.xlsx
445	main_unc	True	0.0	209	0	7.0	7.0	0.0	1	left	1.0	1.0	1.0	0	-0.0367451137677	blockFiles/set_32/main_unc/rightBlue\GB_RB_6.xlsx
446	main_unc	True	0.0	209	0	7.0	7.0	1.0	1	right	2.0	1.0	1.0	1	0.0435335697606	blockFiles/set_32/main_unc/rightBlue\GB_RB_6.xlsx
447	main_unc	True	0.0	209	0	7.0	7.0	1.0	1	right	2.0	1.0	1.0	1	0.0598195596971	blockFiles/set_32/main_unc/rightBlue\GB_RB_6.xlsx
448	main_unc	True	0.0	209	0	7.0	7.0	0.0	1	left	1.0	1.0	1.0	0	-0.023888350352599997	blockFiles/set_32/main_unc/rightBlue\GB_RB_6.xlsx
449	main_unc	True	0.0	209	0	7.0	7.0	1.0	0	right	2.0	0.0	0.0	0	-0.000778172835708	blockFiles/set_32/main_unc/rightBlue\GB_RB_6.xlsx
450	main_unc	True	0.0	209	0	7.0	7.0	1.0	1	right	2.0	1.0	1.0	1	0.0275824926794	blockFiles/set_32/main_unc/rightBlue\GB_RB_6.xlsx
451	main_unc	True	0.0	209	0	7.0	7.0	0.0	1	left	1.0	1.0	1.0	0	-0.0640613826364	blockFiles/set_32/main_unc/rightBlue\GB_RB_6.xlsx
452	main_unc	True	0.0	209	0	7.0	7.0	0.0	1	left	1.0	1.0	1.0	0	-0.0502988926508	blockFiles/set_32/main_unc/rightBlue\GB_RB_6.xlsx
453	main_unc	True	0.0	209	0	7.0	7.0	0.0	0	left	1.0	0.0	0.0	1	0.00040346605703199995	blockFiles/set_32/main_unc/rightBlue\GB_RB_6.xlsx
454	main_unc	True	0.0	209	0	7.0	7.0	0.0	1	left	1.0	1.0	1.0	0	-0.058643883206	blockFiles/set_32/main_unc/rightBlue\GB_RB_6.xlsx
455	main_unc	True	0.0	209	0	7.0	7.0	1.0	1	right	2.0	1.0	1.0	1	0.0726944206282	blockFiles/set_32/main_unc/rightBlue\GB_RB_6.xlsx
456	main_unc	True	0.0	209	0	7.0	7.0	1.0	1	right	2.0	0.0	1.0	1	0.07094178406519999	blockFiles/set_32/main_unc/rightBlue\GB_RB_6.xlsx
457	main_unc	True	0.0	209	0	7.0	7.0	1.0	1	right	2.0	1.0	1.0	1	0.0372658359073	blockFiles/set_32/main_unc/rightBlue\GB_RB_6.xlsx
458	main_unc	True	0.0	209	0	7.0	7.0	1.0	1	right	2.0	1.0	1.0	1	0.0247358988039	blockFiles/set_32/main_unc/rightBlue\GB_RB_6.xlsx
459	main_unc	True	0.0	209	0	7.0	7.0	0.0	1	left	1.0	1.0	1.0	0	-0.044993935767599996	blockFiles/set_32/main_unc/rightBlue\GB_RB_6.xlsx
460	main_unc	True	0.0	209	0	7.0	7.0	1.0	1	right	1.0	0.0	0.0	1	0.00793132770807	blockFiles/set_32/main_unc/rightBlue\GB_RB_6.xlsx
461	main_unc	True	0.0	209	0	7.0	7.0	0.0	1	left	1.0	1.0	1.0	0	-0.0748583015986	blockFiles/set_32/main_unc/rightBlue\GB_RB_6.xlsx
462	main_unc	True	0.0	209	0	7.0	7.0	1.0	1	right	2.0	1.0	1.0	1	0.0342631011084	blockFiles/set_32/main_unc/rightBlue\GB_RB_6.xlsx
463	main_unc	True	0.0	209	0	7.0	7.0	0.0	1	left	1.0	0.0	1.0	0	-0.0467828495428	blockFiles/set_32/main_unc/rightBlue\GB_RB_6.xlsx
464	main_unc	True	0.0	209	0	7.0	7.0	0.0	1	left	1.0	1.0	1.0	0	-0.019938732814	blockFiles/set_32/main_unc/rightBlue\GB_RB_6.xlsx
465	main_unc	True	1.0	209	0	8.0	8.0	n/a	0	None	n/a	0.0	n/a	0	-0.00563979677856	blockFiles/set_32/main_unc/leftBlue\GB_LB_1.xlsx
466	main_unc	True	0.0	209	0	8.0	8.0	1.0	1	right	2.0	0.0	0.0	1	0.0382835227996	blockFiles/set_32/main_unc/leftBlue\GB_LB_1.xlsx
467	main_unc	True	0.0	209	0	8.0	8.0	0.0	1	left	2.0	1.0	1.0	0	-0.0779338818602	blockFiles/set_32/main_unc/leftBlue\GB_LB_1.xlsx
468	main_unc	True	0.0	209	0	8.0	8.0	0.0	1	left	2.0	1.0	1.0	0	-0.0205341884308	blockFiles/set_32/main_unc/leftBlue\GB_LB_1.xlsx
469	main_unc	True	0.0	209	0	8.0	8.0	1.0	1	right	1.0	0.0	1.0	1	0.056651188302800005	blockFiles/set_32/main_unc/leftBlue\GB_LB_1.xlsx
470	main_unc	True	0.0	209	0	8.0	8.0	1.0	1	right	1.0	1.0	1.0	1	0.0210179838724	blockFiles/set_32/main_unc/leftBlue\GB_LB_1.xlsx
471	main_unc	True	0.0	209	0	8.0	8.0	0.0	1	left	2.0	1.0	1.0	0	-0.047276701498800006	blockFiles/set_32/main_unc/leftBlue\GB_LB_1.xlsx
472	main_unc	True	0.0	209	0	8.0	8.0	1.0	1	right	1.0	1.0	1.0	1	0.009680400211360001	blockFiles/set_32/main_unc/leftBlue\GB_LB_1.xlsx
473	main_unc	True	0.0	209	0	8.0	8.0	1.0	1	right	1.0	1.0	1.0	1	0.0250485956483	blockFiles/set_32/main_unc/leftBlue\GB_LB_1.xlsx
474	main_unc	True	0.0	209	0	8.0	8.0	1.0	1	right	1.0	1.0	1.0	1	0.0498803435452	blockFiles/set_32/main_unc/leftBlue\GB_LB_1.xlsx
475	main_unc	True	0.0	209	0	8.0	8.0	0.0	1	left	2.0	0.0	1.0	0	-0.0520288154297	blockFiles/set_32/main_unc/leftBlue\GB_LB_1.xlsx
476	main_unc	True	0.0	209	0	8.0	8.0	1.0	1	right	1.0	0.0	1.0	1	0.04889745535330001	blockFiles/set_32/main_unc/leftBlue\GB_LB_1.xlsx
477	main_unc	True	0.0	209	0	8.0	8.0	1.0	1	right	1.0	1.0	1.0	1	0.029350701086200002	blockFiles/set_32/main_unc/leftBlue\GB_LB_1.xlsx
478	main_unc	True	0.0	209	0	8.0	8.0	1.0	1	right	1.0	1.0	1.0	1	0.06493619963530001	blockFiles/set_32/main_unc/leftBlue\GB_LB_1.xlsx
479	main_unc	True	0.0	209	0	8.0	8.0	0.0	1	left	2.0	1.0	1.0	0	-0.019735114947	blockFiles/set_32/main_unc/leftBlue\GB_LB_1.xlsx
480	main_unc	True	0.0	209	0	8.0	8.0	1.0	1	right	1.0	0.0	1.0	1	0.011221126634599999	blockFiles/set_32/main_unc/leftBlue\GB_LB_1.xlsx
481	main_unc	True	0.0	209	0	8.0	8.0	0.0	1	left	2.0	1.0	1.0	0	-0.0627703283168	blockFiles/set_32/main_unc/leftBlue\GB_LB_1.xlsx
482	main_unc	True	0.0	209	0	8.0	8.0	1.0	1	right	1.0	0.0	1.0	1	0.0249669692479	blockFiles/set_32/main_unc/leftBlue\GB_LB_1.xlsx
483	main_unc	True	0.0	209	0	8.0	8.0	0.0	1	left	2.0	1.0	1.0	0	-0.0768313457258	blockFiles/set_32/main_unc/leftBlue\GB_LB_1.xlsx
484	main_unc	True	1.0	209	0	8.0	8.0	0.0	1	left	n/a	0.0	n/a	0	-0.0392536596581	blockFiles/set_32/main_unc/leftBlue\GB_LB_1.xlsx
485	main_unc	True	0.0	209	0	8.0	8.0	1.0	1	right	1.0	1.0	1.0	1	0.026093208286900003	blockFiles/set_32/main_unc/leftBlue\GB_LB_1.xlsx
486	main_unc	True	0.0	209	0	8.0	8.0	0.0	1	left	2.0	1.0	1.0	0	-0.0103148514405	blockFiles/set_32/main_unc/leftBlue\GB_LB_1.xlsx
487	main_unc	True	0.0	209	0	8.0	8.0	0.0	1	left	2.0	0.0	1.0	0	-0.0337003060244	blockFiles/set_32/main_unc/leftBlue\GB_LB_1.xlsx
488	main_unc	True	0.0	209	0	8.0	8.0	0.0	1	left	2.0	1.0	1.0	0	-0.0724790892936	blockFiles/set_32/main_unc/leftBlue\GB_LB_1.xlsx
489	main_unc	True	0.0	209	0	8.0	8.0	0.0	1	left	2.0	1.0	1.0	0	-0.0590365080908	blockFiles/set_32/main_unc/leftBlue\GB_LB_1.xlsx
490	main_unc	True	0.0	209	0	8.0	8.0	0.0	1	left	2.0	1.0	1.0	0	-0.00563979677856	blockFiles/set_32/main_unc/leftBlue\GB_LB_1.xlsx
491	main_unc	True	0.0	209	0	8.0	8.0	0.0	1	left	2.0	1.0	1.0	0	-0.0392536596581	blockFiles/set_32/main_unc/leftBlue\GB_LB_1.xlsx
492	main_unc	True	0.0	209	0	9.0	9.0	1.0	1	right	2.0	0.0	0.0	1	0.0426807534695	blockFiles/set_32/main_unc/leftBlue\GB_LB_4.xlsx
493	main_unc	True	0.0	209	0	9.0	9.0	1.0	1	right	1.0	1.0	1.0	1	0.0294142701291	blockFiles/set_32/main_unc/leftBlue\GB_LB_4.xlsx
494	main_unc	True	0.0	209	0	9.0	9.0	0.0	1	left	2.0	1.0	1.0	0	-0.0386507507414	blockFiles/set_32/main_unc/leftBlue\GB_LB_4.xlsx
495	main_unc	True	0.0	209	0	9.0	9.0	0.0	1	left	2.0	1.0	1.0	0	-0.0761789629422	blockFiles/set_32/main_unc/leftBlue\GB_LB_4.xlsx
496	main_unc	True	0.0	209	0	9.0	9.0	0.0	1	left	2.0	1.0	1.0	0	-0.0288702552207	blockFiles/set_32/main_unc/leftBlue\GB_LB_4.xlsx
497	main_unc	True	0.0	209	0	9.0	9.0	1.0	1	right	1.0	0.0	1.0	1	0.005945926662529999	blockFiles/set_32/main_unc/leftBlue\GB_LB_4.xlsx
498	main_unc	True	0.0	209	0	9.0	9.0	1.0	1	right	1.0	1.0	1.0	1	0.0444233042002	blockFiles/set_32/main_unc/leftBlue\GB_LB_4.xlsx
499	main_unc	True	0.0	209	0	9.0	9.0	0.0	0	left	2.0	0.0	0.0	1	0.007122666854410001	blockFiles/set_32/main_unc/leftBlue\GB_LB_4.xlsx
500	main_unc	True	0.0	209	0	9.0	9.0	1.0	1	right	1.0	0.0	1.0	1	0.0421840102598	blockFiles/set_32/main_unc/leftBlue\GB_LB_4.xlsx
501	main_unc	True	0.0	209	0	9.0	9.0	0.0	1	left	2.0	1.0	1.0	0	-0.0424841192551	blockFiles/set_32/main_unc/leftBlue\GB_LB_4.xlsx
502	main_unc	True	0.0	209	0	9.0	9.0	1.0	1	right	1.0	0.0	1.0	1	0.0553466225415	blockFiles/set_32/main_unc/leftBlue\GB_LB_4.xlsx
503	main_unc	True	0.0	209	0	9.0	9.0	1.0	1	right	1.0	0.0	1.0	1	0.022870622780200002	blockFiles/set_32/main_unc/leftBlue\GB_LB_4.xlsx
504	main_unc	True	0.0	209	0	9.0	9.0	1.0	1	right	1.0	1.0	1.0	1	0.0725141379051	blockFiles/set_32/main_unc/leftBlue\GB_LB_4.xlsx
505	main_unc	True	0.0	209	0	9.0	9.0	0.0	1	left	2.0	1.0	1.0	0	-0.06724446401	blockFiles/set_32/main_unc/leftBlue\GB_LB_4.xlsx
506	main_unc	True	0.0	209	0	9.0	9.0	0.0	1	left	2.0	0.0	1.0	0	-0.0111632348225	blockFiles/set_32/main_unc/leftBlue\GB_LB_4.xlsx
507	main_unc	True	0.0	209	0	9.0	9.0	0.0	0	left	1.0	1.0	1.0	1	0.00949263190851	blockFiles/set_32/main_unc/leftBlue\GB_LB_4.xlsx
508	main_unc	True	0.0	209	0	9.0	9.0	0.0	1	left	2.0	1.0	1.0	0	-0.052838923949699995	blockFiles/set_32/main_unc/leftBlue\GB_LB_4.xlsx
509	main_unc	True	0.0	209	0	9.0	9.0	0.0	1	left	2.0	1.0	1.0	0	-0.038581318929800004	blockFiles/set_32/main_unc/leftBlue\GB_LB_4.xlsx
510	main_unc	True	0.0	209	0	9.0	9.0	0.0	1	left	2.0	1.0	1.0	0	-0.0554326215945	blockFiles/set_32/main_unc/leftBlue\GB_LB_4.xlsx
511	main_unc	True	0.0	209	0	9.0	9.0	0.0	1	left	2.0	1.0	1.0	0	-0.0150195470825	blockFiles/set_32/main_unc/leftBlue\GB_LB_4.xlsx
512	main_unc	True	0.0	209	0	9.0	9.0	0.0	1	left	2.0	1.0	1.0	0	-0.0539485556446	blockFiles/set_32/main_unc/leftBlue\GB_LB_4.xlsx
513	main_unc	True	0.0	209	0	9.0	9.0	1.0	1	right	1.0	1.0	1.0	1	0.058882783278800005	blockFiles/set_32/main_unc/leftBlue\GB_LB_4.xlsx
514	main_unc	True	0.0	209	0	9.0	9.0	1.0	1	right	1.0	1.0	1.0	1	0.0786069256812	blockFiles/set_32/main_unc/leftBlue\GB_LB_4.xlsx
515	main_unc	True	0.0	209	0	9.0	9.0	0.0	1	left	2.0	1.0	1.0	0	-0.008014925718310001	blockFiles/set_32/main_unc/leftBlue\GB_LB_4.xlsx
516	main_unc	True	0.0	209	0	9.0	9.0	1.0	1	right	1.0	1.0	1.0	1	0.025598409883699998	blockFiles/set_32/main_unc/leftBlue\GB_LB_4.xlsx
517	main_unc	True	0.0	209	0	10.0	10.0	1.0	0	right	1.0	1.0	0.0	0	-0.00909578710794	blockFiles/set_32/main_unc/leftBlue\GB_LB_2.xlsx
518	main_unc	True	1.0	209	0	10.0	10.0	0.0	1	left	n/a	0.0	n/a	0	-0.0684954436682	blockFiles/set_32/main_unc/leftBlue\GB_LB_2.xlsx
519	main_unc	True	0.0	209	0	10.0	10.0	0.0	1	left	2.0	1.0	1.0	0	-0.053131028898099994	blockFiles/set_32/main_unc/leftBlue\GB_LB_2.xlsx
520	main_unc	True	0.0	209	0	10.0	10.0	0.0	1	left	2.0	1.0	1.0	0	-0.0493949542567	blockFiles/set_32/main_unc/leftBlue\GB_LB_2.xlsx
521	main_unc	True	0.0	209	0	10.0	10.0	0.0	0	left	1.0	1.0	1.0	1	0.005091613959520001	blockFiles/set_32/main_unc/leftBlue\GB_LB_2.xlsx
522	main_unc	True	0.0	209	0	10.0	10.0	0.0	1	left	2.0	1.0	1.0	0	-0.0603231758438	blockFiles/set_32/main_unc/leftBlue\GB_LB_2.xlsx
523	main_unc	True	0.0	209	0	10.0	10.0	1.0	1	right	1.0	1.0	1.0	1	0.0438383232057	blockFiles/set_32/main_unc/leftBlue\GB_LB_2.xlsx
524	main_unc	True	0.0	209	0	10.0	10.0	1.0	1	right	1.0	1.0	1.0	1	0.0647140605189	blockFiles/set_32/main_unc/leftBlue\GB_LB_2.xlsx
525	main_unc	True	0.0	209	0	10.0	10.0	1.0	1	right	1.0	1.0	1.0	1	0.040382104981699994	blockFiles/set_32/main_unc/leftBlue\GB_LB_2.xlsx
526	main_unc	True	0.0	209	0	10.0	10.0	0.0	1	left	2.0	1.0	1.0	0	-0.0185941736214	blockFiles/set_32/main_unc/leftBlue\GB_LB_2.xlsx
527	main_unc	True	0.0	209	0	10.0	10.0	1.0	1	right	1.0	1.0	1.0	1	0.0633812789619	blockFiles/set_32/main_unc/leftBlue\GB_LB_2.xlsx
528	main_unc	True	0.0	209	0	10.0	10.0	0.0	1	left	2.0	1.0	1.0	0	-0.0251076444797	blockFiles/set_32/main_unc/leftBlue\GB_LB_2.xlsx
529	main_unc	True	0.0	209	0	10.0	10.0	0.0	1	left	1.0	1.0	0.0	0	-0.028787650968900003	blockFiles/set_32/main_unc/leftBlue\GB_LB_2.xlsx
530	main_unc	True	0.0	209	0	10.0	10.0	1.0	1	right	1.0	1.0	1.0	1	0.015177966747399999	blockFiles/set_32/main_unc/leftBlue\GB_LB_2.xlsx
531	main_unc	True	0.0	209	0	10.0	10.0	0.0	0	left	1.0	1.0	1.0	1	0.016403755974	blockFiles/set_32/main_unc/leftBlue\GB_LB_2.xlsx
532	main_unc	True	0.0	209	0	10.0	10.0	1.0	1	right	1.0	0.0	1.0	1	0.04152838412669999	blockFiles/set_32/main_unc/leftBlue\GB_LB_2.xlsx
533	main_unc	True	0.0	209	0	10.0	10.0	1.0	1	right	1.0	1.0	1.0	1	0.0608412490599	blockFiles/set_32/main_unc/leftBlue\GB_LB_2.xlsx
534	main_unc	True	0.0	209	0	10.0	10.0	1.0	1	right	1.0	1.0	1.0	1	0.0175190413743	blockFiles/set_32/main_unc/leftBlue\GB_LB_2.xlsx
535	main_unc	True	0.0	209	0	10.0	10.0	0.0	1	left	2.0	1.0	1.0	0	-0.043451040480300004	blockFiles/set_32/main_unc/leftBlue\GB_LB_2.xlsx
536	main_unc	True	0.0	209	0	10.0	10.0	0.0	1	left	2.0	0.0	1.0	0	-0.0329994915426	blockFiles/set_32/main_unc/leftBlue\GB_LB_2.xlsx
537	main_unc	True	0.0	209	0	10.0	10.0	1.0	1	right	1.0	0.0	1.0	1	0.035190866887599995	blockFiles/set_32/main_unc/leftBlue\GB_LB_2.xlsx
538	main_unc	True	0.0	209	0	10.0	10.0	1.0	1	right	1.0	1.0	1.0	1	0.037370083015400006	blockFiles/set_32/main_unc/leftBlue\GB_LB_2.xlsx
539	main_unc	True	0.0	209	0	10.0	10.0	0.0	1	left	2.0	0.0	1.0	0	-0.0784484102018	blockFiles/set_32/main_unc/leftBlue\GB_LB_2.xlsx
540	main_unc	True	0.0	209	0	10.0	10.0	0.0	1	left	2.0	1.0	1.0	0	-0.0316215499118	blockFiles/set_32/main_unc/leftBlue\GB_LB_2.xlsx
541	main_unc	True	0.0	209	0	10.0	10.0	1.0	1	right	1.0	1.0	1.0	1	0.0369959418662	blockFiles/set_32/main_unc/leftBlue\GB_LB_2.xlsx
542	main_unc	True	0.0	209	0	10.0	10.0	0.0	1	left	2.0	1.0	1.0	0	-0.0684954436682	blockFiles/set_32/main_unc/leftBlue\GB_LB_2.xlsx
543	main_unc	True	0.0	209	0	11.0	11.0	1.0	1	right	2.0	0.0	0.0	1	0.0711925259978	blockFiles/set_32/main_unc/leftBlue\GB_LB_6.xlsx
544	main_unc	True	0.0	209	0	11.0	11.0	1.0	1	right	1.0	1.0	1.0	1	0.013751826714700002	blockFiles/set_32/main_unc/leftBlue\GB_LB_6.xlsx
545	main_unc	True	0.0	209	0	11.0	11.0	0.0	1	left	2.0	1.0	1.0	0	-0.0714147166722	blockFiles/set_32/main_unc/leftBlue\GB_LB_6.xlsx
546	main_unc	True	0.0	209	0	11.0	11.0	0.0	1	left	2.0	1.0	1.0	0	-0.0141650155559	blockFiles/set_32/main_unc/leftBlue\GB_LB_6.xlsx
547	main_unc	True	0.0	209	0	11.0	11.0	1.0	1	right	1.0	1.0	1.0	1	0.047277161497599994	blockFiles/set_32/main_unc/leftBlue\GB_LB_6.xlsx
548	main_unc	True	0.0	209	0	11.0	11.0	1.0	1	right	1.0	1.0	1.0	1	0.043436053954099996	blockFiles/set_32/main_unc/leftBlue\GB_LB_6.xlsx
549	main_unc	True	0.0	209	0	11.0	11.0	0.0	1	left	2.0	1.0	1.0	0	-0.0328894066811	blockFiles/set_32/main_unc/leftBlue\GB_LB_6.xlsx
550	main_unc	True	0.0	209	0	11.0	11.0	0.0	1	left	2.0	1.0	1.0	0	-0.0508100596815	blockFiles/set_32/main_unc/leftBlue\GB_LB_6.xlsx
551	main_unc	True	0.0	209	0	11.0	11.0	0.0	1	left	2.0	1.0	1.0	0	-0.017410429921	blockFiles/set_32/main_unc/leftBlue\GB_LB_6.xlsx
552	main_unc	True	0.0	209	0	11.0	11.0	1.0	1	right	1.0	1.0	1.0	1	0.0637396174669	blockFiles/set_32/main_unc/leftBlue\GB_LB_6.xlsx
553	main_unc	True	0.0	209	0	11.0	11.0	1.0	0	right	2.0	0.0	1.0	0	-0.009310272522270001	blockFiles/set_32/main_unc/leftBlue\GB_LB_6.xlsx
554	main_unc	True	0.0	209	0	11.0	11.0	0.0	1	left	2.0	1.0	1.0	0	-0.0183022886701	blockFiles/set_32/main_unc/leftBlue\GB_LB_6.xlsx
555	main_unc	True	0.0	209	0	11.0	11.0	1.0	1	right	1.0	1.0	1.0	1	0.07035857677460002	blockFiles/set_32/main_unc/leftBlue\GB_LB_6.xlsx
556	main_unc	True	0.0	209	0	11.0	11.0	0.0	1	left	2.0	0.0	1.0	0	-0.0329787965491	blockFiles/set_32/main_unc/leftBlue\GB_LB_6.xlsx
557	main_unc	True	0.0	209	0	11.0	11.0	0.0	1	left	2.0	1.0	1.0	0	-0.007187846228479999	blockFiles/set_32/main_unc/leftBlue\GB_LB_6.xlsx
558	main_unc	True	0.0	209	0	11.0	11.0	1.0	1	right	1.0	1.0	1.0	1	0.0384016159177	blockFiles/set_32/main_unc/leftBlue\GB_LB_6.xlsx
559	main_unc	True	0.0	209	0	11.0	11.0	1.0	1	right	1.0	1.0	1.0	1	0.0569233910367	blockFiles/set_32/main_unc/leftBlue\GB_LB_6.xlsx
560	main_unc	True	0.0	209	0	11.0	11.0	0.0	1	left	2.0	1.0	1.0	0	-0.0100391193666	blockFiles/set_32/main_unc/leftBlue\GB_LB_6.xlsx
561	main_unc	True	0.0	209	0	11.0	11.0	0.0	1	left	2.0	1.0	1.0	0	-0.007358662635090001	blockFiles/set_32/main_unc/leftBlue\GB_LB_6.xlsx
562	main_unc	True	0.0	209	0	11.0	11.0	1.0	1	right	1.0	1.0	1.0	1	0.0682864710875	blockFiles/set_32/main_unc/leftBlue\GB_LB_6.xlsx
563	main_unc	True	0.0	209	0	11.0	11.0	1.0	1	right	1.0	0.0	1.0	1	0.0335244131833	blockFiles/set_32/main_unc/leftBlue\GB_LB_6.xlsx
564	main_unc	True	0.0	209	0	11.0	11.0	0.0	1	left	2.0	1.0	1.0	0	-0.0600332794152	blockFiles/set_32/main_unc/leftBlue\GB_LB_6.xlsx
565	main_unc	True	0.0	209	0	11.0	11.0	0.0	1	left	2.0	0.0	1.0	0	-0.0142946184613	blockFiles/set_32/main_unc/leftBlue\GB_LB_6.xlsx
566	main_unc	True	0.0	209	0	11.0	11.0	0.0	0	left	1.0	0.0	1.0	1	0.011205522585700001	blockFiles/set_32/main_unc/leftBlue\GB_LB_6.xlsx
567	main_unc	True	0.0	209	0	11.0	11.0	1.0	1	right	1.0	1.0	1.0	1	0.0461365667172	blockFiles/set_32/main_unc/leftBlue\GB_LB_6.xlsx
