	trial_type	complete	missIndex	participant	id	blockNumber	b_t	d_t	decision1.corr	decision1.keys	a_t	r_t	decision2.corr	s_t	u_t	block_file
0	main_safe	True	0.0	446	0	0.0	0.0	1.0	1	right	2.0	0.0	0.0	1	0.08	blockFiles/set_22/main_safe/leftBlue\GB_LB_2.xlsx
1	main_safe	True	0.0	446	0	0.0	0.0	1.0	1	right	2.0	0.0	0.0	1	0.08	blockFiles/set_22/main_safe/leftBlue\GB_LB_2.xlsx
2	main_safe	True	0.0	446	0	0.0	0.0	1.0	1	right	1.0	1.0	1.0	1	0.08	blockFiles/set_22/main_safe/leftBlue\GB_LB_2.xlsx
3	main_safe	True	0.0	446	0	0.0	0.0	1.0	1	right	1.0	1.0	1.0	1	0.08	blockFiles/set_22/main_safe/leftBlue\GB_LB_2.xlsx
4	main_safe	True	0.0	446	0	0.0	0.0	1.0	1	right	1.0	0.0	1.0	1	0.08	blockFiles/set_22/main_safe/leftBlue\GB_LB_2.xlsx
5	main_safe	True	0.0	446	0	0.0	0.0	0.0	1	left	2.0	0.0	1.0	0	-0.08	blockFiles/set_22/main_safe/leftBlue\GB_LB_2.xlsx
6	main_safe	True	0.0	446	0	0.0	0.0	1.0	1	right	1.0	1.0	1.0	1	0.08	blockFiles/set_22/main_safe/leftBlue\GB_LB_2.xlsx
7	main_safe	True	0.0	446	0	0.0	0.0	1.0	1	right	1.0	0.0	1.0	1	0.08	blockFiles/set_22/main_safe/leftBlue\GB_LB_2.xlsx
8	main_safe	True	0.0	446	0	0.0	0.0	0.0	1	left	2.0	1.0	1.0	0	-0.08	blockFiles/set_22/main_safe/leftBlue\GB_LB_2.xlsx
9	main_safe	True	0.0	446	0	0.0	0.0	0.0	1	left	2.0	1.0	1.0	0	-0.08	blockFiles/set_22/main_safe/leftBlue\GB_LB_2.xlsx
10	main_safe	True	0.0	446	0	0.0	0.0	0.0	1	left	2.0	1.0	1.0	0	-0.08	blockFiles/set_22/main_safe/leftBlue\GB_LB_2.xlsx
11	main_safe	True	0.0	446	0	0.0	0.0	0.0	1	left	2.0	1.0	1.0	0	-0.08	blockFiles/set_22/main_safe/leftBlue\GB_LB_2.xlsx
12	main_safe	True	0.0	446	0	0.0	0.0	1.0	1	right	1.0	1.0	1.0	1	0.08	blockFiles/set_22/main_safe/leftBlue\GB_LB_2.xlsx
13	main_safe	True	0.0	446	0	0.0	0.0	1.0	1	right	1.0	1.0	1.0	1	0.08	blockFiles/set_22/main_safe/leftBlue\GB_LB_2.xlsx
14	main_safe	True	0.0	446	0	0.0	0.0	0.0	1	left	2.0	1.0	1.0	0	-0.08	blockFiles/set_22/main_safe/leftBlue\GB_LB_2.xlsx
15	main_safe	True	0.0	446	0	0.0	0.0	0.0	1	left	2.0	1.0	1.0	0	-0.08	blockFiles/set_22/main_safe/leftBlue\GB_LB_2.xlsx
16	main_safe	True	0.0	446	0	0.0	0.0	0.0	1	left	2.0	1.0	1.0	0	-0.08	blockFiles/set_22/main_safe/leftBlue\GB_LB_2.xlsx
17	main_safe	True	0.0	446	0	0.0	0.0	1.0	1	right	1.0	0.0	1.0	1	0.08	blockFiles/set_22/main_safe/leftBlue\GB_LB_2.xlsx
18	main_safe	True	0.0	446	0	0.0	0.0	1.0	1	right	1.0	1.0	1.0	1	0.08	blockFiles/set_22/main_safe/leftBlue\GB_LB_2.xlsx
19	main_safe	True	0.0	446	0	0.0	0.0	1.0	1	right	1.0	1.0	1.0	1	0.08	blockFiles/set_22/main_safe/leftBlue\GB_LB_2.xlsx
20	main_safe	True	0.0	446	0	0.0	0.0	0.0	1	left	2.0	1.0	1.0	0	-0.08	blockFiles/set_22/main_safe/leftBlue\GB_LB_2.xlsx
21	main_safe	True	0.0	446	0	0.0	0.0	0.0	1	left	2.0	1.0	1.0	0	-0.08	blockFiles/set_22/main_safe/leftBlue\GB_LB_2.xlsx
22	main_safe	True	0.0	446	0	0.0	0.0	1.0	1	right	1.0	1.0	1.0	1	0.08	blockFiles/set_22/main_safe/leftBlue\GB_LB_2.xlsx
23	main_safe	True	0.0	446	0	0.0	0.0	0.0	1	left	2.0	1.0	1.0	0	-0.08	blockFiles/set_22/main_safe/leftBlue\GB_LB_2.xlsx
24	main_safe	True	0.0	446	0	0.0	0.0	0.0	1	left	2.0	1.0	1.0	0	-0.08	blockFiles/set_22/main_safe/leftBlue\GB_LB_2.xlsx
25	main_safe	True	0.0	446	0	1.0	1.0	0.0	1	left	1.0	1.0	0.0	0	-0.08	blockFiles/set_22/main_safe/leftBlue\GB_LB_1.xlsx
26	main_safe	True	0.0	446	0	1.0	1.0	0.0	1	left	1.0	0.0	0.0	0	-0.08	blockFiles/set_22/main_safe/leftBlue\GB_LB_1.xlsx
27	main_safe	True	0.0	446	0	1.0	1.0	1.0	1	right	2.0	0.0	0.0	1	0.08	blockFiles/set_22/main_safe/leftBlue\GB_LB_1.xlsx
28	main_safe	True	0.0	446	0	1.0	1.0	1.0	1	right	2.0	0.0	0.0	1	0.08	blockFiles/set_22/main_safe/leftBlue\GB_LB_1.xlsx
29	main_safe	True	0.0	446	0	1.0	1.0	0.0	1	left	2.0	1.0	1.0	0	-0.08	blockFiles/set_22/main_safe/leftBlue\GB_LB_1.xlsx
30	main_safe	True	1.0	446	0	1.0	1.0	1.0	1	right	n/a	0.0	n/a	1	0.08	blockFiles/set_22/main_safe/leftBlue\GB_LB_1.xlsx
31	main_safe	True	0.0	446	0	1.0	1.0	1.0	1	right	2.0	0.0	0.0	1	0.08	blockFiles/set_22/main_safe/leftBlue\GB_LB_1.xlsx
32	main_safe	True	0.0	446	0	1.0	1.0	0.0	1	left	2.0	1.0	1.0	0	-0.08	blockFiles/set_22/main_safe/leftBlue\GB_LB_1.xlsx
33	main_safe	True	0.0	446	0	1.0	1.0	0.0	1	left	2.0	0.0	1.0	0	-0.08	blockFiles/set_22/main_safe/leftBlue\GB_LB_1.xlsx
34	main_safe	True	0.0	446	0	1.0	1.0	1.0	1	right	1.0	1.0	1.0	1	0.08	blockFiles/set_22/main_safe/leftBlue\GB_LB_1.xlsx
35	main_safe	True	0.0	446	0	1.0	1.0	0.0	1	left	2.0	0.0	1.0	0	-0.08	blockFiles/set_22/main_safe/leftBlue\GB_LB_1.xlsx
36	main_safe	True	0.0	446	0	1.0	1.0	0.0	1	left	2.0	0.0	1.0	0	-0.08	blockFiles/set_22/main_safe/leftBlue\GB_LB_1.xlsx
37	main_safe	True	0.0	446	0	1.0	1.0	0.0	1	left	2.0	1.0	1.0	0	-0.08	blockFiles/set_22/main_safe/leftBlue\GB_LB_1.xlsx
38	main_safe	True	0.0	446	0	1.0	1.0	1.0	1	right	1.0	1.0	1.0	1	0.08	blockFiles/set_22/main_safe/leftBlue\GB_LB_1.xlsx
39	main_safe	True	0.0	446	0	1.0	1.0	1.0	1	right	1.0	1.0	1.0	1	0.08	blockFiles/set_22/main_safe/leftBlue\GB_LB_1.xlsx
40	main_safe	True	0.0	446	0	1.0	1.0	1.0	1	right	1.0	1.0	1.0	1	0.08	blockFiles/set_22/main_safe/leftBlue\GB_LB_1.xlsx
41	main_safe	True	0.0	446	0	1.0	1.0	0.0	1	left	2.0	1.0	1.0	0	-0.08	blockFiles/set_22/main_safe/leftBlue\GB_LB_1.xlsx
42	main_safe	True	0.0	446	0	1.0	1.0	1.0	1	right	1.0	1.0	1.0	1	0.08	blockFiles/set_22/main_safe/leftBlue\GB_LB_1.xlsx
43	main_safe	True	0.0	446	0	1.0	1.0	1.0	1	right	1.0	0.0	1.0	1	0.08	blockFiles/set_22/main_safe/leftBlue\GB_LB_1.xlsx
44	main_safe	True	0.0	446	0	1.0	1.0	0.0	1	left	2.0	1.0	1.0	0	-0.08	blockFiles/set_22/main_safe/leftBlue\GB_LB_1.xlsx
45	main_safe	True	0.0	446	0	1.0	1.0	1.0	1	right	1.0	1.0	1.0	1	0.08	blockFiles/set_22/main_safe/leftBlue\GB_LB_1.xlsx
46	main_safe	True	0.0	446	0	1.0	1.0	1.0	1	right	1.0	1.0	1.0	1	0.08	blockFiles/set_22/main_safe/leftBlue\GB_LB_1.xlsx
47	main_safe	True	0.0	446	0	1.0	1.0	0.0	1	left	2.0	1.0	1.0	0	-0.08	blockFiles/set_22/main_safe/leftBlue\GB_LB_1.xlsx
48	main_safe	True	0.0	446	0	1.0	1.0	0.0	1	left	2.0	1.0	1.0	0	-0.08	blockFiles/set_22/main_safe/leftBlue\GB_LB_1.xlsx
49	main_safe	True	0.0	446	0	1.0	1.0	1.0	1	right	1.0	1.0	1.0	1	0.08	blockFiles/set_22/main_safe/leftBlue\GB_LB_1.xlsx
50	main_safe	True	0.0	446	0	1.0	1.0	1.0	1	right	1.0	1.0	1.0	1	0.08	blockFiles/set_22/main_safe/leftBlue\GB_LB_1.xlsx
51	main_safe	True	0.0	446	0	2.0	2.0	1.0	1	right	1.0	0.0	0.0	1	0.08	blockFiles/set_22/main_safe/rightBlue\GB_RB_2.xlsx
52	main_safe	True	0.0	446	0	2.0	2.0	1.0	1	right	1.0	1.0	0.0	1	0.08	blockFiles/set_22/main_safe/rightBlue\GB_RB_2.xlsx
53	main_safe	True	0.0	446	0	2.0	2.0	0.0	1	left	2.0	0.0	0.0	0	-0.08	blockFiles/set_22/main_safe/rightBlue\GB_RB_2.xlsx
54	main_safe	True	0.0	446	0	2.0	2.0	1.0	1	right	1.0	0.0	0.0	1	0.08	blockFiles/set_22/main_safe/rightBlue\GB_RB_2.xlsx
55	main_safe	True	0.0	446	0	2.0	2.0	1.0	1	right	2.0	0.0	1.0	1	0.08	blockFiles/set_22/main_safe/rightBlue\GB_RB_2.xlsx
56	main_safe	True	0.0	446	0	2.0	2.0	1.0	1	right	2.0	1.0	1.0	1	0.08	blockFiles/set_22/main_safe/rightBlue\GB_RB_2.xlsx
57	main_safe	True	0.0	446	0	2.0	2.0	1.0	1	right	2.0	1.0	1.0	1	0.08	blockFiles/set_22/main_safe/rightBlue\GB_RB_2.xlsx
58	main_safe	True	0.0	446	0	2.0	2.0	0.0	1	left	1.0	1.0	1.0	0	-0.08	blockFiles/set_22/main_safe/rightBlue\GB_RB_2.xlsx
59	main_safe	True	0.0	446	0	2.0	2.0	0.0	1	left	1.0	0.0	1.0	0	-0.08	blockFiles/set_22/main_safe/rightBlue\GB_RB_2.xlsx
60	main_safe	True	0.0	446	0	2.0	2.0	0.0	1	left	1.0	1.0	1.0	0	-0.08	blockFiles/set_22/main_safe/rightBlue\GB_RB_2.xlsx
61	main_safe	True	0.0	446	0	2.0	2.0	1.0	1	right	2.0	1.0	1.0	1	0.08	blockFiles/set_22/main_safe/rightBlue\GB_RB_2.xlsx
62	main_safe	True	0.0	446	0	2.0	2.0	0.0	1	left	1.0	1.0	1.0	0	-0.08	blockFiles/set_22/main_safe/rightBlue\GB_RB_2.xlsx
63	main_safe	True	0.0	446	0	2.0	2.0	0.0	1	left	1.0	1.0	1.0	0	-0.08	blockFiles/set_22/main_safe/rightBlue\GB_RB_2.xlsx
64	main_safe	True	0.0	446	0	2.0	2.0	0.0	1	left	1.0	1.0	1.0	0	-0.08	blockFiles/set_22/main_safe/rightBlue\GB_RB_2.xlsx
65	main_safe	True	0.0	446	0	2.0	2.0	0.0	1	left	1.0	1.0	1.0	0	-0.08	blockFiles/set_22/main_safe/rightBlue\GB_RB_2.xlsx
66	main_safe	True	0.0	446	0	2.0	2.0	0.0	1	left	1.0	1.0	1.0	0	-0.08	blockFiles/set_22/main_safe/rightBlue\GB_RB_2.xlsx
67	main_safe	True	0.0	446	0	2.0	2.0	0.0	1	left	1.0	1.0	1.0	0	-0.08	blockFiles/set_22/main_safe/rightBlue\GB_RB_2.xlsx
68	main_safe	True	0.0	446	0	2.0	2.0	1.0	1	right	2.0	1.0	1.0	1	0.08	blockFiles/set_22/main_safe/rightBlue\GB_RB_2.xlsx
69	main_safe	True	0.0	446	0	2.0	2.0	1.0	1	right	2.0	1.0	1.0	1	0.08	blockFiles/set_22/main_safe/rightBlue\GB_RB_2.xlsx
70	main_safe	True	0.0	446	0	2.0	2.0	0.0	1	left	1.0	1.0	1.0	0	-0.08	blockFiles/set_22/main_safe/rightBlue\GB_RB_2.xlsx
71	main_safe	True	0.0	446	0	2.0	2.0	0.0	1	left	1.0	1.0	1.0	0	-0.08	blockFiles/set_22/main_safe/rightBlue\GB_RB_2.xlsx
72	main_safe	True	0.0	446	0	2.0	2.0	1.0	1	right	2.0	0.0	1.0	1	0.08	blockFiles/set_22/main_safe/rightBlue\GB_RB_2.xlsx
73	main_safe	True	0.0	446	0	2.0	2.0	1.0	1	right	2.0	0.0	1.0	1	0.08	blockFiles/set_22/main_safe/rightBlue\GB_RB_2.xlsx
74	main_safe	True	0.0	446	0	2.0	2.0	1.0	1	right	2.0	1.0	1.0	1	0.08	blockFiles/set_22/main_safe/rightBlue\GB_RB_2.xlsx
75	main_safe	True	0.0	446	0	2.0	2.0	1.0	1	right	2.0	1.0	1.0	1	0.08	blockFiles/set_22/main_safe/rightBlue\GB_RB_2.xlsx
76	main_safe	True	0.0	446	0	3.0	3.0	0.0	1	left	2.0	0.0	0.0	0	-0.08	blockFiles/set_22/main_safe/rightBlue\GB_RB_3.xlsx
77	main_safe	True	0.0	446	0	3.0	3.0	0.0	1	left	2.0	0.0	0.0	0	-0.08	blockFiles/set_22/main_safe/rightBlue\GB_RB_3.xlsx
78	main_safe	True	0.0	446	0	3.0	3.0	1.0	1	right	1.0	0.0	0.0	1	0.08	blockFiles/set_22/main_safe/rightBlue\GB_RB_3.xlsx
79	main_safe	True	0.0	446	0	3.0	3.0	1.0	1	right	2.0	1.0	1.0	1	0.08	blockFiles/set_22/main_safe/rightBlue\GB_RB_3.xlsx
80	main_safe	True	0.0	446	0	3.0	3.0	1.0	1	right	2.0	1.0	1.0	1	0.08	blockFiles/set_22/main_safe/rightBlue\GB_RB_3.xlsx
81	main_safe	True	0.0	446	0	3.0	3.0	1.0	1	right	2.0	1.0	1.0	1	0.08	blockFiles/set_22/main_safe/rightBlue\GB_RB_3.xlsx
82	main_safe	True	0.0	446	0	3.0	3.0	0.0	1	left	1.0	1.0	1.0	0	-0.08	blockFiles/set_22/main_safe/rightBlue\GB_RB_3.xlsx
83	main_safe	True	0.0	446	0	3.0	3.0	1.0	1	right	2.0	1.0	1.0	1	0.08	blockFiles/set_22/main_safe/rightBlue\GB_RB_3.xlsx
84	main_safe	True	0.0	446	0	3.0	3.0	0.0	1	left	1.0	1.0	1.0	0	-0.08	blockFiles/set_22/main_safe/rightBlue\GB_RB_3.xlsx
85	main_safe	True	0.0	446	0	3.0	3.0	0.0	1	left	1.0	1.0	1.0	0	-0.08	blockFiles/set_22/main_safe/rightBlue\GB_RB_3.xlsx
86	main_safe	True	0.0	446	0	3.0	3.0	0.0	1	left	1.0	1.0	1.0	0	-0.08	blockFiles/set_22/main_safe/rightBlue\GB_RB_3.xlsx
87	main_safe	True	0.0	446	0	3.0	3.0	0.0	1	left	1.0	0.0	1.0	0	-0.08	blockFiles/set_22/main_safe/rightBlue\GB_RB_3.xlsx
88	main_safe	True	0.0	446	0	3.0	3.0	1.0	1	right	2.0	1.0	1.0	1	0.08	blockFiles/set_22/main_safe/rightBlue\GB_RB_3.xlsx
89	main_safe	True	0.0	446	0	3.0	3.0	1.0	1	right	2.0	1.0	1.0	1	0.08	blockFiles/set_22/main_safe/rightBlue\GB_RB_3.xlsx
90	main_safe	True	0.0	446	0	3.0	3.0	1.0	1	right	2.0	1.0	1.0	1	0.08	blockFiles/set_22/main_safe/rightBlue\GB_RB_3.xlsx
91	main_safe	True	0.0	446	0	3.0	3.0	0.0	1	left	1.0	1.0	1.0	0	-0.08	blockFiles/set_22/main_safe/rightBlue\GB_RB_3.xlsx
92	main_safe	True	0.0	446	0	3.0	3.0	0.0	1	left	1.0	0.0	1.0	0	-0.08	blockFiles/set_22/main_safe/rightBlue\GB_RB_3.xlsx
93	main_safe	True	0.0	446	0	3.0	3.0	1.0	1	right	2.0	1.0	1.0	1	0.08	blockFiles/set_22/main_safe/rightBlue\GB_RB_3.xlsx
94	main_safe	True	0.0	446	0	3.0	3.0	1.0	1	right	2.0	1.0	1.0	1	0.08	blockFiles/set_22/main_safe/rightBlue\GB_RB_3.xlsx
95	main_safe	True	0.0	446	0	3.0	3.0	0.0	1	left	1.0	1.0	1.0	0	-0.08	blockFiles/set_22/main_safe/rightBlue\GB_RB_3.xlsx
96	main_safe	True	0.0	446	0	3.0	3.0	1.0	1	right	2.0	1.0	1.0	1	0.08	blockFiles/set_22/main_safe/rightBlue\GB_RB_3.xlsx
97	main_safe	True	0.0	446	0	3.0	3.0	0.0	1	left	1.0	0.0	1.0	0	-0.08	blockFiles/set_22/main_safe/rightBlue\GB_RB_3.xlsx
98	main_safe	True	0.0	446	0	3.0	3.0	0.0	1	left	1.0	0.0	1.0	0	-0.08	blockFiles/set_22/main_safe/rightBlue\GB_RB_3.xlsx
99	main_safe	True	0.0	446	0	3.0	3.0	1.0	1	right	2.0	1.0	1.0	1	0.08	blockFiles/set_22/main_safe/rightBlue\GB_RB_3.xlsx
100	main_safe	True	0.0	446	0	3.0	3.0	1.0	1	right	2.0	1.0	1.0	1	0.08	blockFiles/set_22/main_safe/rightBlue\GB_RB_3.xlsx
101	main_safe	True	0.0	446	0	4.0	4.0	1.0	1	right	1.0	0.0	1.0	1	0.08	blockFiles/set_22/main_safe/leftBlue\GB_LB_3.xlsx
102	main_safe	True	0.0	446	0	4.0	4.0	1.0	1	right	1.0	1.0	1.0	1	0.08	blockFiles/set_22/main_safe/leftBlue\GB_LB_3.xlsx
103	main_safe	True	0.0	446	0	4.0	4.0	1.0	1	right	1.0	1.0	1.0	1	0.08	blockFiles/set_22/main_safe/leftBlue\GB_LB_3.xlsx
104	main_safe	True	0.0	446	0	4.0	4.0	1.0	1	right	1.0	1.0	1.0	1	0.08	blockFiles/set_22/main_safe/leftBlue\GB_LB_3.xlsx
105	main_safe	True	0.0	446	0	4.0	4.0	0.0	1	left	2.0	0.0	1.0	0	-0.08	blockFiles/set_22/main_safe/leftBlue\GB_LB_3.xlsx
106	main_safe	True	0.0	446	0	4.0	4.0	0.0	1	left	2.0	1.0	1.0	0	-0.08	blockFiles/set_22/main_safe/leftBlue\GB_LB_3.xlsx
107	main_safe	True	0.0	446	0	4.0	4.0	0.0	1	left	2.0	1.0	1.0	0	-0.08	blockFiles/set_22/main_safe/leftBlue\GB_LB_3.xlsx
108	main_safe	True	0.0	446	0	4.0	4.0	1.0	1	right	1.0	0.0	1.0	1	0.08	blockFiles/set_22/main_safe/leftBlue\GB_LB_3.xlsx
109	main_safe	True	0.0	446	0	4.0	4.0	0.0	1	left	2.0	1.0	1.0	0	-0.08	blockFiles/set_22/main_safe/leftBlue\GB_LB_3.xlsx
110	main_safe	True	0.0	446	0	4.0	4.0	1.0	1	right	1.0	1.0	1.0	1	0.08	blockFiles/set_22/main_safe/leftBlue\GB_LB_3.xlsx
111	main_safe	True	0.0	446	0	4.0	4.0	0.0	1	left	2.0	1.0	1.0	0	-0.08	blockFiles/set_22/main_safe/leftBlue\GB_LB_3.xlsx
112	main_safe	True	0.0	446	0	4.0	4.0	0.0	1	left	2.0	0.0	1.0	0	-0.08	blockFiles/set_22/main_safe/leftBlue\GB_LB_3.xlsx
113	main_safe	True	0.0	446	0	4.0	4.0	0.0	1	left	2.0	0.0	1.0	0	-0.08	blockFiles/set_22/main_safe/leftBlue\GB_LB_3.xlsx
114	main_safe	True	0.0	446	0	4.0	4.0	0.0	1	left	2.0	1.0	1.0	0	-0.08	blockFiles/set_22/main_safe/leftBlue\GB_LB_3.xlsx
115	main_safe	True	0.0	446	0	4.0	4.0	1.0	1	right	1.0	1.0	1.0	1	0.08	blockFiles/set_22/main_safe/leftBlue\GB_LB_3.xlsx
116	main_safe	True	0.0	446	0	4.0	4.0	1.0	1	right	1.0	1.0	1.0	1	0.08	blockFiles/set_22/main_safe/leftBlue\GB_LB_3.xlsx
117	main_safe	True	0.0	446	0	4.0	4.0	0.0	1	left	2.0	1.0	1.0	0	-0.08	blockFiles/set_22/main_safe/leftBlue\GB_LB_3.xlsx
118	main_safe	True	0.0	446	0	4.0	4.0	1.0	1	right	1.0	1.0	1.0	1	0.08	blockFiles/set_22/main_safe/leftBlue\GB_LB_3.xlsx
119	main_safe	True	0.0	446	0	4.0	4.0	1.0	1	right	1.0	1.0	1.0	1	0.08	blockFiles/set_22/main_safe/leftBlue\GB_LB_3.xlsx
120	main_safe	True	0.0	446	0	4.0	4.0	0.0	1	left	2.0	1.0	1.0	0	-0.08	blockFiles/set_22/main_safe/leftBlue\GB_LB_3.xlsx
121	main_safe	True	0.0	446	0	4.0	4.0	1.0	1	right	1.0	1.0	1.0	1	0.08	blockFiles/set_22/main_safe/leftBlue\GB_LB_3.xlsx
122	main_safe	True	0.0	446	0	4.0	4.0	0.0	1	left	2.0	1.0	1.0	0	-0.08	blockFiles/set_22/main_safe/leftBlue\GB_LB_3.xlsx
123	main_safe	True	0.0	446	0	4.0	4.0	1.0	1	right	1.0	1.0	1.0	1	0.08	blockFiles/set_22/main_safe/leftBlue\GB_LB_3.xlsx
124	main_safe	True	0.0	446	0	4.0	4.0	1.0	1	right	1.0	1.0	1.0	1	0.08	blockFiles/set_22/main_safe/leftBlue\GB_LB_3.xlsx
125	main_safe	True	0.0	446	0	4.0	4.0	0.0	1	left	2.0	1.0	1.0	0	-0.08	blockFiles/set_22/main_safe/leftBlue\GB_LB_3.xlsx
126	main_safe	True	0.0	446	0	5.0	5.0	1.0	1	right	1.0	0.0	0.0	1	0.08	blockFiles/set_22/main_safe/rightBlue\GB_RB_1.xlsx
127	main_safe	True	0.0	446	0	5.0	5.0	0.0	1	left	2.0	0.0	0.0	0	-0.08	blockFiles/set_22/main_safe/rightBlue\GB_RB_1.xlsx
128	main_safe	True	0.0	446	0	5.0	5.0	0.0	1	left	2.0	1.0	0.0	0	-0.08	blockFiles/set_22/main_safe/rightBlue\GB_RB_1.xlsx
129	main_safe	True	0.0	446	0	5.0	5.0	0.0	1	left	2.0	0.0	0.0	0	-0.08	blockFiles/set_22/main_safe/rightBlue\GB_RB_1.xlsx
130	main_safe	True	0.0	446	0	5.0	5.0	0.0	1	left	2.0	0.0	0.0	0	-0.08	blockFiles/set_22/main_safe/rightBlue\GB_RB_1.xlsx
131	main_safe	True	0.0	446	0	5.0	5.0	0.0	1	left	1.0	0.0	1.0	0	-0.08	blockFiles/set_22/main_safe/rightBlue\GB_RB_1.xlsx
132	main_safe	True	0.0	446	0	5.0	5.0	0.0	1	left	1.0	1.0	1.0	0	-0.08	blockFiles/set_22/main_safe/rightBlue\GB_RB_1.xlsx
133	main_safe	True	0.0	446	0	5.0	5.0	1.0	1	right	1.0	0.0	0.0	1	0.08	blockFiles/set_22/main_safe/rightBlue\GB_RB_1.xlsx
134	main_safe	True	0.0	446	0	5.0	5.0	0.0	1	left	1.0	1.0	1.0	0	-0.08	blockFiles/set_22/main_safe/rightBlue\GB_RB_1.xlsx
135	main_safe	True	0.0	446	0	5.0	5.0	0.0	1	left	1.0	1.0	1.0	0	-0.08	blockFiles/set_22/main_safe/rightBlue\GB_RB_1.xlsx
136	main_safe	True	0.0	446	0	5.0	5.0	1.0	1	right	2.0	1.0	1.0	1	0.08	blockFiles/set_22/main_safe/rightBlue\GB_RB_1.xlsx
137	main_safe	True	0.0	446	0	5.0	5.0	0.0	0	left	1.0	0.0	0.0	1	0.08	blockFiles/set_22/main_safe/rightBlue\GB_RB_1.xlsx
138	main_safe	True	0.0	446	0	5.0	5.0	1.0	1	right	2.0	1.0	1.0	1	0.08	blockFiles/set_22/main_safe/rightBlue\GB_RB_1.xlsx
139	main_safe	True	0.0	446	0	5.0	5.0	1.0	1	right	2.0	0.0	1.0	1	0.08	blockFiles/set_22/main_safe/rightBlue\GB_RB_1.xlsx
140	main_safe	True	0.0	446	0	5.0	5.0	1.0	1	right	2.0	1.0	1.0	1	0.08	blockFiles/set_22/main_safe/rightBlue\GB_RB_1.xlsx
141	main_safe	True	0.0	446	0	5.0	5.0	0.0	1	left	1.0	0.0	1.0	0	-0.08	blockFiles/set_22/main_safe/rightBlue\GB_RB_1.xlsx
142	main_safe	True	0.0	446	0	5.0	5.0	0.0	1	left	1.0	1.0	1.0	0	-0.08	blockFiles/set_22/main_safe/rightBlue\GB_RB_1.xlsx
143	main_safe	True	0.0	446	0	5.0	5.0	0.0	1	left	1.0	1.0	1.0	0	-0.08	blockFiles/set_22/main_safe/rightBlue\GB_RB_1.xlsx
144	main_safe	True	0.0	446	0	5.0	5.0	1.0	1	right	2.0	1.0	1.0	1	0.08	blockFiles/set_22/main_safe/rightBlue\GB_RB_1.xlsx
145	main_safe	True	0.0	446	0	5.0	5.0	1.0	1	right	2.0	1.0	1.0	1	0.08	blockFiles/set_22/main_safe/rightBlue\GB_RB_1.xlsx
146	main_safe	True	0.0	446	0	5.0	5.0	1.0	1	right	2.0	0.0	1.0	1	0.08	blockFiles/set_22/main_safe/rightBlue\GB_RB_1.xlsx
147	main_safe	True	0.0	446	0	5.0	5.0	0.0	1	left	1.0	0.0	1.0	0	-0.08	blockFiles/set_22/main_safe/rightBlue\GB_RB_1.xlsx
148	main_safe	True	0.0	446	0	5.0	5.0	1.0	1	right	2.0	1.0	1.0	1	0.08	blockFiles/set_22/main_safe/rightBlue\GB_RB_1.xlsx
149	main_safe	True	0.0	446	0	5.0	5.0	1.0	1	right	2.0	1.0	1.0	1	0.08	blockFiles/set_22/main_safe/rightBlue\GB_RB_1.xlsx
150	main_safe	True	0.0	446	0	5.0	5.0	0.0	1	left	1.0	1.0	1.0	0	-0.08	blockFiles/set_22/main_safe/rightBlue\GB_RB_1.xlsx
151	patches	True	n/a	446	0	n/a	n/a	0.0	1	left	n/a	n/a	n/a	0	-0.0530534213223	blockFiles/set_22/main_PD/GB_runPatches1.xlsx
152	patches	True	n/a	446	0	n/a	n/a	1.0	1	right	n/a	n/a	n/a	1	0.07074666418139999	blockFiles/set_22/main_PD/GB_runPatches1.xlsx
153	patches	True	n/a	446	0	n/a	n/a	1.0	1	right	n/a	n/a	n/a	1	0.035889812055999996	blockFiles/set_22/main_PD/GB_runPatches1.xlsx
154	patches	True	n/a	446	0	n/a	n/a	0.0	1	left	n/a	n/a	n/a	0	-0.00579568915069	blockFiles/set_22/main_PD/GB_runPatches1.xlsx
155	patches	True	n/a	446	0	n/a	n/a	0.0	1	left	n/a	n/a	n/a	0	-0.0347989782877	blockFiles/set_22/main_PD/GB_runPatches1.xlsx
156	patches	True	n/a	446	0	n/a	n/a	0.0	1	left	n/a	n/a	n/a	0	-0.0662746451423	blockFiles/set_22/main_PD/GB_runPatches1.xlsx
157	patches	True	n/a	446	0	n/a	n/a	0.0	1	left	n/a	n/a	n/a	0	-0.0307172904722	blockFiles/set_22/main_PD/GB_runPatches1.xlsx
158	patches	True	n/a	446	0	n/a	n/a	0.0	0	left	n/a	n/a	n/a	1	0.0246934154257	blockFiles/set_22/main_PD/GB_runPatches1.xlsx
159	patches	True	n/a	446	0	n/a	n/a	0.0	1	left	n/a	n/a	n/a	0	-0.0703258302063	blockFiles/set_22/main_PD/GB_runPatches1.xlsx
160	patches	True	n/a	446	0	n/a	n/a	1.0	1	right	n/a	n/a	n/a	1	0.0533366666362	blockFiles/set_22/main_PD/GB_runPatches1.xlsx
161	patches	True	n/a	446	0	n/a	n/a	n/a	0	None	n/a	n/a	n/a	1	0.035098706279000004	blockFiles/set_22/main_PD/GB_runPatches1.xlsx
162	patches	True	n/a	446	0	n/a	n/a	1.0	0	right	n/a	n/a	n/a	0	-0.019274606946900003	blockFiles/set_22/main_PD/GB_runPatches1.xlsx
163	patches	True	n/a	446	0	n/a	n/a	0.0	0	left	n/a	n/a	n/a	1	0.028570792265200002	blockFiles/set_22/main_PD/GB_runPatches1.xlsx
164	patches	True	n/a	446	0	n/a	n/a	1.0	1	right	n/a	n/a	n/a	1	0.0734138446301	blockFiles/set_22/main_PD/GB_runPatches1.xlsx
165	patches	True	n/a	446	0	n/a	n/a	n/a	0	None	n/a	n/a	n/a	1	0.025169831235000002	blockFiles/set_22/main_PD/GB_runPatches1.xlsx
166	patches	True	n/a	446	0	n/a	n/a	1.0	1	right	n/a	n/a	n/a	1	0.0290732243285	blockFiles/set_22/main_PD/GB_runPatches1.xlsx
167	patches	True	n/a	446	0	n/a	n/a	0.0	1	left	n/a	n/a	n/a	0	-0.07634518051519999	blockFiles/set_22/main_PD/GB_runPatches1.xlsx
168	patches	True	n/a	446	0	n/a	n/a	0.0	0	left	n/a	n/a	n/a	1	0.0217462339066	blockFiles/set_22/main_PD/GB_runPatches1.xlsx
169	patches	True	n/a	446	0	n/a	n/a	0.0	0	left	n/a	n/a	n/a	1	0.0216032670438	blockFiles/set_22/main_PD/GB_runPatches1.xlsx
170	patches	True	n/a	446	0	n/a	n/a	1.0	1	right	n/a	n/a	n/a	1	0.0487358577736	blockFiles/set_22/main_PD/GB_runPatches1.xlsx
171	patches	True	n/a	446	0	n/a	n/a	0.0	1	left	n/a	n/a	n/a	0	-0.00182408820838	blockFiles/set_22/main_PD/GB_runPatches1.xlsx
172	patches	True	n/a	446	0	n/a	n/a	1.0	1	right	n/a	n/a	n/a	1	0.0772445483506	blockFiles/set_22/main_PD/GB_runPatches1.xlsx
173	patches	True	n/a	446	0	n/a	n/a	0.0	1	left	n/a	n/a	n/a	0	-0.0699942276627	blockFiles/set_22/main_PD/GB_runPatches1.xlsx
174	patches	True	n/a	446	0	n/a	n/a	0.0	1	left	n/a	n/a	n/a	0	-0.00232334507629	blockFiles/set_22/main_PD/GB_runPatches1.xlsx
175	patches	True	n/a	446	0	n/a	n/a	0.0	1	left	n/a	n/a	n/a	0	-0.054253547117099996	blockFiles/set_22/main_PD/GB_runPatches1.xlsx
176	patches	True	n/a	446	0	n/a	n/a	1.0	1	right	n/a	n/a	n/a	1	0.0355554491654	blockFiles/set_22/main_PD/GB_runPatches1.xlsx
177	patches	True	n/a	446	0	n/a	n/a	0.0	0	left	n/a	n/a	n/a	1	0.013205812256799999	blockFiles/set_22/main_PD/GB_runPatches1.xlsx
178	patches	True	n/a	446	0	n/a	n/a	0.0	1	left	n/a	n/a	n/a	0	-0.058929707519699996	blockFiles/set_22/main_PD/GB_runPatches1.xlsx
179	patches	True	n/a	446	0	n/a	n/a	1.0	1	right	n/a	n/a	n/a	1	0.07621351670469999	blockFiles/set_22/main_PD/GB_runPatches1.xlsx
180	patches	True	n/a	446	0	n/a	n/a	1.0	1	right	n/a	n/a	n/a	1	0.0795131328329	blockFiles/set_22/main_PD/GB_runPatches1.xlsx
181	patches	True	n/a	446	0	n/a	n/a	1.0	1	right	n/a	n/a	n/a	1	0.0167403855361	blockFiles/set_22/main_PD/GB_runPatches1.xlsx
182	patches	True	n/a	446	0	n/a	n/a	0.0	0	left	n/a	n/a	n/a	1	0.0113876002282	blockFiles/set_22/main_PD/GB_runPatches1.xlsx
183	patches	True	n/a	446	0	n/a	n/a	0.0	1	left	n/a	n/a	n/a	0	-0.0586143806204	blockFiles/set_22/main_PD/GB_runPatches1.xlsx
184	patches	True	n/a	446	0	n/a	n/a	0.0	1	left	n/a	n/a	n/a	0	-0.062087773680699995	blockFiles/set_22/main_PD/GB_runPatches1.xlsx
185	patches	True	n/a	446	0	n/a	n/a	0.0	0	left	n/a	n/a	n/a	1	0.00034898363053800004	blockFiles/set_22/main_PD/GB_runPatches1.xlsx
186	patches	True	n/a	446	0	n/a	n/a	0.0	1	left	n/a	n/a	n/a	0	-0.0174286972545	blockFiles/set_22/main_PD/GB_runPatches1.xlsx
187	patches	True	n/a	446	0	n/a	n/a	0.0	1	left	n/a	n/a	n/a	0	-0.012602450307499999	blockFiles/set_22/main_PD/GB_runPatches1.xlsx
188	patches	True	n/a	446	0	n/a	n/a	0.0	1	left	n/a	n/a	n/a	0	-0.0636365997232	blockFiles/set_22/main_PD/GB_runPatches1.xlsx
189	patches	True	n/a	446	0	n/a	n/a	0.0	1	left	n/a	n/a	n/a	0	-0.0772621856071	blockFiles/set_22/main_PD/GB_runPatches1.xlsx
190	patches	True	n/a	446	0	n/a	n/a	0.0	1	left	n/a	n/a	n/a	0	-0.0479610555246	blockFiles/set_22/main_PD/GB_runPatches1.xlsx
191	patches	True	n/a	446	0	n/a	n/a	1.0	1	right	n/a	n/a	n/a	1	0.0244726392999	blockFiles/set_22/main_PD/GB_runPatches1.xlsx
192	patches	True	n/a	446	0	n/a	n/a	0.0	0	left	n/a	n/a	n/a	1	0.008686043526979999	blockFiles/set_22/main_PD/GB_runPatches1.xlsx
193	patches	True	n/a	446	0	n/a	n/a	0.0	1	left	n/a	n/a	n/a	0	-0.0542359367758	blockFiles/set_22/main_PD/GB_runPatches1.xlsx
194	patches	True	n/a	446	0	n/a	n/a	1.0	1	right	n/a	n/a	n/a	1	0.0487325258926	blockFiles/set_22/main_PD/GB_runPatches1.xlsx
195	patches	True	n/a	446	0	n/a	n/a	0.0	0	left	n/a	n/a	n/a	1	0.0222064992972	blockFiles/set_22/main_PD/GB_runPatches1.xlsx
196	patches	True	n/a	446	0	n/a	n/a	0.0	1	left	n/a	n/a	n/a	0	-0.0245965592936	blockFiles/set_22/main_PD/GB_runPatches1.xlsx
197	patches	True	n/a	446	0	n/a	n/a	0.0	1	left	n/a	n/a	n/a	0	-0.034208984952400004	blockFiles/set_22/main_PD/GB_runPatches1.xlsx
198	patches	True	n/a	446	0	n/a	n/a	0.0	1	left	n/a	n/a	n/a	0	-0.030823966804900002	blockFiles/set_22/main_PD/GB_runPatches1.xlsx
199	patches	True	n/a	446	0	n/a	n/a	0.0	1	left	n/a	n/a	n/a	0	-0.07416591141369999	blockFiles/set_22/main_PD/GB_runPatches1.xlsx
200	patches	True	n/a	446	0	n/a	n/a	1.0	1	right	n/a	n/a	n/a	1	0.0408358881995	blockFiles/set_22/main_PD/GB_runPatches1.xlsx
201	patches	True	n/a	446	0	n/a	n/a	1.0	0	right	n/a	n/a	n/a	0	-0.0144602800906	blockFiles/set_22/main_PD/GB_runPatches1.xlsx
202	patches	True	n/a	446	0	n/a	n/a	0.0	1	left	n/a	n/a	n/a	0	-0.0151796041988	blockFiles/set_22/main_PD/GB_runPatches1.xlsx
203	patches	True	n/a	446	0	n/a	n/a	0.0	1	left	n/a	n/a	n/a	0	-0.0389270060323	blockFiles/set_22/main_PD/GB_runPatches1.xlsx
204	patches	True	n/a	446	0	n/a	n/a	1.0	1	right	n/a	n/a	n/a	1	0.047830007895800004	blockFiles/set_22/main_PD/GB_runPatches1.xlsx
205	patches	True	n/a	446	0	n/a	n/a	1.0	1	right	n/a	n/a	n/a	1	0.047941697109500005	blockFiles/set_22/main_PD/GB_runPatches1.xlsx
206	patches	True	n/a	446	0	n/a	n/a	0.0	1	left	n/a	n/a	n/a	0	-0.047001034878199996	blockFiles/set_22/main_PD/GB_runPatches1.xlsx
207	patches	True	n/a	446	0	n/a	n/a	0.0	1	left	n/a	n/a	n/a	0	-0.039233828485	blockFiles/set_22/main_PD/GB_runPatches1.xlsx
208	patches	True	n/a	446	0	n/a	n/a	0.0	0	left	n/a	n/a	n/a	1	0.00361566970125	blockFiles/set_22/main_PD/GB_runPatches1.xlsx
209	patches	True	n/a	446	0	n/a	n/a	1.0	1	right	n/a	n/a	n/a	1	0.0266541320458	blockFiles/set_22/main_PD/GB_runPatches1.xlsx
210	patches	True	n/a	446	0	n/a	n/a	1.0	1	right	n/a	n/a	n/a	1	0.0779720567167	blockFiles/set_22/main_PD/GB_runPatches1.xlsx
211	patches	True	n/a	446	0	n/a	n/a	1.0	1	right	n/a	n/a	n/a	1	0.060241676848400004	blockFiles/set_22/main_PD/GB_runPatches1.xlsx
212	patches	True	n/a	446	0	n/a	n/a	1.0	1	right	n/a	n/a	n/a	1	0.07067380990830001	blockFiles/set_22/main_PD/GB_runPatches1.xlsx
213	patches	True	n/a	446	0	n/a	n/a	0.0	1	left	n/a	n/a	n/a	0	-0.023132841382200002	blockFiles/set_22/main_PD/GB_runPatches1.xlsx
214	patches	True	n/a	446	0	n/a	n/a	1.0	0	right	n/a	n/a	n/a	0	-0.0036368833854800004	blockFiles/set_22/main_PD/GB_runPatches1.xlsx
215	patches	True	n/a	446	0	n/a	n/a	1.0	1	right	n/a	n/a	n/a	1	0.0148546696454	blockFiles/set_22/main_PD/GB_runPatches1.xlsx
216	patches	True	n/a	446	0	n/a	n/a	0.0	1	left	n/a	n/a	n/a	0	-0.0475175026618	blockFiles/set_22/main_PD/GB_runPatches1.xlsx
217	patches	True	n/a	446	0	n/a	n/a	1.0	1	right	n/a	n/a	n/a	1	0.0532132604532	blockFiles/set_22/main_PD/GB_runPatches1.xlsx
218	patches	True	n/a	446	0	n/a	n/a	1.0	1	right	n/a	n/a	n/a	1	0.037063380926800005	blockFiles/set_22/main_PD/GB_runPatches1.xlsx
219	patches	True	n/a	446	0	n/a	n/a	n/a	0	None	n/a	n/a	n/a	1	0.007701662294569999	blockFiles/set_22/main_PD/GB_runPatches1.xlsx
220	patches	True	n/a	446	0	n/a	n/a	0.0	1	left	n/a	n/a	n/a	0	-0.0578469634429	blockFiles/set_22/main_PD/GB_runPatches1.xlsx
221	patches	True	n/a	446	0	n/a	n/a	0.0	1	left	n/a	n/a	n/a	0	-0.0337667636387	blockFiles/set_22/main_PD/GB_runPatches1.xlsx
222	patches	True	n/a	446	0	n/a	n/a	0.0	1	left	n/a	n/a	n/a	0	-0.0522653362155	blockFiles/set_22/main_PD/GB_runPatches1.xlsx
223	patches	True	n/a	446	0	n/a	n/a	1.0	1	right	n/a	n/a	n/a	1	0.0436456382647	blockFiles/set_22/main_PD/GB_runPatches1.xlsx
224	patches	True	n/a	446	0	n/a	n/a	1.0	1	right	n/a	n/a	n/a	1	0.0267386990227	blockFiles/set_22/main_PD/GB_runPatches1.xlsx
225	patches	True	n/a	446	0	n/a	n/a	0.0	1	left	n/a	n/a	n/a	0	-0.048004473038	blockFiles/set_22/main_PD/GB_runPatches1.xlsx
226	patches	True	n/a	446	0	n/a	n/a	0.0	1	left	n/a	n/a	n/a	0	-0.0289973586611	blockFiles/set_22/main_PD/GB_runPatches1.xlsx
227	patches	True	n/a	446	0	n/a	n/a	0.0	0	left	n/a	n/a	n/a	1	0.014240526706000001	blockFiles/set_22/main_PD/GB_runPatches1.xlsx
228	patches	True	n/a	446	0	n/a	n/a	0.0	1	left	n/a	n/a	n/a	0	-0.031819274984300004	blockFiles/set_22/main_PD/GB_runPatches1.xlsx
229	patches	True	n/a	446	0	n/a	n/a	0.0	1	left	n/a	n/a	n/a	0	-0.056512311436199995	blockFiles/set_22/main_PD/GB_runPatches1.xlsx
230	patches	True	n/a	446	0	n/a	n/a	0.0	1	left	n/a	n/a	n/a	0	-0.0615569279343	blockFiles/set_22/main_PD/GB_runPatches1.xlsx
231	patches	True	n/a	446	0	n/a	n/a	0.0	1	left	n/a	n/a	n/a	0	-0.042017318625	blockFiles/set_22/main_PD/GB_runPatches1.xlsx
232	patches	True	n/a	446	0	n/a	n/a	1.0	1	right	n/a	n/a	n/a	1	0.03862355649469999	blockFiles/set_22/main_PD/GB_runPatches1.xlsx
233	patches	True	n/a	446	0	n/a	n/a	1.0	1	right	n/a	n/a	n/a	1	0.032297188472	blockFiles/set_22/main_PD/GB_runPatches1.xlsx
234	patches	True	n/a	446	0	n/a	n/a	1.0	1	right	n/a	n/a	n/a	1	0.0676296578161	blockFiles/set_22/main_PD/GB_runPatches1.xlsx
235	patches	True	n/a	446	0	n/a	n/a	0.0	1	left	n/a	n/a	n/a	0	-0.0338345600851	blockFiles/set_22/main_PD/GB_runPatches1.xlsx
236	patches	True	n/a	446	0	n/a	n/a	1.0	1	right	n/a	n/a	n/a	1	0.036273900345	blockFiles/set_22/main_PD/GB_runPatches1.xlsx
237	patches	True	n/a	446	0	n/a	n/a	0.0	1	left	n/a	n/a	n/a	0	-0.0234125152789	blockFiles/set_22/main_PD/GB_runPatches1.xlsx
238	patches	True	n/a	446	0	n/a	n/a	0.0	1	left	n/a	n/a	n/a	0	-0.0595474595577	blockFiles/set_22/main_PD/GB_runPatches1.xlsx
239	patches	True	n/a	446	0	n/a	n/a	0.0	1	left	n/a	n/a	n/a	0	-0.013631525989600001	blockFiles/set_22/main_PD/GB_runPatches1.xlsx
240	patches	True	n/a	446	0	n/a	n/a	0.0	1	left	n/a	n/a	n/a	0	-0.0678184651956	blockFiles/set_22/main_PD/GB_runPatches1.xlsx
241	patches	True	n/a	446	0	n/a	n/a	0.0	1	left	n/a	n/a	n/a	0	-0.0710444456898	blockFiles/set_22/main_PD/GB_runPatches1.xlsx
242	patches	True	n/a	446	0	n/a	n/a	1.0	1	right	n/a	n/a	n/a	1	0.045034859590199997	blockFiles/set_22/main_PD/GB_runPatches1.xlsx
243	patches	True	n/a	446	0	n/a	n/a	1.0	1	right	n/a	n/a	n/a	1	0.0311679402925	blockFiles/set_22/main_PD/GB_runPatches1.xlsx
244	patches	True	n/a	446	0	n/a	n/a	1.0	0	right	n/a	n/a	n/a	0	-0.00288903206587	blockFiles/set_22/main_PD/GB_runPatches1.xlsx
245	patches	True	n/a	446	0	n/a	n/a	1.0	1	right	n/a	n/a	n/a	1	0.0509374114312	blockFiles/set_22/main_PD/GB_runPatches1.xlsx
246	patches	True	n/a	446	0	n/a	n/a	1.0	1	right	n/a	n/a	n/a	1	0.0544396005385	blockFiles/set_22/main_PD/GB_runPatches1.xlsx
247	patches	True	n/a	446	0	n/a	n/a	1.0	1	right	n/a	n/a	n/a	1	0.0652923257835	blockFiles/set_22/main_PD/GB_runPatches1.xlsx
248	patches	True	n/a	446	0	n/a	n/a	1.0	1	right	n/a	n/a	n/a	1	0.0338077022322	blockFiles/set_22/main_PD/GB_runPatches1.xlsx
249	patches	True	n/a	446	0	n/a	n/a	1.0	1	right	n/a	n/a	n/a	1	0.07572991821910001	blockFiles/set_22/main_PD/GB_runPatches1.xlsx
250	patches	True	n/a	446	0	n/a	n/a	0.0	1	left	n/a	n/a	n/a	0	-0.025244775414499997	blockFiles/set_22/main_PD/GB_runPatches1.xlsx
251	main_unc	True	0.0	446	0	0.0	0.0	0.0	1	left	2.0	0.0	1.0	0	-0.0449036533199	blockFiles/set_22/main_unc/leftBlue\GB_LB_1.xlsx
252	main_unc	True	0.0	446	0	0.0	0.0	0.0	0	left	2.0	0.0	0.0	1	0.00208399962634	blockFiles/set_22/main_unc/leftBlue\GB_LB_1.xlsx
253	main_unc	True	0.0	446	0	0.0	0.0	0.0	1	left	2.0	1.0	1.0	0	-0.0666631142423	blockFiles/set_22/main_unc/leftBlue\GB_LB_1.xlsx
254	main_unc	True	0.0	446	0	0.0	0.0	1.0	1	right	1.0	1.0	1.0	1	0.0775461042859	blockFiles/set_22/main_unc/leftBlue\GB_LB_1.xlsx
255	main_unc	True	0.0	446	0	0.0	0.0	1.0	1	right	1.0	1.0	1.0	1	0.0616969694942	blockFiles/set_22/main_unc/leftBlue\GB_LB_1.xlsx
256	main_unc	True	0.0	446	0	0.0	0.0	0.0	1	left	2.0	1.0	1.0	0	-0.03020669505	blockFiles/set_22/main_unc/leftBlue\GB_LB_1.xlsx
257	main_unc	True	0.0	446	0	0.0	0.0	0.0	1	left	2.0	1.0	1.0	0	-0.014093921240399999	blockFiles/set_22/main_unc/leftBlue\GB_LB_1.xlsx
258	main_unc	True	0.0	446	0	0.0	0.0	1.0	1	right	1.0	1.0	1.0	1	0.0029401393979799997	blockFiles/set_22/main_unc/leftBlue\GB_LB_1.xlsx
259	main_unc	True	0.0	446	0	0.0	0.0	0.0	1	left	2.0	0.0	1.0	0	-0.0534856013954	blockFiles/set_22/main_unc/leftBlue\GB_LB_1.xlsx
260	main_unc	True	0.0	446	0	0.0	0.0	1.0	1	right	1.0	1.0	1.0	1	0.047953923027999994	blockFiles/set_22/main_unc/leftBlue\GB_LB_1.xlsx
261	main_unc	True	0.0	446	0	0.0	0.0	1.0	1	right	1.0	1.0	1.0	1	0.0296013952047	blockFiles/set_22/main_unc/leftBlue\GB_LB_1.xlsx
262	main_unc	True	0.0	446	0	0.0	0.0	0.0	0	left	2.0	0.0	0.0	1	0.0629142724164	blockFiles/set_22/main_unc/leftBlue\GB_LB_1.xlsx
263	main_unc	True	0.0	446	0	0.0	0.0	1.0	1	right	1.0	1.0	1.0	1	0.0265322815068	blockFiles/set_22/main_unc/leftBlue\GB_LB_1.xlsx
264	main_unc	True	0.0	446	0	0.0	0.0	1.0	1	right	1.0	1.0	1.0	1	0.0514648186415	blockFiles/set_22/main_unc/leftBlue\GB_LB_1.xlsx
265	main_unc	True	0.0	446	0	0.0	0.0	0.0	0	left	2.0	0.0	0.0	1	0.0200305701606	blockFiles/set_22/main_unc/leftBlue\GB_LB_1.xlsx
266	main_unc	True	0.0	446	0	0.0	0.0	0.0	1	left	2.0	0.0	1.0	0	-0.004330009501430001	blockFiles/set_22/main_unc/leftBlue\GB_LB_1.xlsx
267	main_unc	True	0.0	446	0	0.0	0.0	0.0	1	left	2.0	1.0	1.0	0	-0.0577784772217	blockFiles/set_22/main_unc/leftBlue\GB_LB_1.xlsx
268	main_unc	True	0.0	446	0	0.0	0.0	0.0	1	left	2.0	1.0	1.0	0	-0.0658009967767	blockFiles/set_22/main_unc/leftBlue\GB_LB_1.xlsx
269	main_unc	True	0.0	446	0	0.0	0.0	1.0	1	right	1.0	1.0	1.0	1	0.0384606420994	blockFiles/set_22/main_unc/leftBlue\GB_LB_1.xlsx
270	main_unc	True	0.0	446	0	0.0	0.0	0.0	1	left	2.0	0.0	1.0	0	-0.0657617909834	blockFiles/set_22/main_unc/leftBlue\GB_LB_1.xlsx
271	main_unc	True	0.0	446	0	0.0	0.0	0.0	0	left	2.0	0.0	0.0	1	0.0130255828984	blockFiles/set_22/main_unc/leftBlue\GB_LB_1.xlsx
272	main_unc	True	0.0	446	0	0.0	0.0	0.0	1	left	2.0	1.0	1.0	0	-0.0630752701312	blockFiles/set_22/main_unc/leftBlue\GB_LB_1.xlsx
273	main_unc	True	0.0	446	0	0.0	0.0	1.0	1	right	1.0	1.0	1.0	1	0.0034271666035100004	blockFiles/set_22/main_unc/leftBlue\GB_LB_1.xlsx
274	main_unc	True	0.0	446	0	0.0	0.0	1.0	1	right	1.0	1.0	1.0	1	0.0442980685085	blockFiles/set_22/main_unc/leftBlue\GB_LB_1.xlsx
275	main_unc	True	0.0	446	0	0.0	0.0	0.0	1	left	2.0	0.0	1.0	0	-0.0384032803215	blockFiles/set_22/main_unc/leftBlue\GB_LB_1.xlsx
276	main_unc	True	0.0	446	0	1.0	1.0	0.0	1	left	2.0	0.0	0.0	0	-0.054003470875300004	blockFiles/set_22/main_unc/rightBlue\GB_RB_2.xlsx
277	main_unc	True	0.0	446	0	1.0	1.0	0.0	1	left	2.0	0.0	0.0	0	-0.0149869913422	blockFiles/set_22/main_unc/rightBlue\GB_RB_2.xlsx
278	main_unc	True	0.0	446	0	1.0	1.0	1.0	1	right	1.0	1.0	0.0	1	0.050115898847599996	blockFiles/set_22/main_unc/rightBlue\GB_RB_2.xlsx
279	main_unc	True	0.0	446	0	1.0	1.0	0.0	1	left	2.0	1.0	0.0	0	-0.070638374798	blockFiles/set_22/main_unc/rightBlue\GB_RB_2.xlsx
280	main_unc	True	0.0	446	0	1.0	1.0	1.0	0	right	1.0	1.0	1.0	0	-0.0125561364181	blockFiles/set_22/main_unc/rightBlue\GB_RB_2.xlsx
281	main_unc	True	0.0	446	0	1.0	1.0	0.0	1	left	2.0	0.0	0.0	0	-0.022382267564500003	blockFiles/set_22/main_unc/rightBlue\GB_RB_2.xlsx
282	main_unc	True	0.0	446	0	1.0	1.0	0.0	0	left	2.0	1.0	1.0	1	0.0007643940113480001	blockFiles/set_22/main_unc/rightBlue\GB_RB_2.xlsx
283	main_unc	True	0.0	446	0	1.0	1.0	1.0	1	right	1.0	0.0	0.0	1	0.043630339857199996	blockFiles/set_22/main_unc/rightBlue\GB_RB_2.xlsx
284	main_unc	True	0.0	446	0	1.0	1.0	1.0	1	right	1.0	0.0	0.0	1	0.0413675747626	blockFiles/set_22/main_unc/rightBlue\GB_RB_2.xlsx
285	main_unc	True	0.0	446	0	1.0	1.0	0.0	1	left	2.0	0.0	0.0	0	-0.077096043881	blockFiles/set_22/main_unc/rightBlue\GB_RB_2.xlsx
286	main_unc	True	0.0	446	0	1.0	1.0	1.0	1	right	1.0	1.0	0.0	1	0.0445146628097	blockFiles/set_22/main_unc/rightBlue\GB_RB_2.xlsx
287	main_unc	True	0.0	446	0	1.0	1.0	1.0	1	right	1.0	0.0	0.0	1	0.0516718637198	blockFiles/set_22/main_unc/rightBlue\GB_RB_2.xlsx
288	main_unc	True	0.0	446	0	1.0	1.0	0.0	1	left	2.0	0.0	0.0	0	-0.0157467982359	blockFiles/set_22/main_unc/rightBlue\GB_RB_2.xlsx
289	main_unc	True	0.0	446	0	1.0	1.0	0.0	1	left	2.0	0.0	0.0	0	-0.0399100511521	blockFiles/set_22/main_unc/rightBlue\GB_RB_2.xlsx
290	main_unc	True	0.0	446	0	1.0	1.0	0.0	1	left	2.0	0.0	0.0	0	-0.022882398758099998	blockFiles/set_22/main_unc/rightBlue\GB_RB_2.xlsx
291	main_unc	True	0.0	446	0	1.0	1.0	0.0	1	left	1.0	1.0	1.0	0	-0.0338192519732	blockFiles/set_22/main_unc/rightBlue\GB_RB_2.xlsx
292	main_unc	True	0.0	446	0	1.0	1.0	1.0	0	right	2.0	1.0	0.0	0	-0.00902328439057	blockFiles/set_22/main_unc/rightBlue\GB_RB_2.xlsx
293	main_unc	True	0.0	446	0	1.0	1.0	1.0	1	right	2.0	1.0	1.0	1	0.047342333961300005	blockFiles/set_22/main_unc/rightBlue\GB_RB_2.xlsx
294	main_unc	True	0.0	446	0	1.0	1.0	1.0	1	right	2.0	1.0	1.0	1	0.062142387405000006	blockFiles/set_22/main_unc/rightBlue\GB_RB_2.xlsx
295	main_unc	True	0.0	446	0	1.0	1.0	0.0	1	left	1.0	1.0	1.0	0	-0.037237926442199996	blockFiles/set_22/main_unc/rightBlue\GB_RB_2.xlsx
296	main_unc	True	0.0	446	0	1.0	1.0	1.0	1	right	2.0	0.0	1.0	1	0.07363761279730001	blockFiles/set_22/main_unc/rightBlue\GB_RB_2.xlsx
297	main_unc	True	0.0	446	0	1.0	1.0	0.0	1	left	1.0	1.0	1.0	0	-0.0224072209746	blockFiles/set_22/main_unc/rightBlue\GB_RB_2.xlsx
298	main_unc	True	0.0	446	0	1.0	1.0	0.0	0	left	1.0	0.0	0.0	1	0.025841469857799997	blockFiles/set_22/main_unc/rightBlue\GB_RB_2.xlsx
299	main_unc	True	0.0	446	0	1.0	1.0	0.0	0	left	1.0	0.0	0.0	1	0.0027034385874899996	blockFiles/set_22/main_unc/rightBlue\GB_RB_2.xlsx
300	main_unc	True	0.0	446	0	1.0	1.0	1.0	1	right	2.0	1.0	1.0	1	0.0488030436262	blockFiles/set_22/main_unc/rightBlue\GB_RB_2.xlsx
301	main_unc	True	0.0	446	0	2.0	2.0	0.0	1	left	2.0	0.0	0.0	0	-0.0168306230381	blockFiles/set_22/main_unc/rightBlue\GB_RB_1.xlsx
302	main_unc	True	0.0	446	0	2.0	2.0	1.0	1	right	1.0	0.0	0.0	1	0.053922846578099995	blockFiles/set_22/main_unc/rightBlue\GB_RB_1.xlsx
303	main_unc	True	0.0	446	0	2.0	2.0	1.0	1	right	2.0	1.0	1.0	1	0.07520260740069999	blockFiles/set_22/main_unc/rightBlue\GB_RB_1.xlsx
304	main_unc	True	0.0	446	0	2.0	2.0	0.0	0	left	1.0	1.0	0.0	1	0.0280977437831	blockFiles/set_22/main_unc/rightBlue\GB_RB_1.xlsx
305	main_unc	True	0.0	446	0	2.0	2.0	0.0	1	left	1.0	1.0	1.0	0	-0.032636887561499996	blockFiles/set_22/main_unc/rightBlue\GB_RB_1.xlsx
306	main_unc	True	0.0	446	0	2.0	2.0	1.0	1	right	2.0	0.0	1.0	1	0.0795281141251	blockFiles/set_22/main_unc/rightBlue\GB_RB_1.xlsx
307	main_unc	True	0.0	446	0	2.0	2.0	1.0	1	right	2.0	1.0	1.0	1	0.0335209348798	blockFiles/set_22/main_unc/rightBlue\GB_RB_1.xlsx
308	main_unc	True	0.0	446	0	2.0	2.0	0.0	0	left	1.0	0.0	0.0	1	0.00012181647121899999	blockFiles/set_22/main_unc/rightBlue\GB_RB_1.xlsx
309	main_unc	True	0.0	446	0	2.0	2.0	0.0	1	left	1.0	1.0	1.0	0	-0.05254797320809999	blockFiles/set_22/main_unc/rightBlue\GB_RB_1.xlsx
310	main_unc	True	0.0	446	0	2.0	2.0	0.0	1	left	1.0	1.0	1.0	0	-0.048275761902300006	blockFiles/set_22/main_unc/rightBlue\GB_RB_1.xlsx
311	main_unc	True	0.0	446	0	2.0	2.0	0.0	1	left	1.0	1.0	1.0	0	-0.0194971163943	blockFiles/set_22/main_unc/rightBlue\GB_RB_1.xlsx
312	main_unc	True	0.0	446	0	2.0	2.0	1.0	1	right	2.0	0.0	1.0	1	0.0254696580395	blockFiles/set_22/main_unc/rightBlue\GB_RB_1.xlsx
313	main_unc	True	0.0	446	0	2.0	2.0	0.0	1	left	1.0	1.0	1.0	0	-0.004703172184529999	blockFiles/set_22/main_unc/rightBlue\GB_RB_1.xlsx
314	main_unc	True	0.0	446	0	2.0	2.0	0.0	1	left	1.0	1.0	1.0	0	-0.0569278193451	blockFiles/set_22/main_unc/rightBlue\GB_RB_1.xlsx
315	main_unc	True	0.0	446	0	2.0	2.0	0.0	1	left	1.0	1.0	1.0	0	-0.0672293223254	blockFiles/set_22/main_unc/rightBlue\GB_RB_1.xlsx
316	main_unc	True	0.0	446	0	2.0	2.0	1.0	1	right	2.0	1.0	1.0	1	0.076571417544	blockFiles/set_22/main_unc/rightBlue\GB_RB_1.xlsx
317	main_unc	True	0.0	446	0	2.0	2.0	0.0	1	left	1.0	1.0	1.0	0	-0.020556136686400002	blockFiles/set_22/main_unc/rightBlue\GB_RB_1.xlsx
318	main_unc	True	0.0	446	0	2.0	2.0	1.0	1	right	2.0	1.0	1.0	1	0.04881193419919999	blockFiles/set_22/main_unc/rightBlue\GB_RB_1.xlsx
319	main_unc	True	0.0	446	0	2.0	2.0	1.0	1	right	2.0	1.0	1.0	1	0.0408956839517	blockFiles/set_22/main_unc/rightBlue\GB_RB_1.xlsx
320	main_unc	True	0.0	446	0	2.0	2.0	0.0	1	left	1.0	1.0	1.0	0	-0.0440136244334	blockFiles/set_22/main_unc/rightBlue\GB_RB_1.xlsx
321	main_unc	True	0.0	446	0	2.0	2.0	0.0	1	left	1.0	1.0	1.0	0	-0.0154655993916	blockFiles/set_22/main_unc/rightBlue\GB_RB_1.xlsx
322	main_unc	True	0.0	446	0	2.0	2.0	1.0	1	right	2.0	1.0	1.0	1	0.052914810162	blockFiles/set_22/main_unc/rightBlue\GB_RB_1.xlsx
323	main_unc	True	0.0	446	0	2.0	2.0	0.0	0	left	1.0	0.0	0.0	1	0.017572275307	blockFiles/set_22/main_unc/rightBlue\GB_RB_1.xlsx
324	main_unc	True	0.0	446	0	2.0	2.0	0.0	1	left	1.0	1.0	1.0	0	-0.0085257207416	blockFiles/set_22/main_unc/rightBlue\GB_RB_1.xlsx
325	main_unc	True	0.0	446	0	2.0	2.0	1.0	1	right	2.0	0.0	1.0	1	0.0656477970816	blockFiles/set_22/main_unc/rightBlue\GB_RB_1.xlsx
326	main_unc	True	0.0	446	0	3.0	3.0	1.0	1	right	2.0	1.0	1.0	1	0.0132837487012	blockFiles/set_22/main_unc/rightBlue\GB_RB_5.xlsx
327	main_unc	True	0.0	446	0	3.0	3.0	1.0	1	right	2.0	1.0	1.0	1	0.032508560717099996	blockFiles/set_22/main_unc/rightBlue\GB_RB_5.xlsx
328	main_unc	True	0.0	446	0	3.0	3.0	0.0	1	left	1.0	1.0	1.0	0	-0.0612224297225	blockFiles/set_22/main_unc/rightBlue\GB_RB_5.xlsx
329	main_unc	True	0.0	446	0	3.0	3.0	1.0	1	right	2.0	1.0	1.0	1	0.0307674708776	blockFiles/set_22/main_unc/rightBlue\GB_RB_5.xlsx
330	main_unc	True	0.0	446	0	3.0	3.0	1.0	1	right	2.0	1.0	1.0	1	0.0036455337516999994	blockFiles/set_22/main_unc/rightBlue\GB_RB_5.xlsx
331	main_unc	True	0.0	446	0	3.0	3.0	1.0	1	right	2.0	1.0	1.0	1	0.0768834878877	blockFiles/set_22/main_unc/rightBlue\GB_RB_5.xlsx
332	main_unc	True	0.0	446	0	3.0	3.0	1.0	1	right	2.0	1.0	1.0	1	0.0495132746734	blockFiles/set_22/main_unc/rightBlue\GB_RB_5.xlsx
333	main_unc	True	0.0	446	0	3.0	3.0	1.0	1	right	2.0	1.0	1.0	1	0.0723523049243	blockFiles/set_22/main_unc/rightBlue\GB_RB_5.xlsx
334	main_unc	True	0.0	446	0	3.0	3.0	0.0	1	left	1.0	1.0	1.0	0	-0.0220941425115	blockFiles/set_22/main_unc/rightBlue\GB_RB_5.xlsx
335	main_unc	True	0.0	446	0	3.0	3.0	0.0	1	left	1.0	0.0	1.0	0	-0.0333049866557	blockFiles/set_22/main_unc/rightBlue\GB_RB_5.xlsx
336	main_unc	True	0.0	446	0	3.0	3.0	0.0	1	left	1.0	1.0	1.0	0	-0.021986520569799998	blockFiles/set_22/main_unc/rightBlue\GB_RB_5.xlsx
337	main_unc	True	0.0	446	0	3.0	3.0	0.0	1	left	1.0	1.0	1.0	0	-0.012601909972700002	blockFiles/set_22/main_unc/rightBlue\GB_RB_5.xlsx
338	main_unc	True	0.0	446	0	3.0	3.0	0.0	0	left	1.0	0.0	0.0	1	0.0586717830598	blockFiles/set_22/main_unc/rightBlue\GB_RB_5.xlsx
339	main_unc	True	0.0	446	0	3.0	3.0	0.0	1	left	1.0	0.0	1.0	0	-0.07976334791629999	blockFiles/set_22/main_unc/rightBlue\GB_RB_5.xlsx
340	main_unc	True	0.0	446	0	3.0	3.0	0.0	1	left	1.0	1.0	1.0	0	-0.04517462613059999	blockFiles/set_22/main_unc/rightBlue\GB_RB_5.xlsx
341	main_unc	True	0.0	446	0	3.0	3.0	0.0	0	left	1.0	0.0	0.0	1	0.016924456246200002	blockFiles/set_22/main_unc/rightBlue\GB_RB_5.xlsx
342	main_unc	True	0.0	446	0	3.0	3.0	0.0	0	left	1.0	1.0	0.0	1	0.0045858486183	blockFiles/set_22/main_unc/rightBlue\GB_RB_5.xlsx
343	main_unc	True	0.0	446	0	3.0	3.0	0.0	1	left	1.0	1.0	1.0	0	-0.0688150563836	blockFiles/set_22/main_unc/rightBlue\GB_RB_5.xlsx
344	main_unc	True	0.0	446	0	3.0	3.0	0.0	1	left	1.0	0.0	1.0	0	-0.021080924030400003	blockFiles/set_22/main_unc/rightBlue\GB_RB_5.xlsx
345	main_unc	True	0.0	446	0	3.0	3.0	0.0	1	left	1.0	1.0	1.0	0	-0.054083529636300004	blockFiles/set_22/main_unc/rightBlue\GB_RB_5.xlsx
346	main_unc	True	0.0	446	0	3.0	3.0	1.0	1	right	2.0	1.0	1.0	1	0.0247104812227	blockFiles/set_22/main_unc/rightBlue\GB_RB_5.xlsx
347	main_unc	True	0.0	446	0	3.0	3.0	0.0	1	left	1.0	1.0	1.0	0	-0.0720189246535	blockFiles/set_22/main_unc/rightBlue\GB_RB_5.xlsx
348	main_unc	True	0.0	446	0	3.0	3.0	0.0	1	left	1.0	1.0	1.0	0	-0.028487300481599996	blockFiles/set_22/main_unc/rightBlue\GB_RB_5.xlsx
349	main_unc	True	0.0	446	0	3.0	3.0	1.0	1	right	2.0	1.0	1.0	1	0.012787240203499998	blockFiles/set_22/main_unc/rightBlue\GB_RB_5.xlsx
350	main_unc	True	0.0	446	0	3.0	3.0	0.0	1	left	1.0	1.0	1.0	0	-0.032289206944400003	blockFiles/set_22/main_unc/rightBlue\GB_RB_5.xlsx
351	main_unc	True	0.0	446	0	4.0	4.0	1.0	1	right	2.0	0.0	1.0	1	0.0486155409366	blockFiles/set_22/main_unc/rightBlue\GB_RB_4.xlsx
352	main_unc	True	0.0	446	0	4.0	4.0	0.0	1	left	1.0	1.0	1.0	0	-0.0585151045211	blockFiles/set_22/main_unc/rightBlue\GB_RB_4.xlsx
353	main_unc	True	0.0	446	0	4.0	4.0	0.0	1	left	1.0	1.0	1.0	0	-0.0709209361859	blockFiles/set_22/main_unc/rightBlue\GB_RB_4.xlsx
354	main_unc	True	1.0	446	0	4.0	4.0	n/a	0	None	n/a	0.0	n/a	1	0.006071298085149999	blockFiles/set_22/main_unc/rightBlue\GB_RB_4.xlsx
355	main_unc	True	0.0	446	0	4.0	4.0	1.0	1	right	2.0	1.0	1.0	1	0.0645808537863	blockFiles/set_22/main_unc/rightBlue\GB_RB_4.xlsx
356	main_unc	True	0.0	446	0	4.0	4.0	0.0	1	left	1.0	1.0	1.0	0	-0.043046541512	blockFiles/set_22/main_unc/rightBlue\GB_RB_4.xlsx
357	main_unc	True	0.0	446	0	4.0	4.0	1.0	1	right	2.0	1.0	1.0	1	0.0639907038026	blockFiles/set_22/main_unc/rightBlue\GB_RB_4.xlsx
358	main_unc	True	0.0	446	0	4.0	4.0	1.0	0	right	2.0	0.0	0.0	0	-0.006755377817899999	blockFiles/set_22/main_unc/rightBlue\GB_RB_4.xlsx
359	main_unc	True	0.0	446	0	4.0	4.0	0.0	1	left	1.0	1.0	1.0	0	-0.027917404770900003	blockFiles/set_22/main_unc/rightBlue\GB_RB_4.xlsx
360	main_unc	True	0.0	446	0	4.0	4.0	0.0	0	left	1.0	0.0	0.0	1	0.020652932357	blockFiles/set_22/main_unc/rightBlue\GB_RB_4.xlsx
361	main_unc	True	0.0	446	0	4.0	4.0	0.0	1	left	1.0	1.0	1.0	0	-0.029320006146999998	blockFiles/set_22/main_unc/rightBlue\GB_RB_4.xlsx
362	main_unc	True	0.0	446	0	4.0	4.0	0.0	1	left	1.0	1.0	1.0	0	-0.024291522577400002	blockFiles/set_22/main_unc/rightBlue\GB_RB_4.xlsx
363	main_unc	True	0.0	446	0	4.0	4.0	1.0	1	right	1.0	0.0	0.0	1	0.0575338467024	blockFiles/set_22/main_unc/rightBlue\GB_RB_4.xlsx
364	main_unc	True	0.0	446	0	4.0	4.0	1.0	1	right	2.0	1.0	1.0	1	0.07020623549819999	blockFiles/set_22/main_unc/rightBlue\GB_RB_4.xlsx
365	main_unc	True	0.0	446	0	4.0	4.0	0.0	1	left	1.0	1.0	1.0	0	-0.0344384645857	blockFiles/set_22/main_unc/rightBlue\GB_RB_4.xlsx
366	main_unc	True	0.0	446	0	4.0	4.0	0.0	1	left	1.0	1.0	1.0	0	-0.00597427885979	blockFiles/set_22/main_unc/rightBlue\GB_RB_4.xlsx
367	main_unc	True	0.0	446	0	4.0	4.0	1.0	1	right	2.0	1.0	1.0	1	0.0684144562483	blockFiles/set_22/main_unc/rightBlue\GB_RB_4.xlsx
368	main_unc	True	0.0	446	0	4.0	4.0	0.0	0	left	1.0	0.0	0.0	1	0.009128339365120001	blockFiles/set_22/main_unc/rightBlue\GB_RB_4.xlsx
369	main_unc	True	0.0	446	0	4.0	4.0	1.0	1	right	2.0	1.0	1.0	1	0.035592566411900006	blockFiles/set_22/main_unc/rightBlue\GB_RB_4.xlsx
370	main_unc	True	0.0	446	0	4.0	4.0	0.0	1	left	1.0	0.0	1.0	0	-0.0497931677848	blockFiles/set_22/main_unc/rightBlue\GB_RB_4.xlsx
371	main_unc	True	0.0	446	0	4.0	4.0	0.0	1	left	1.0	1.0	1.0	0	-0.0249823728204	blockFiles/set_22/main_unc/rightBlue\GB_RB_4.xlsx
372	main_unc	True	0.0	446	0	4.0	4.0	1.0	1	right	2.0	0.0	1.0	1	0.030127230696400005	blockFiles/set_22/main_unc/rightBlue\GB_RB_4.xlsx
373	main_unc	True	0.0	446	0	4.0	4.0	1.0	1	right	2.0	1.0	1.0	1	0.07304398210719999	blockFiles/set_22/main_unc/rightBlue\GB_RB_4.xlsx
374	main_unc	True	0.0	446	0	4.0	4.0	1.0	1	right	2.0	0.0	1.0	1	0.048688913248500006	blockFiles/set_22/main_unc/rightBlue\GB_RB_4.xlsx
375	main_unc	True	0.0	446	0	4.0	4.0	0.0	1	left	1.0	0.0	1.0	0	-0.026426528152099997	blockFiles/set_22/main_unc/rightBlue\GB_RB_4.xlsx
376	main_unc	True	0.0	446	0	4.0	4.0	0.0	0	left	1.0	0.0	0.0	1	0.006071298085149999	blockFiles/set_22/main_unc/rightBlue\GB_RB_4.xlsx
377	main_unc	True	0.0	446	0	5.0	5.0	0.0	1	left	1.0	1.0	0.0	0	-0.074218924325	blockFiles/set_22/main_unc/leftBlue\GB_LB_3.xlsx
378	main_unc	True	0.0	446	0	5.0	5.0	0.0	1	left	1.0	0.0	0.0	0	-0.0560085078329	blockFiles/set_22/main_unc/leftBlue\GB_LB_3.xlsx
379	main_unc	True	0.0	446	0	5.0	5.0	0.0	1	left	1.0	0.0	0.0	0	-0.049484868515300005	blockFiles/set_22/main_unc/leftBlue\GB_LB_3.xlsx
380	main_unc	True	0.0	446	0	5.0	5.0	1.0	1	right	1.0	1.0	1.0	1	0.055493393428600005	blockFiles/set_22/main_unc/leftBlue\GB_LB_3.xlsx
381	main_unc	True	0.0	446	0	5.0	5.0	0.0	1	left	2.0	1.0	1.0	0	-0.0313585381955	blockFiles/set_22/main_unc/leftBlue\GB_LB_3.xlsx
382	main_unc	True	0.0	446	0	5.0	5.0	1.0	1	right	1.0	0.0	1.0	1	0.0743686068058	blockFiles/set_22/main_unc/leftBlue\GB_LB_3.xlsx
383	main_unc	True	0.0	446	0	5.0	5.0	1.0	1	right	1.0	1.0	1.0	1	0.0520663972944	blockFiles/set_22/main_unc/leftBlue\GB_LB_3.xlsx
384	main_unc	True	0.0	446	0	5.0	5.0	0.0	1	left	1.0	0.0	0.0	0	-0.00384540736675	blockFiles/set_22/main_unc/leftBlue\GB_LB_3.xlsx
385	main_unc	True	0.0	446	0	5.0	5.0	1.0	1	right	1.0	0.0	1.0	1	0.0512746156007	blockFiles/set_22/main_unc/leftBlue\GB_LB_3.xlsx
386	main_unc	True	0.0	446	0	5.0	5.0	1.0	1	right	1.0	0.0	1.0	1	0.015869498476400002	blockFiles/set_22/main_unc/leftBlue\GB_LB_3.xlsx
387	main_unc	True	0.0	446	0	5.0	5.0	1.0	1	right	1.0	1.0	1.0	1	0.0206846611015	blockFiles/set_22/main_unc/leftBlue\GB_LB_3.xlsx
388	main_unc	True	0.0	446	0	5.0	5.0	1.0	1	right	1.0	1.0	1.0	1	0.0441889093071	blockFiles/set_22/main_unc/leftBlue\GB_LB_3.xlsx
389	main_unc	True	0.0	446	0	5.0	5.0	1.0	1	right	1.0	1.0	1.0	1	0.0624228143133	blockFiles/set_22/main_unc/leftBlue\GB_LB_3.xlsx
390	main_unc	True	0.0	446	0	5.0	5.0	1.0	1	right	1.0	1.0	1.0	1	0.0109787174501	blockFiles/set_22/main_unc/leftBlue\GB_LB_3.xlsx
391	main_unc	True	0.0	446	0	5.0	5.0	0.0	1	left	2.0	1.0	1.0	0	-0.0443883777782	blockFiles/set_22/main_unc/leftBlue\GB_LB_3.xlsx
392	main_unc	True	0.0	446	0	5.0	5.0	1.0	1	right	1.0	1.0	1.0	1	0.00179533815011	blockFiles/set_22/main_unc/leftBlue\GB_LB_3.xlsx
393	main_unc	True	0.0	446	0	5.0	5.0	0.0	1	left	2.0	0.0	1.0	0	-0.055978693217000004	blockFiles/set_22/main_unc/leftBlue\GB_LB_3.xlsx
394	main_unc	True	0.0	446	0	5.0	5.0	0.0	1	left	2.0	1.0	1.0	0	-0.0451832337864	blockFiles/set_22/main_unc/leftBlue\GB_LB_3.xlsx
395	main_unc	True	0.0	446	0	5.0	5.0	0.0	1	left	2.0	1.0	1.0	0	-0.0131937752664	blockFiles/set_22/main_unc/leftBlue\GB_LB_3.xlsx
396	main_unc	True	0.0	446	0	5.0	5.0	0.0	1	left	2.0	1.0	1.0	0	-0.047281146813199997	blockFiles/set_22/main_unc/leftBlue\GB_LB_3.xlsx
397	main_unc	True	0.0	446	0	5.0	5.0	1.0	1	right	1.0	0.0	1.0	1	0.0712354480103	blockFiles/set_22/main_unc/leftBlue\GB_LB_3.xlsx
398	main_unc	True	0.0	446	0	5.0	5.0	1.0	0	right	1.0	0.0	0.0	0	-0.016504379455	blockFiles/set_22/main_unc/leftBlue\GB_LB_3.xlsx
399	main_unc	True	0.0	446	0	5.0	5.0	1.0	1	right	1.0	1.0	1.0	1	0.0613386552036	blockFiles/set_22/main_unc/leftBlue\GB_LB_3.xlsx
400	main_unc	True	0.0	446	0	5.0	5.0	0.0	1	left	2.0	1.0	1.0	0	-0.0231749285571	blockFiles/set_22/main_unc/leftBlue\GB_LB_3.xlsx
401	main_unc	True	0.0	446	0	5.0	5.0	0.0	1	left	2.0	1.0	1.0	0	-0.060878290385	blockFiles/set_22/main_unc/leftBlue\GB_LB_3.xlsx
402	main_unc	True	0.0	446	0	6.0	6.0	1.0	1	right	2.0	0.0	0.0	1	0.025290488190900004	blockFiles/set_22/main_unc/leftBlue\GB_LB_4.xlsx
403	main_unc	True	0.0	446	0	6.0	6.0	0.0	1	left	1.0	0.0	0.0	0	-0.07680457128210001	blockFiles/set_22/main_unc/leftBlue\GB_LB_4.xlsx
404	main_unc	True	0.0	446	0	6.0	6.0	1.0	1	right	2.0	0.0	0.0	1	0.07182978548110001	blockFiles/set_22/main_unc/leftBlue\GB_LB_4.xlsx
405	main_unc	True	1.0	446	0	6.0	6.0	n/a	0	None	n/a	0.0	n/a	1	0.00152773687616	blockFiles/set_22/main_unc/leftBlue\GB_LB_4.xlsx
406	main_unc	True	0.0	446	0	6.0	6.0	1.0	1	right	1.0	1.0	1.0	1	0.07427795028310001	blockFiles/set_22/main_unc/leftBlue\GB_LB_4.xlsx
407	main_unc	True	0.0	446	0	6.0	6.0	1.0	1	right	1.0	1.0	1.0	1	0.0285826965235	blockFiles/set_22/main_unc/leftBlue\GB_LB_4.xlsx
408	main_unc	True	0.0	446	0	6.0	6.0	0.0	1	left	2.0	1.0	1.0	0	-0.0641218614765	blockFiles/set_22/main_unc/leftBlue\GB_LB_4.xlsx
409	main_unc	True	0.0	446	0	6.0	6.0	0.0	1	left	2.0	1.0	1.0	0	-0.022477577794300003	blockFiles/set_22/main_unc/leftBlue\GB_LB_4.xlsx
410	main_unc	True	0.0	446	0	6.0	6.0	0.0	1	left	2.0	1.0	1.0	0	-0.0419109943882	blockFiles/set_22/main_unc/leftBlue\GB_LB_4.xlsx
411	main_unc	True	0.0	446	0	6.0	6.0	0.0	1	left	2.0	1.0	1.0	0	-0.0473411367275	blockFiles/set_22/main_unc/leftBlue\GB_LB_4.xlsx
412	main_unc	True	0.0	446	0	6.0	6.0	0.0	1	left	2.0	0.0	1.0	0	-0.02567201728	blockFiles/set_22/main_unc/leftBlue\GB_LB_4.xlsx
413	main_unc	True	0.0	446	0	6.0	6.0	0.0	1	left	2.0	1.0	1.0	0	-0.062680537384	blockFiles/set_22/main_unc/leftBlue\GB_LB_4.xlsx
414	main_unc	True	0.0	446	0	6.0	6.0	1.0	1	right	1.0	1.0	1.0	1	0.0591974669509	blockFiles/set_22/main_unc/leftBlue\GB_LB_4.xlsx
415	main_unc	True	0.0	446	0	6.0	6.0	0.0	0	left	2.0	0.0	0.0	1	0.0189614214003	blockFiles/set_22/main_unc/leftBlue\GB_LB_4.xlsx
416	main_unc	True	0.0	446	0	6.0	6.0	0.0	0	left	2.0	0.0	0.0	1	0.0026717277616300004	blockFiles/set_22/main_unc/leftBlue\GB_LB_4.xlsx
417	main_unc	True	0.0	446	0	6.0	6.0	0.0	1	left	2.0	1.0	1.0	0	-0.0736423873343	blockFiles/set_22/main_unc/leftBlue\GB_LB_4.xlsx
418	main_unc	True	0.0	446	0	6.0	6.0	0.0	1	left	2.0	0.0	1.0	0	-0.04976363766940001	blockFiles/set_22/main_unc/leftBlue\GB_LB_4.xlsx
419	main_unc	True	0.0	446	0	6.0	6.0	1.0	1	right	1.0	1.0	1.0	1	0.0411261648498	blockFiles/set_22/main_unc/leftBlue\GB_LB_4.xlsx
420	main_unc	True	0.0	446	0	6.0	6.0	1.0	1	right	1.0	1.0	1.0	1	0.015307519640799998	blockFiles/set_22/main_unc/leftBlue\GB_LB_4.xlsx
421	main_unc	True	0.0	446	0	6.0	6.0	1.0	1	right	1.0	0.0	1.0	1	0.00468820083886	blockFiles/set_22/main_unc/leftBlue\GB_LB_4.xlsx
422	main_unc	True	0.0	446	0	6.0	6.0	1.0	1	right	1.0	1.0	1.0	1	0.042688299287099996	blockFiles/set_22/main_unc/leftBlue\GB_LB_4.xlsx
423	main_unc	True	0.0	446	0	6.0	6.0	1.0	1	right	1.0	1.0	1.0	1	0.053706462513699996	blockFiles/set_22/main_unc/leftBlue\GB_LB_4.xlsx
424	main_unc	True	0.0	446	0	6.0	6.0	1.0	0	right	1.0	0.0	0.0	0	-0.018493500202900002	blockFiles/set_22/main_unc/leftBlue\GB_LB_4.xlsx
425	main_unc	True	0.0	446	0	6.0	6.0	0.0	1	left	2.0	0.0	1.0	0	-0.0585177805275	blockFiles/set_22/main_unc/leftBlue\GB_LB_4.xlsx
426	main_unc	True	0.0	446	0	6.0	6.0	0.0	1	left	2.0	0.0	1.0	0	-0.0270280620083	blockFiles/set_22/main_unc/leftBlue\GB_LB_4.xlsx
427	main_unc	True	0.0	446	0	6.0	6.0	1.0	1	right	1.0	1.0	1.0	1	0.00152773687616	blockFiles/set_22/main_unc/leftBlue\GB_LB_4.xlsx
428	main_unc	True	0.0	446	0	7.0	7.0	1.0	1	right	2.0	1.0	1.0	1	0.047196815572699995	blockFiles/set_22/main_unc/rightBlue\GB_RB_6.xlsx
429	main_unc	True	0.0	446	0	7.0	7.0	0.0	0	left	1.0	0.0	0.0	1	0.0040510247834000005	blockFiles/set_22/main_unc/rightBlue\GB_RB_6.xlsx
430	main_unc	True	0.0	446	0	7.0	7.0	1.0	1	right	2.0	0.0	1.0	1	0.00688217001036	blockFiles/set_22/main_unc/rightBlue\GB_RB_6.xlsx
431	main_unc	True	0.0	446	0	7.0	7.0	1.0	1	right	2.0	1.0	1.0	1	0.0172614777461	blockFiles/set_22/main_unc/rightBlue\GB_RB_6.xlsx
432	main_unc	True	0.0	446	0	7.0	7.0	1.0	1	right	2.0	1.0	1.0	1	0.0708767834678	blockFiles/set_22/main_unc/rightBlue\GB_RB_6.xlsx
433	main_unc	True	0.0	446	0	7.0	7.0	0.0	1	left	1.0	1.0	1.0	0	-0.0723300267942	blockFiles/set_22/main_unc/rightBlue\GB_RB_6.xlsx
434	main_unc	True	0.0	446	0	7.0	7.0	0.0	1	left	1.0	0.0	1.0	0	-0.05842557564380001	blockFiles/set_22/main_unc/rightBlue\GB_RB_6.xlsx
435	main_unc	True	0.0	446	0	7.0	7.0	0.0	1	left	1.0	1.0	1.0	0	-0.043462330028400005	blockFiles/set_22/main_unc/rightBlue\GB_RB_6.xlsx
436	main_unc	True	0.0	446	0	7.0	7.0	1.0	1	right	2.0	0.0	1.0	1	0.056091315094400004	blockFiles/set_22/main_unc/rightBlue\GB_RB_6.xlsx
437	main_unc	True	0.0	446	0	7.0	7.0	1.0	1	right	2.0	1.0	1.0	1	0.0299656491727	blockFiles/set_22/main_unc/rightBlue\GB_RB_6.xlsx
438	main_unc	True	0.0	446	0	7.0	7.0	1.0	1	right	2.0	1.0	1.0	1	0.016589613836299998	blockFiles/set_22/main_unc/rightBlue\GB_RB_6.xlsx
439	main_unc	True	0.0	446	0	7.0	7.0	1.0	1	right	2.0	1.0	1.0	1	0.0283743269742	blockFiles/set_22/main_unc/rightBlue\GB_RB_6.xlsx
440	main_unc	True	0.0	446	0	7.0	7.0	1.0	1	right	2.0	1.0	1.0	1	0.0446733961627	blockFiles/set_22/main_unc/rightBlue\GB_RB_6.xlsx
441	main_unc	True	0.0	446	0	7.0	7.0	0.0	1	left	1.0	1.0	1.0	0	-0.07837229654189999	blockFiles/set_22/main_unc/rightBlue\GB_RB_6.xlsx
442	main_unc	True	0.0	446	0	7.0	7.0	0.0	1	left	1.0	1.0	1.0	0	-0.0304721202515	blockFiles/set_22/main_unc/rightBlue\GB_RB_6.xlsx
443	main_unc	True	0.0	446	0	7.0	7.0	0.0	1	left	1.0	1.0	1.0	0	-0.056016380861400004	blockFiles/set_22/main_unc/rightBlue\GB_RB_6.xlsx
444	main_unc	True	0.0	446	0	7.0	7.0	0.0	1	left	1.0	0.0	1.0	0	-0.0575278205052	blockFiles/set_22/main_unc/rightBlue\GB_RB_6.xlsx
445	main_unc	True	0.0	446	0	7.0	7.0	0.0	1	left	1.0	0.0	1.0	0	-0.0496143518016	blockFiles/set_22/main_unc/rightBlue\GB_RB_6.xlsx
446	main_unc	True	0.0	446	0	7.0	7.0	0.0	1	left	1.0	1.0	1.0	0	-0.0243405544572	blockFiles/set_22/main_unc/rightBlue\GB_RB_6.xlsx
447	main_unc	True	0.0	446	0	7.0	7.0	0.0	1	left	1.0	1.0	1.0	0	-0.051586076561400004	blockFiles/set_22/main_unc/rightBlue\GB_RB_6.xlsx
448	main_unc	True	0.0	446	0	7.0	7.0	1.0	1	right	2.0	1.0	1.0	1	0.014391418490600001	blockFiles/set_22/main_unc/rightBlue\GB_RB_6.xlsx
449	main_unc	True	0.0	446	0	7.0	7.0	1.0	1	right	2.0	1.0	1.0	1	0.06887698713689999	blockFiles/set_22/main_unc/rightBlue\GB_RB_6.xlsx
450	main_unc	True	0.0	446	0	7.0	7.0	0.0	1	left	1.0	1.0	1.0	0	-0.0269633583352	blockFiles/set_22/main_unc/rightBlue\GB_RB_6.xlsx
451	main_unc	True	0.0	446	0	7.0	7.0	0.0	1	left	1.0	1.0	1.0	0	-0.040084176883099995	blockFiles/set_22/main_unc/rightBlue\GB_RB_6.xlsx
452	main_unc	True	0.0	446	0	7.0	7.0	0.0	1	left	1.0	1.0	1.0	0	-0.0414987637475	blockFiles/set_22/main_unc/rightBlue\GB_RB_6.xlsx
453	main_unc	True	0.0	446	0	8.0	8.0	0.0	1	left	2.0	0.0	1.0	0	-0.0524024314061	blockFiles/set_22/main_unc/leftBlue\GB_LB_5.xlsx
454	main_unc	True	0.0	446	0	8.0	8.0	0.0	0	left	2.0	1.0	0.0	1	0.010933066904500001	blockFiles/set_22/main_unc/leftBlue\GB_LB_5.xlsx
455	main_unc	True	0.0	446	0	8.0	8.0	0.0	1	left	2.0	1.0	1.0	0	-0.0427795710042	blockFiles/set_22/main_unc/leftBlue\GB_LB_5.xlsx
456	main_unc	True	0.0	446	0	8.0	8.0	1.0	1	right	1.0	0.0	1.0	1	0.0626156246476	blockFiles/set_22/main_unc/leftBlue\GB_LB_5.xlsx
457	main_unc	True	0.0	446	0	8.0	8.0	1.0	1	right	1.0	1.0	1.0	1	0.035328797474500004	blockFiles/set_22/main_unc/leftBlue\GB_LB_5.xlsx
458	main_unc	True	0.0	446	0	8.0	8.0	1.0	1	right	1.0	1.0	1.0	1	0.0667785944231	blockFiles/set_22/main_unc/leftBlue\GB_LB_5.xlsx
459	main_unc	True	0.0	446	0	8.0	8.0	0.0	1	left	2.0	1.0	1.0	0	-0.0393513063341	blockFiles/set_22/main_unc/leftBlue\GB_LB_5.xlsx
460	main_unc	True	0.0	446	0	8.0	8.0	0.0	0	left	2.0	0.0	0.0	1	0.0480669607781	blockFiles/set_22/main_unc/leftBlue\GB_LB_5.xlsx
461	main_unc	True	0.0	446	0	8.0	8.0	0.0	1	left	2.0	1.0	1.0	0	-0.0261701963097	blockFiles/set_22/main_unc/leftBlue\GB_LB_5.xlsx
462	main_unc	True	0.0	446	0	8.0	8.0	0.0	0	left	2.0	0.0	0.0	1	0.0018432540632799998	blockFiles/set_22/main_unc/leftBlue\GB_LB_5.xlsx
463	main_unc	True	0.0	446	0	8.0	8.0	1.0	1	right	1.0	1.0	1.0	1	0.07556852199139999	blockFiles/set_22/main_unc/leftBlue\GB_LB_5.xlsx
464	main_unc	True	0.0	446	0	8.0	8.0	0.0	1	left	2.0	1.0	1.0	0	-0.056929671261499996	blockFiles/set_22/main_unc/leftBlue\GB_LB_5.xlsx
465	main_unc	True	0.0	446	0	8.0	8.0	1.0	1	right	1.0	0.0	1.0	1	0.022776813171799998	blockFiles/set_22/main_unc/leftBlue\GB_LB_5.xlsx
466	main_unc	True	0.0	446	0	8.0	8.0	0.0	1	left	2.0	1.0	1.0	0	-0.0468303148635	blockFiles/set_22/main_unc/leftBlue\GB_LB_5.xlsx
467	main_unc	True	0.0	446	0	8.0	8.0	0.0	1	left	2.0	1.0	1.0	0	-0.021207952369	blockFiles/set_22/main_unc/leftBlue\GB_LB_5.xlsx
468	main_unc	True	0.0	446	0	8.0	8.0	1.0	1	right	1.0	1.0	1.0	1	0.0372430801019	blockFiles/set_22/main_unc/leftBlue\GB_LB_5.xlsx
469	main_unc	True	0.0	446	0	8.0	8.0	0.0	1	left	2.0	1.0	1.0	0	-0.06118912003930001	blockFiles/set_22/main_unc/leftBlue\GB_LB_5.xlsx
470	main_unc	True	0.0	446	0	8.0	8.0	0.0	1	left	2.0	1.0	1.0	0	-0.052950380668	blockFiles/set_22/main_unc/leftBlue\GB_LB_5.xlsx
471	main_unc	True	0.0	446	0	8.0	8.0	1.0	1	right	1.0	0.0	1.0	1	0.055262956749599995	blockFiles/set_22/main_unc/leftBlue\GB_LB_5.xlsx
472	main_unc	True	0.0	446	0	8.0	8.0	0.0	1	left	2.0	1.0	1.0	0	-0.0545546473376	blockFiles/set_22/main_unc/leftBlue\GB_LB_5.xlsx
473	main_unc	True	0.0	446	0	8.0	8.0	0.0	1	left	2.0	1.0	1.0	0	-0.044143477194	blockFiles/set_22/main_unc/leftBlue\GB_LB_5.xlsx
474	main_unc	True	0.0	446	0	8.0	8.0	0.0	1	left	2.0	1.0	1.0	0	-0.0237381985597	blockFiles/set_22/main_unc/leftBlue\GB_LB_5.xlsx
475	main_unc	True	0.0	446	0	8.0	8.0	1.0	1	right	1.0	1.0	1.0	1	0.0590296312608	blockFiles/set_22/main_unc/leftBlue\GB_LB_5.xlsx
476	main_unc	True	0.0	446	0	8.0	8.0	0.0	1	left	2.0	1.0	1.0	0	-0.0174985251203	blockFiles/set_22/main_unc/leftBlue\GB_LB_5.xlsx
477	main_unc	True	0.0	446	0	8.0	8.0	1.0	0	right	1.0	0.0	0.0	0	-9.36016999185e-05	blockFiles/set_22/main_unc/leftBlue\GB_LB_5.xlsx
478	main_unc	True	0.0	446	0	9.0	9.0	0.0	1	left	2.0	0.0	0.0	0	-0.0625450788625	blockFiles/set_22/main_unc/rightBlue\GB_RB_3.xlsx
479	main_unc	True	0.0	446	0	9.0	9.0	0.0	1	left	2.0	0.0	0.0	0	-0.025778326261800003	blockFiles/set_22/main_unc/rightBlue\GB_RB_3.xlsx
480	main_unc	True	0.0	446	0	9.0	9.0	1.0	1	right	1.0	0.0	0.0	1	0.062133761178699995	blockFiles/set_22/main_unc/rightBlue\GB_RB_3.xlsx
481	main_unc	True	0.0	446	0	9.0	9.0	1.0	1	right	2.0	1.0	1.0	1	0.037971547562599996	blockFiles/set_22/main_unc/rightBlue\GB_RB_3.xlsx
482	main_unc	True	0.0	446	0	9.0	9.0	1.0	1	right	2.0	1.0	1.0	1	0.0182135897502	blockFiles/set_22/main_unc/rightBlue\GB_RB_3.xlsx
483	main_unc	True	0.0	446	0	9.0	9.0	0.0	1	left	1.0	1.0	1.0	0	-0.0167188493721	blockFiles/set_22/main_unc/rightBlue\GB_RB_3.xlsx
484	main_unc	True	0.0	446	0	9.0	9.0	0.0	1	left	1.0	1.0	1.0	0	-0.0329931152426	blockFiles/set_22/main_unc/rightBlue\GB_RB_3.xlsx
485	main_unc	True	0.0	446	0	9.0	9.0	0.0	1	left	1.0	1.0	1.0	0	-0.023639327082799998	blockFiles/set_22/main_unc/rightBlue\GB_RB_3.xlsx
486	main_unc	True	0.0	446	0	9.0	9.0	1.0	1	right	2.0	1.0	1.0	1	0.0788102425635	blockFiles/set_22/main_unc/rightBlue\GB_RB_3.xlsx
487	main_unc	True	0.0	446	0	9.0	9.0	1.0	1	right	2.0	0.0	1.0	1	0.0522190598398	blockFiles/set_22/main_unc/rightBlue\GB_RB_3.xlsx
488	main_unc	True	0.0	446	0	9.0	9.0	1.0	1	right	2.0	0.0	1.0	1	0.0260425377637	blockFiles/set_22/main_unc/rightBlue\GB_RB_3.xlsx
489	main_unc	True	0.0	446	0	9.0	9.0	1.0	1	right	2.0	1.0	1.0	1	0.0175768634491	blockFiles/set_22/main_unc/rightBlue\GB_RB_3.xlsx
490	main_unc	True	0.0	446	0	9.0	9.0	0.0	1	left	1.0	0.0	1.0	0	-0.0687940640748	blockFiles/set_22/main_unc/rightBlue\GB_RB_3.xlsx
491	main_unc	True	0.0	446	0	9.0	9.0	0.0	0	left	1.0	0.0	0.0	1	0.0178709480539	blockFiles/set_22/main_unc/rightBlue\GB_RB_3.xlsx
492	main_unc	True	0.0	446	0	9.0	9.0	0.0	0	left	1.0	0.0	0.0	1	0.00774368599057	blockFiles/set_22/main_unc/rightBlue\GB_RB_3.xlsx
493	main_unc	True	0.0	446	0	9.0	9.0	0.0	1	left	1.0	1.0	1.0	0	-0.0659444909729	blockFiles/set_22/main_unc/rightBlue\GB_RB_3.xlsx
494	main_unc	True	0.0	446	0	9.0	9.0	0.0	1	left	1.0	1.0	1.0	0	-0.0673218675703	blockFiles/set_22/main_unc/rightBlue\GB_RB_3.xlsx
495	main_unc	True	0.0	446	0	9.0	9.0	0.0	1	left	1.0	1.0	1.0	0	-0.00338913455606	blockFiles/set_22/main_unc/rightBlue\GB_RB_3.xlsx
496	main_unc	True	0.0	446	0	9.0	9.0	1.0	1	right	2.0	0.0	1.0	1	0.038627239596099996	blockFiles/set_22/main_unc/rightBlue\GB_RB_3.xlsx
497	main_unc	True	0.0	446	0	9.0	9.0	0.0	1	left	1.0	1.0	1.0	0	-0.0792073597386	blockFiles/set_22/main_unc/rightBlue\GB_RB_3.xlsx
498	main_unc	True	0.0	446	0	9.0	9.0	0.0	1	left	1.0	1.0	1.0	0	-0.047011027205699996	blockFiles/set_22/main_unc/rightBlue\GB_RB_3.xlsx
499	main_unc	True	0.0	446	0	9.0	9.0	0.0	0	left	1.0	0.0	0.0	1	0.0103506692871	blockFiles/set_22/main_unc/rightBlue\GB_RB_3.xlsx
500	main_unc	True	0.0	446	0	9.0	9.0	0.0	1	left	1.0	0.0	1.0	0	-0.0641288775392	blockFiles/set_22/main_unc/rightBlue\GB_RB_3.xlsx
501	main_unc	True	0.0	446	0	9.0	9.0	0.0	1	left	1.0	1.0	1.0	0	-0.054632365722199996	blockFiles/set_22/main_unc/rightBlue\GB_RB_3.xlsx
502	main_unc	True	0.0	446	0	9.0	9.0	0.0	0	left	1.0	0.0	0.0	1	0.006192195024340001	blockFiles/set_22/main_unc/rightBlue\GB_RB_3.xlsx
503	main_unc	True	0.0	446	0	10.0	10.0	1.0	1	right	1.0	0.0	1.0	1	0.0665894545242	blockFiles/set_22/main_unc/leftBlue\GB_LB_6.xlsx
504	main_unc	True	0.0	446	0	10.0	10.0	0.0	1	left	2.0	1.0	1.0	0	-0.0290253912844	blockFiles/set_22/main_unc/leftBlue\GB_LB_6.xlsx
505	main_unc	True	0.0	446	0	10.0	10.0	0.0	1	left	2.0	1.0	1.0	0	-0.0560188619047	blockFiles/set_22/main_unc/leftBlue\GB_LB_6.xlsx
506	main_unc	True	0.0	446	0	10.0	10.0	0.0	1	left	2.0	1.0	1.0	0	-0.0570830651931	blockFiles/set_22/main_unc/leftBlue\GB_LB_6.xlsx
507	main_unc	True	0.0	446	0	10.0	10.0	1.0	1	right	1.0	1.0	1.0	1	0.074375246726	blockFiles/set_22/main_unc/leftBlue\GB_LB_6.xlsx
508	main_unc	True	0.0	446	0	10.0	10.0	1.0	1	right	1.0	1.0	1.0	1	0.0133611495048	blockFiles/set_22/main_unc/leftBlue\GB_LB_6.xlsx
509	main_unc	True	0.0	446	0	10.0	10.0	0.0	1	left	2.0	1.0	1.0	0	-0.00738109193742	blockFiles/set_22/main_unc/leftBlue\GB_LB_6.xlsx
510	main_unc	True	0.0	446	0	10.0	10.0	1.0	1	right	1.0	1.0	1.0	1	0.040477655362300004	blockFiles/set_22/main_unc/leftBlue\GB_LB_6.xlsx
511	main_unc	True	0.0	446	0	10.0	10.0	1.0	1	right	1.0	1.0	1.0	1	0.0398209745064	blockFiles/set_22/main_unc/leftBlue\GB_LB_6.xlsx
512	main_unc	True	0.0	446	0	10.0	10.0	0.0	1	left	2.0	1.0	1.0	0	-0.0676375691406	blockFiles/set_22/main_unc/leftBlue\GB_LB_6.xlsx
513	main_unc	True	0.0	446	0	10.0	10.0	0.0	1	left	2.0	1.0	1.0	0	-0.044960923343900006	blockFiles/set_22/main_unc/leftBlue\GB_LB_6.xlsx
514	main_unc	True	0.0	446	0	10.0	10.0	1.0	1	right	1.0	0.0	1.0	1	0.067326031141	blockFiles/set_22/main_unc/leftBlue\GB_LB_6.xlsx
515	main_unc	True	0.0	446	0	10.0	10.0	0.0	1	left	2.0	1.0	1.0	0	-0.04613854384050001	blockFiles/set_22/main_unc/leftBlue\GB_LB_6.xlsx
516	main_unc	True	0.0	446	0	10.0	10.0	0.0	1	left	2.0	1.0	1.0	0	-0.0448159746453	blockFiles/set_22/main_unc/leftBlue\GB_LB_6.xlsx
517	main_unc	True	0.0	446	0	10.0	10.0	0.0	1	left	2.0	1.0	1.0	0	-0.00708707878366	blockFiles/set_22/main_unc/leftBlue\GB_LB_6.xlsx
518	main_unc	True	0.0	446	0	10.0	10.0	1.0	1	right	1.0	1.0	1.0	1	0.067524266988	blockFiles/set_22/main_unc/leftBlue\GB_LB_6.xlsx
519	main_unc	True	0.0	446	0	10.0	10.0	1.0	1	right	1.0	0.0	1.0	1	0.012225893344700001	blockFiles/set_22/main_unc/leftBlue\GB_LB_6.xlsx
520	main_unc	True	0.0	446	0	10.0	10.0	0.0	0	left	2.0	1.0	0.0	1	2.48823314905e-06	blockFiles/set_22/main_unc/leftBlue\GB_LB_6.xlsx
521	main_unc	True	0.0	446	0	10.0	10.0	1.0	1	right	1.0	1.0	1.0	1	0.044235436618300004	blockFiles/set_22/main_unc/leftBlue\GB_LB_6.xlsx
522	main_unc	True	0.0	446	0	10.0	10.0	1.0	1	right	1.0	1.0	1.0	1	0.0608932696469	blockFiles/set_22/main_unc/leftBlue\GB_LB_6.xlsx
523	main_unc	True	0.0	446	0	10.0	10.0	1.0	1	right	1.0	1.0	1.0	1	0.027150855921200003	blockFiles/set_22/main_unc/leftBlue\GB_LB_6.xlsx
524	main_unc	True	0.0	446	0	10.0	10.0	1.0	1	right	1.0	1.0	1.0	1	0.0327450973354	blockFiles/set_22/main_unc/leftBlue\GB_LB_6.xlsx
525	main_unc	True	0.0	446	0	10.0	10.0	0.0	1	left	2.0	1.0	1.0	0	-0.07865437701339999	blockFiles/set_22/main_unc/leftBlue\GB_LB_6.xlsx
526	main_unc	True	0.0	446	0	10.0	10.0	1.0	1	right	1.0	1.0	1.0	1	0.020146632269	blockFiles/set_22/main_unc/leftBlue\GB_LB_6.xlsx
527	main_unc	True	0.0	446	0	10.0	10.0	0.0	1	left	2.0	1.0	1.0	0	-0.0700922442786	blockFiles/set_22/main_unc/leftBlue\GB_LB_6.xlsx
528	main_unc	True	0.0	446	0	11.0	11.0	1.0	1	right	1.0	0.0	1.0	1	0.018653059415500002	blockFiles/set_22/main_unc/leftBlue\GB_LB_2.xlsx
529	main_unc	True	0.0	446	0	11.0	11.0	0.0	1	left	2.0	1.0	1.0	0	-0.0552687345259	blockFiles/set_22/main_unc/leftBlue\GB_LB_2.xlsx
530	main_unc	True	0.0	446	0	11.0	11.0	1.0	1	right	1.0	1.0	1.0	1	0.024842513408499998	blockFiles/set_22/main_unc/leftBlue\GB_LB_2.xlsx
531	main_unc	True	0.0	446	0	11.0	11.0	0.0	1	left	2.0	1.0	1.0	0	-0.0494371159002	blockFiles/set_22/main_unc/leftBlue\GB_LB_2.xlsx
532	main_unc	True	0.0	446	0	11.0	11.0	0.0	1	left	2.0	1.0	1.0	0	-0.0704158064164	blockFiles/set_22/main_unc/leftBlue\GB_LB_2.xlsx
533	main_unc	True	0.0	446	0	11.0	11.0	0.0	1	left	2.0	1.0	1.0	0	-0.0111545504816	blockFiles/set_22/main_unc/leftBlue\GB_LB_2.xlsx
534	main_unc	True	0.0	446	0	11.0	11.0	1.0	1	right	1.0	1.0	1.0	1	0.0401864025183	blockFiles/set_22/main_unc/leftBlue\GB_LB_2.xlsx
535	main_unc	True	0.0	446	0	11.0	11.0	0.0	1	left	2.0	1.0	1.0	0	-0.072549048271	blockFiles/set_22/main_unc/leftBlue\GB_LB_2.xlsx
536	main_unc	True	0.0	446	0	11.0	11.0	0.0	1	left	2.0	0.0	1.0	0	-0.0413180037029	blockFiles/set_22/main_unc/leftBlue\GB_LB_2.xlsx
537	main_unc	True	0.0	446	0	11.0	11.0	1.0	1	right	1.0	1.0	1.0	1	0.036984953600900004	blockFiles/set_22/main_unc/leftBlue\GB_LB_2.xlsx
538	main_unc	True	0.0	446	0	11.0	11.0	0.0	1	left	2.0	1.0	1.0	0	-0.020272549465299997	blockFiles/set_22/main_unc/leftBlue\GB_LB_2.xlsx
539	main_unc	True	0.0	446	0	11.0	11.0	0.0	1	left	2.0	0.0	1.0	0	-0.07158516163010001	blockFiles/set_22/main_unc/leftBlue\GB_LB_2.xlsx
540	main_unc	True	0.0	446	0	11.0	11.0	0.0	1	left	2.0	1.0	1.0	0	-0.024889053609199997	blockFiles/set_22/main_unc/leftBlue\GB_LB_2.xlsx
541	main_unc	True	0.0	446	0	11.0	11.0	1.0	1	right	1.0	1.0	1.0	1	0.018148324899400003	blockFiles/set_22/main_unc/leftBlue\GB_LB_2.xlsx
542	main_unc	True	0.0	446	0	11.0	11.0	1.0	1	right	1.0	1.0	1.0	1	0.027027195189099996	blockFiles/set_22/main_unc/leftBlue\GB_LB_2.xlsx
543	main_unc	True	0.0	446	0	11.0	11.0	1.0	0	right	1.0	0.0	0.0	0	-0.00315548151731	blockFiles/set_22/main_unc/leftBlue\GB_LB_2.xlsx
544	main_unc	True	0.0	446	0	11.0	11.0	1.0	1	right	1.0	1.0	1.0	1	0.047973989211	blockFiles/set_22/main_unc/leftBlue\GB_LB_2.xlsx
545	main_unc	True	0.0	446	0	11.0	11.0	0.0	1	left	2.0	1.0	1.0	0	-0.0719714318961	blockFiles/set_22/main_unc/leftBlue\GB_LB_2.xlsx
546	main_unc	True	0.0	446	0	11.0	11.0	0.0	1	left	2.0	1.0	1.0	0	-0.0456686598249	blockFiles/set_22/main_unc/leftBlue\GB_LB_2.xlsx
547	main_unc	True	0.0	446	0	11.0	11.0	1.0	1	right	1.0	1.0	1.0	1	0.0416972181015	blockFiles/set_22/main_unc/leftBlue\GB_LB_2.xlsx
548	main_unc	True	0.0	446	0	11.0	11.0	1.0	0	right	1.0	1.0	0.0	0	-0.00933529440314	blockFiles/set_22/main_unc/leftBlue\GB_LB_2.xlsx
549	main_unc	True	1.0	446	0	11.0	11.0	n/a	0	None	n/a	0.0	n/a	1	0.00191531479359	blockFiles/set_22/main_unc/leftBlue\GB_LB_2.xlsx
550	main_unc	True	0.0	446	0	11.0	11.0	1.0	1	right	1.0	1.0	1.0	1	0.0392587709054	blockFiles/set_22/main_unc/leftBlue\GB_LB_2.xlsx
551	main_unc	True	0.0	446	0	11.0	11.0	1.0	1	right	1.0	0.0	1.0	1	0.0627711511031	blockFiles/set_22/main_unc/leftBlue\GB_LB_2.xlsx
552	main_unc	True	0.0	446	0	11.0	11.0	1.0	1	right	1.0	0.0	1.0	1	0.0493761456199	blockFiles/set_22/main_unc/leftBlue\GB_LB_2.xlsx
553	main_unc	True	0.0	446	0	11.0	11.0	0.0	0	left	2.0	0.0	0.0	1	0.00191531479359	blockFiles/set_22/main_unc/leftBlue\GB_LB_2.xlsx
