	trial_type	complete	missIndex	participant	id	blockNumber	b_t	d_t	decision1.corr	decision1.keys	a_t	r_t	decision2.corr	s_t	u_t	block_file
0	main_safe	True	0.0	743	0	0.0	0.0	0.0	1	left	1.0	0.0	0.0	0	-0.08	blockFiles/set_7/main_safe/leftBlue\GB_LB_3.xlsx
1	main_safe	True	0.0	743	0	0.0	0.0	1.0	1	right	1.0	1.0	1.0	1	0.08	blockFiles/set_7/main_safe/leftBlue\GB_LB_3.xlsx
2	main_safe	True	0.0	743	0	0.0	0.0	1.0	1	right	1.0	1.0	1.0	1	0.08	blockFiles/set_7/main_safe/leftBlue\GB_LB_3.xlsx
3	main_safe	True	0.0	743	0	0.0	0.0	0.0	1	left	2.0	1.0	1.0	0	-0.08	blockFiles/set_7/main_safe/leftBlue\GB_LB_3.xlsx
4	main_safe	True	0.0	743	0	0.0	0.0	0.0	1	left	2.0	0.0	1.0	0	-0.08	blockFiles/set_7/main_safe/leftBlue\GB_LB_3.xlsx
5	main_safe	True	0.0	743	0	0.0	0.0	1.0	1	right	1.0	1.0	1.0	1	0.08	blockFiles/set_7/main_safe/leftBlue\GB_LB_3.xlsx
6	main_safe	True	0.0	743	0	0.0	0.0	1.0	1	right	1.0	1.0	1.0	1	0.08	blockFiles/set_7/main_safe/leftBlue\GB_LB_3.xlsx
7	main_safe	True	0.0	743	0	0.0	0.0	1.0	1	right	1.0	1.0	1.0	1	0.08	blockFiles/set_7/main_safe/leftBlue\GB_LB_3.xlsx
8	main_safe	True	0.0	743	0	0.0	0.0	0.0	1	left	2.0	0.0	1.0	0	-0.08	blockFiles/set_7/main_safe/leftBlue\GB_LB_3.xlsx
9	main_safe	True	0.0	743	0	0.0	0.0	1.0	1	right	1.0	1.0	1.0	1	0.08	blockFiles/set_7/main_safe/leftBlue\GB_LB_3.xlsx
10	main_safe	True	0.0	743	0	0.0	0.0	1.0	1	right	1.0	0.0	1.0	1	0.08	blockFiles/set_7/main_safe/leftBlue\GB_LB_3.xlsx
11	main_safe	True	0.0	743	0	0.0	0.0	0.0	1	left	2.0	1.0	1.0	0	-0.08	blockFiles/set_7/main_safe/leftBlue\GB_LB_3.xlsx
12	main_safe	True	0.0	743	0	0.0	0.0	1.0	1	right	1.0	1.0	1.0	1	0.08	blockFiles/set_7/main_safe/leftBlue\GB_LB_3.xlsx
13	main_safe	True	0.0	743	0	0.0	0.0	1.0	1	right	1.0	0.0	1.0	1	0.08	blockFiles/set_7/main_safe/leftBlue\GB_LB_3.xlsx
14	main_safe	True	0.0	743	0	0.0	0.0	0.0	1	left	2.0	1.0	1.0	0	-0.08	blockFiles/set_7/main_safe/leftBlue\GB_LB_3.xlsx
15	main_safe	True	0.0	743	0	0.0	0.0	1.0	1	right	1.0	1.0	1.0	1	0.08	blockFiles/set_7/main_safe/leftBlue\GB_LB_3.xlsx
16	main_safe	True	0.0	743	0	0.0	0.0	0.0	1	left	2.0	1.0	1.0	0	-0.08	blockFiles/set_7/main_safe/leftBlue\GB_LB_3.xlsx
17	main_safe	True	0.0	743	0	0.0	0.0	0.0	1	left	2.0	1.0	1.0	0	-0.08	blockFiles/set_7/main_safe/leftBlue\GB_LB_3.xlsx
18	main_safe	True	0.0	743	0	0.0	0.0	0.0	1	left	2.0	1.0	1.0	0	-0.08	blockFiles/set_7/main_safe/leftBlue\GB_LB_3.xlsx
19	main_safe	True	0.0	743	0	0.0	0.0	0.0	1	left	2.0	1.0	1.0	0	-0.08	blockFiles/set_7/main_safe/leftBlue\GB_LB_3.xlsx
20	main_safe	True	0.0	743	0	0.0	0.0	1.0	1	right	1.0	0.0	1.0	1	0.08	blockFiles/set_7/main_safe/leftBlue\GB_LB_3.xlsx
21	main_safe	True	0.0	743	0	0.0	0.0	1.0	1	right	1.0	1.0	1.0	1	0.08	blockFiles/set_7/main_safe/leftBlue\GB_LB_3.xlsx
22	main_safe	True	0.0	743	0	0.0	0.0	0.0	1	left	2.0	1.0	1.0	0	-0.08	blockFiles/set_7/main_safe/leftBlue\GB_LB_3.xlsx
23	main_safe	True	0.0	743	0	0.0	0.0	0.0	1	left	2.0	1.0	1.0	0	-0.08	blockFiles/set_7/main_safe/leftBlue\GB_LB_3.xlsx
24	main_safe	True	0.0	743	0	0.0	0.0	1.0	1	right	2.0	0.0	0.0	1	0.08	blockFiles/set_7/main_safe/leftBlue\GB_LB_3.xlsx
25	main_safe	True	0.0	743	0	1.0	1.0	1.0	1	right	1.0	0.0	1.0	1	0.08	blockFiles/set_7/main_safe/leftBlue\GB_LB_2.xlsx
26	main_safe	True	0.0	743	0	1.0	1.0	0.0	1	left	1.0	0.0	0.0	0	-0.08	blockFiles/set_7/main_safe/leftBlue\GB_LB_2.xlsx
27	main_safe	True	0.0	743	0	1.0	1.0	0.0	1	left	1.0	0.0	0.0	0	-0.08	blockFiles/set_7/main_safe/leftBlue\GB_LB_2.xlsx
28	main_safe	True	0.0	743	0	1.0	1.0	0.0	1	left	2.0	1.0	1.0	0	-0.08	blockFiles/set_7/main_safe/leftBlue\GB_LB_2.xlsx
29	main_safe	True	0.0	743	0	1.0	1.0	0.0	1	left	2.0	0.0	1.0	0	-0.08	blockFiles/set_7/main_safe/leftBlue\GB_LB_2.xlsx
30	main_safe	True	0.0	743	0	1.0	1.0	0.0	1	left	2.0	1.0	1.0	0	-0.08	blockFiles/set_7/main_safe/leftBlue\GB_LB_2.xlsx
31	main_safe	True	0.0	743	0	1.0	1.0	1.0	1	right	1.0	1.0	1.0	1	0.08	blockFiles/set_7/main_safe/leftBlue\GB_LB_2.xlsx
32	main_safe	True	0.0	743	0	1.0	1.0	0.0	1	left	2.0	1.0	1.0	0	-0.08	blockFiles/set_7/main_safe/leftBlue\GB_LB_2.xlsx
33	main_safe	True	0.0	743	0	1.0	1.0	1.0	1	right	1.0	0.0	1.0	1	0.08	blockFiles/set_7/main_safe/leftBlue\GB_LB_2.xlsx
34	main_safe	True	0.0	743	0	1.0	1.0	0.0	1	left	2.0	1.0	1.0	0	-0.08	blockFiles/set_7/main_safe/leftBlue\GB_LB_2.xlsx
35	main_safe	True	0.0	743	0	1.0	1.0	0.0	1	left	2.0	0.0	1.0	0	-0.08	blockFiles/set_7/main_safe/leftBlue\GB_LB_2.xlsx
36	main_safe	True	1.0	743	0	1.0	1.0	0.0	1	left	n/a	0.0	n/a	0	-0.08	blockFiles/set_7/main_safe/leftBlue\GB_LB_2.xlsx
37	main_safe	True	0.0	743	0	1.0	1.0	1.0	1	right	1.0	1.0	1.0	1	0.08	blockFiles/set_7/main_safe/leftBlue\GB_LB_2.xlsx
38	main_safe	True	0.0	743	0	1.0	1.0	1.0	1	right	1.0	1.0	1.0	1	0.08	blockFiles/set_7/main_safe/leftBlue\GB_LB_2.xlsx
39	main_safe	True	0.0	743	0	1.0	1.0	1.0	1	right	1.0	1.0	1.0	1	0.08	blockFiles/set_7/main_safe/leftBlue\GB_LB_2.xlsx
40	main_safe	True	0.0	743	0	1.0	1.0	1.0	1	right	1.0	1.0	1.0	1	0.08	blockFiles/set_7/main_safe/leftBlue\GB_LB_2.xlsx
41	main_safe	True	0.0	743	0	1.0	1.0	1.0	1	right	1.0	1.0	1.0	1	0.08	blockFiles/set_7/main_safe/leftBlue\GB_LB_2.xlsx
42	main_safe	True	0.0	743	0	1.0	1.0	1.0	1	right	1.0	1.0	1.0	1	0.08	blockFiles/set_7/main_safe/leftBlue\GB_LB_2.xlsx
43	main_safe	True	0.0	743	0	1.0	1.0	1.0	1	right	1.0	1.0	1.0	1	0.08	blockFiles/set_7/main_safe/leftBlue\GB_LB_2.xlsx
44	main_safe	True	0.0	743	0	1.0	1.0	1.0	1	right	1.0	1.0	1.0	1	0.08	blockFiles/set_7/main_safe/leftBlue\GB_LB_2.xlsx
45	main_safe	True	0.0	743	0	1.0	1.0	0.0	1	left	2.0	1.0	1.0	0	-0.08	blockFiles/set_7/main_safe/leftBlue\GB_LB_2.xlsx
46	main_safe	True	0.0	743	0	1.0	1.0	0.0	1	left	2.0	1.0	1.0	0	-0.08	blockFiles/set_7/main_safe/leftBlue\GB_LB_2.xlsx
47	main_safe	True	0.0	743	0	1.0	1.0	1.0	1	right	1.0	1.0	1.0	1	0.08	blockFiles/set_7/main_safe/leftBlue\GB_LB_2.xlsx
48	main_safe	True	0.0	743	0	1.0	1.0	0.0	1	left	2.0	1.0	1.0	0	-0.08	blockFiles/set_7/main_safe/leftBlue\GB_LB_2.xlsx
49	main_safe	True	0.0	743	0	1.0	1.0	0.0	1	left	2.0	1.0	1.0	0	-0.08	blockFiles/set_7/main_safe/leftBlue\GB_LB_2.xlsx
50	main_safe	True	0.0	743	0	1.0	1.0	0.0	1	left	2.0	1.0	1.0	0	-0.08	blockFiles/set_7/main_safe/leftBlue\GB_LB_2.xlsx
51	main_safe	True	0.0	743	0	2.0	2.0	1.0	1	right	1.0	0.0	0.0	1	0.08	blockFiles/set_7/main_safe/rightBlue\GB_RB_2.xlsx
52	main_safe	True	0.0	743	0	2.0	2.0	0.0	1	left	2.0	1.0	0.0	0	-0.08	blockFiles/set_7/main_safe/rightBlue\GB_RB_2.xlsx
53	main_safe	True	0.0	743	0	2.0	2.0	0.0	1	left	2.0	0.0	0.0	0	-0.08	blockFiles/set_7/main_safe/rightBlue\GB_RB_2.xlsx
54	main_safe	True	0.0	743	0	2.0	2.0	0.0	1	left	1.0	1.0	1.0	0	-0.08	blockFiles/set_7/main_safe/rightBlue\GB_RB_2.xlsx
55	main_safe	True	0.0	743	0	2.0	2.0	1.0	1	right	2.0	0.0	1.0	1	0.08	blockFiles/set_7/main_safe/rightBlue\GB_RB_2.xlsx
56	main_safe	True	0.0	743	0	2.0	2.0	0.0	1	left	1.0	1.0	1.0	0	-0.08	blockFiles/set_7/main_safe/rightBlue\GB_RB_2.xlsx
57	main_safe	True	0.0	743	0	2.0	2.0	0.0	1	left	1.0	1.0	1.0	0	-0.08	blockFiles/set_7/main_safe/rightBlue\GB_RB_2.xlsx
58	main_safe	True	0.0	743	0	2.0	2.0	1.0	1	right	2.0	1.0	1.0	1	0.08	blockFiles/set_7/main_safe/rightBlue\GB_RB_2.xlsx
59	main_safe	True	0.0	743	0	2.0	2.0	0.0	1	left	1.0	1.0	1.0	0	-0.08	blockFiles/set_7/main_safe/rightBlue\GB_RB_2.xlsx
60	main_safe	True	1.0	743	0	2.0	2.0	0.0	1	left	n/a	0.0	n/a	0	-0.08	blockFiles/set_7/main_safe/rightBlue\GB_RB_2.xlsx
61	main_safe	True	0.0	743	0	2.0	2.0	0.0	1	left	1.0	0.0	1.0	0	-0.08	blockFiles/set_7/main_safe/rightBlue\GB_RB_2.xlsx
62	main_safe	True	0.0	743	0	2.0	2.0	1.0	1	right	2.0	1.0	1.0	1	0.08	blockFiles/set_7/main_safe/rightBlue\GB_RB_2.xlsx
63	main_safe	True	0.0	743	0	2.0	2.0	1.0	1	right	2.0	1.0	1.0	1	0.08	blockFiles/set_7/main_safe/rightBlue\GB_RB_2.xlsx
64	main_safe	True	0.0	743	0	2.0	2.0	1.0	1	right	2.0	0.0	1.0	1	0.08	blockFiles/set_7/main_safe/rightBlue\GB_RB_2.xlsx
65	main_safe	True	0.0	743	0	2.0	2.0	1.0	1	right	2.0	0.0	1.0	1	0.08	blockFiles/set_7/main_safe/rightBlue\GB_RB_2.xlsx
66	main_safe	True	0.0	743	0	2.0	2.0	1.0	1	right	2.0	1.0	1.0	1	0.08	blockFiles/set_7/main_safe/rightBlue\GB_RB_2.xlsx
67	main_safe	True	0.0	743	0	2.0	2.0	1.0	1	right	2.0	1.0	1.0	1	0.08	blockFiles/set_7/main_safe/rightBlue\GB_RB_2.xlsx
68	main_safe	True	0.0	743	0	2.0	2.0	0.0	1	left	2.0	0.0	0.0	0	-0.08	blockFiles/set_7/main_safe/rightBlue\GB_RB_2.xlsx
69	main_safe	True	0.0	743	0	2.0	2.0	1.0	1	right	2.0	1.0	1.0	1	0.08	blockFiles/set_7/main_safe/rightBlue\GB_RB_2.xlsx
70	main_safe	True	0.0	743	0	2.0	2.0	0.0	1	left	1.0	1.0	1.0	0	-0.08	blockFiles/set_7/main_safe/rightBlue\GB_RB_2.xlsx
71	main_safe	True	0.0	743	0	2.0	2.0	0.0	1	left	1.0	1.0	1.0	0	-0.08	blockFiles/set_7/main_safe/rightBlue\GB_RB_2.xlsx
72	main_safe	True	1.0	743	0	2.0	2.0	1.0	1	right	n/a	0.0	n/a	1	0.08	blockFiles/set_7/main_safe/rightBlue\GB_RB_2.xlsx
73	main_safe	True	0.0	743	0	2.0	2.0	1.0	1	right	2.0	1.0	1.0	1	0.08	blockFiles/set_7/main_safe/rightBlue\GB_RB_2.xlsx
74	main_safe	True	0.0	743	0	2.0	2.0	1.0	1	right	2.0	1.0	1.0	1	0.08	blockFiles/set_7/main_safe/rightBlue\GB_RB_2.xlsx
75	main_safe	True	0.0	743	0	2.0	2.0	1.0	1	right	2.0	1.0	1.0	1	0.08	blockFiles/set_7/main_safe/rightBlue\GB_RB_2.xlsx
76	main_safe	True	0.0	743	0	2.0	2.0	0.0	1	left	1.0	1.0	1.0	0	-0.08	blockFiles/set_7/main_safe/rightBlue\GB_RB_2.xlsx
77	main_safe	True	0.0	743	0	2.0	2.0	1.0	1	right	2.0	1.0	1.0	1	0.08	blockFiles/set_7/main_safe/rightBlue\GB_RB_2.xlsx
78	main_safe	True	0.0	743	0	3.0	3.0	1.0	1	right	1.0	1.0	1.0	1	0.08	blockFiles/set_7/main_safe/leftBlue\GB_LB_1.xlsx
79	main_safe	True	0.0	743	0	3.0	3.0	0.0	1	left	2.0	0.0	1.0	0	-0.08	blockFiles/set_7/main_safe/leftBlue\GB_LB_1.xlsx
80	main_safe	True	0.0	743	0	3.0	3.0	0.0	1	left	2.0	0.0	1.0	0	-0.08	blockFiles/set_7/main_safe/leftBlue\GB_LB_1.xlsx
81	main_safe	True	0.0	743	0	3.0	3.0	1.0	1	right	2.0	0.0	0.0	1	0.08	blockFiles/set_7/main_safe/leftBlue\GB_LB_1.xlsx
82	main_safe	True	0.0	743	0	3.0	3.0	1.0	1	right	2.0	0.0	0.0	1	0.08	blockFiles/set_7/main_safe/leftBlue\GB_LB_1.xlsx
83	main_safe	True	0.0	743	0	3.0	3.0	1.0	1	right	1.0	1.0	1.0	1	0.08	blockFiles/set_7/main_safe/leftBlue\GB_LB_1.xlsx
84	main_safe	True	0.0	743	0	3.0	3.0	0.0	1	left	2.0	1.0	1.0	0	-0.08	blockFiles/set_7/main_safe/leftBlue\GB_LB_1.xlsx
85	main_safe	True	0.0	743	0	3.0	3.0	0.0	1	left	2.0	1.0	1.0	0	-0.08	blockFiles/set_7/main_safe/leftBlue\GB_LB_1.xlsx
86	main_safe	True	0.0	743	0	3.0	3.0	0.0	1	left	2.0	1.0	1.0	0	-0.08	blockFiles/set_7/main_safe/leftBlue\GB_LB_1.xlsx
87	main_safe	True	0.0	743	0	3.0	3.0	1.0	1	right	1.0	0.0	1.0	1	0.08	blockFiles/set_7/main_safe/leftBlue\GB_LB_1.xlsx
88	main_safe	True	0.0	743	0	3.0	3.0	0.0	1	left	2.0	1.0	1.0	0	-0.08	blockFiles/set_7/main_safe/leftBlue\GB_LB_1.xlsx
89	main_safe	True	0.0	743	0	3.0	3.0	1.0	1	right	1.0	1.0	1.0	1	0.08	blockFiles/set_7/main_safe/leftBlue\GB_LB_1.xlsx
90	main_safe	True	1.0	743	0	3.0	3.0	0.0	1	left	n/a	0.0	n/a	0	-0.08	blockFiles/set_7/main_safe/leftBlue\GB_LB_1.xlsx
91	main_safe	True	0.0	743	0	3.0	3.0	0.0	1	left	2.0	0.0	1.0	0	-0.08	blockFiles/set_7/main_safe/leftBlue\GB_LB_1.xlsx
92	main_safe	True	0.0	743	0	3.0	3.0	0.0	1	left	2.0	1.0	1.0	0	-0.08	blockFiles/set_7/main_safe/leftBlue\GB_LB_1.xlsx
93	main_safe	True	1.0	743	0	3.0	3.0	1.0	1	right	n/a	0.0	n/a	1	0.08	blockFiles/set_7/main_safe/leftBlue\GB_LB_1.xlsx
94	main_safe	True	0.0	743	0	3.0	3.0	1.0	1	right	1.0	1.0	1.0	1	0.08	blockFiles/set_7/main_safe/leftBlue\GB_LB_1.xlsx
95	main_safe	True	0.0	743	0	3.0	3.0	1.0	1	right	1.0	1.0	1.0	1	0.08	blockFiles/set_7/main_safe/leftBlue\GB_LB_1.xlsx
96	main_safe	True	0.0	743	0	3.0	3.0	0.0	1	left	2.0	1.0	1.0	0	-0.08	blockFiles/set_7/main_safe/leftBlue\GB_LB_1.xlsx
97	main_safe	True	0.0	743	0	3.0	3.0	0.0	1	left	2.0	1.0	1.0	0	-0.08	blockFiles/set_7/main_safe/leftBlue\GB_LB_1.xlsx
98	main_safe	True	0.0	743	0	3.0	3.0	1.0	1	right	2.0	0.0	0.0	1	0.08	blockFiles/set_7/main_safe/leftBlue\GB_LB_1.xlsx
99	main_safe	True	0.0	743	0	3.0	3.0	1.0	1	right	1.0	0.0	1.0	1	0.08	blockFiles/set_7/main_safe/leftBlue\GB_LB_1.xlsx
100	main_safe	True	0.0	743	0	3.0	3.0	1.0	1	right	1.0	1.0	1.0	1	0.08	blockFiles/set_7/main_safe/leftBlue\GB_LB_1.xlsx
101	main_safe	True	0.0	743	0	3.0	3.0	0.0	1	left	2.0	1.0	1.0	0	-0.08	blockFiles/set_7/main_safe/leftBlue\GB_LB_1.xlsx
102	main_safe	True	0.0	743	0	3.0	3.0	0.0	1	left	2.0	1.0	1.0	0	-0.08	blockFiles/set_7/main_safe/leftBlue\GB_LB_1.xlsx
103	main_safe	True	0.0	743	0	3.0	3.0	0.0	1	left	2.0	1.0	1.0	0	-0.08	blockFiles/set_7/main_safe/leftBlue\GB_LB_1.xlsx
104	main_safe	True	0.0	743	0	3.0	3.0	1.0	1	right	1.0	1.0	1.0	1	0.08	blockFiles/set_7/main_safe/leftBlue\GB_LB_1.xlsx
105	main_safe	True	1.0	743	0	4.0	4.0	0.0	1	left	n/a	0.0	n/a	0	-0.08	blockFiles/set_7/main_safe/rightBlue\GB_RB_3.xlsx
106	main_safe	True	0.0	743	0	4.0	4.0	1.0	1	right	1.0	0.0	0.0	1	0.08	blockFiles/set_7/main_safe/rightBlue\GB_RB_3.xlsx
107	main_safe	True	0.0	743	0	4.0	4.0	0.0	1	left	1.0	1.0	1.0	0	-0.08	blockFiles/set_7/main_safe/rightBlue\GB_RB_3.xlsx
108	main_safe	True	0.0	743	0	4.0	4.0	0.0	1	left	1.0	1.0	1.0	0	-0.08	blockFiles/set_7/main_safe/rightBlue\GB_RB_3.xlsx
109	main_safe	True	0.0	743	0	4.0	4.0	1.0	1	right	2.0	1.0	1.0	1	0.08	blockFiles/set_7/main_safe/rightBlue\GB_RB_3.xlsx
110	main_safe	True	0.0	743	0	4.0	4.0	0.0	1	left	1.0	1.0	1.0	0	-0.08	blockFiles/set_7/main_safe/rightBlue\GB_RB_3.xlsx
111	main_safe	True	0.0	743	0	4.0	4.0	1.0	1	right	2.0	1.0	1.0	1	0.08	blockFiles/set_7/main_safe/rightBlue\GB_RB_3.xlsx
112	main_safe	True	0.0	743	0	4.0	4.0	1.0	1	right	1.0	0.0	0.0	1	0.08	blockFiles/set_7/main_safe/rightBlue\GB_RB_3.xlsx
113	main_safe	True	0.0	743	0	4.0	4.0	0.0	1	left	1.0	1.0	1.0	0	-0.08	blockFiles/set_7/main_safe/rightBlue\GB_RB_3.xlsx
114	main_safe	True	0.0	743	0	4.0	4.0	0.0	1	left	1.0	1.0	1.0	0	-0.08	blockFiles/set_7/main_safe/rightBlue\GB_RB_3.xlsx
115	main_safe	True	0.0	743	0	4.0	4.0	1.0	1	right	1.0	0.0	0.0	1	0.08	blockFiles/set_7/main_safe/rightBlue\GB_RB_3.xlsx
116	main_safe	True	0.0	743	0	4.0	4.0	1.0	1	right	2.0	1.0	1.0	1	0.08	blockFiles/set_7/main_safe/rightBlue\GB_RB_3.xlsx
117	main_safe	True	0.0	743	0	4.0	4.0	0.0	1	left	1.0	1.0	1.0	0	-0.08	blockFiles/set_7/main_safe/rightBlue\GB_RB_3.xlsx
118	main_safe	True	0.0	743	0	4.0	4.0	0.0	1	left	1.0	0.0	1.0	0	-0.08	blockFiles/set_7/main_safe/rightBlue\GB_RB_3.xlsx
119	main_safe	True	0.0	743	0	4.0	4.0	0.0	1	left	1.0	1.0	1.0	0	-0.08	blockFiles/set_7/main_safe/rightBlue\GB_RB_3.xlsx
120	main_safe	True	0.0	743	0	4.0	4.0	1.0	1	right	2.0	0.0	1.0	1	0.08	blockFiles/set_7/main_safe/rightBlue\GB_RB_3.xlsx
121	main_safe	True	0.0	743	0	4.0	4.0	0.0	1	left	1.0	1.0	1.0	0	-0.08	blockFiles/set_7/main_safe/rightBlue\GB_RB_3.xlsx
122	main_safe	True	0.0	743	0	4.0	4.0	1.0	1	right	2.0	1.0	1.0	1	0.08	blockFiles/set_7/main_safe/rightBlue\GB_RB_3.xlsx
123	main_safe	True	1.0	743	0	4.0	4.0	1.0	1	right	n/a	0.0	n/a	1	0.08	blockFiles/set_7/main_safe/rightBlue\GB_RB_3.xlsx
124	main_safe	True	0.0	743	0	4.0	4.0	1.0	1	right	2.0	1.0	1.0	1	0.08	blockFiles/set_7/main_safe/rightBlue\GB_RB_3.xlsx
125	main_safe	True	0.0	743	0	4.0	4.0	1.0	1	right	2.0	1.0	1.0	1	0.08	blockFiles/set_7/main_safe/rightBlue\GB_RB_3.xlsx
126	main_safe	True	0.0	743	0	4.0	4.0	0.0	1	left	1.0	1.0	1.0	0	-0.08	blockFiles/set_7/main_safe/rightBlue\GB_RB_3.xlsx
127	main_safe	True	0.0	743	0	4.0	4.0	0.0	1	left	1.0	0.0	1.0	0	-0.08	blockFiles/set_7/main_safe/rightBlue\GB_RB_3.xlsx
128	main_safe	True	0.0	743	0	4.0	4.0	0.0	1	left	1.0	1.0	1.0	0	-0.08	blockFiles/set_7/main_safe/rightBlue\GB_RB_3.xlsx
129	main_safe	True	0.0	743	0	4.0	4.0	0.0	1	left	1.0	0.0	1.0	0	-0.08	blockFiles/set_7/main_safe/rightBlue\GB_RB_3.xlsx
130	main_safe	True	0.0	743	0	4.0	4.0	0.0	1	left	1.0	1.0	1.0	0	-0.08	blockFiles/set_7/main_safe/rightBlue\GB_RB_3.xlsx
131	main_safe	True	0.0	743	0	4.0	4.0	1.0	1	right	2.0	1.0	1.0	1	0.08	blockFiles/set_7/main_safe/rightBlue\GB_RB_3.xlsx
132	main_safe	True	1.0	743	0	5.0	5.0	n/a	0	None	n/a	0.0	n/a	0	-0.08	blockFiles/set_7/main_safe/rightBlue\GB_RB_1.xlsx
133	main_safe	True	0.0	743	0	5.0	5.0	1.0	1	right	1.0	0.0	0.0	1	0.08	blockFiles/set_7/main_safe/rightBlue\GB_RB_1.xlsx
134	main_safe	True	0.0	743	0	5.0	5.0	1.0	1	right	1.0	0.0	0.0	1	0.08	blockFiles/set_7/main_safe/rightBlue\GB_RB_1.xlsx
135	main_safe	True	0.0	743	0	5.0	5.0	1.0	1	right	2.0	1.0	1.0	1	0.08	blockFiles/set_7/main_safe/rightBlue\GB_RB_1.xlsx
136	main_safe	True	0.0	743	0	5.0	5.0	1.0	1	right	2.0	1.0	1.0	1	0.08	blockFiles/set_7/main_safe/rightBlue\GB_RB_1.xlsx
137	main_safe	True	0.0	743	0	5.0	5.0	1.0	1	right	2.0	1.0	1.0	1	0.08	blockFiles/set_7/main_safe/rightBlue\GB_RB_1.xlsx
138	main_safe	True	0.0	743	0	5.0	5.0	0.0	1	left	1.0	1.0	1.0	0	-0.08	blockFiles/set_7/main_safe/rightBlue\GB_RB_1.xlsx
139	main_safe	True	0.0	743	0	5.0	5.0	0.0	1	left	1.0	0.0	1.0	0	-0.08	blockFiles/set_7/main_safe/rightBlue\GB_RB_1.xlsx
140	main_safe	True	0.0	743	0	5.0	5.0	1.0	1	right	2.0	1.0	1.0	1	0.08	blockFiles/set_7/main_safe/rightBlue\GB_RB_1.xlsx
141	main_safe	True	0.0	743	0	5.0	5.0	0.0	1	left	1.0	1.0	1.0	0	-0.08	blockFiles/set_7/main_safe/rightBlue\GB_RB_1.xlsx
142	main_safe	True	0.0	743	0	5.0	5.0	1.0	1	right	2.0	0.0	1.0	1	0.08	blockFiles/set_7/main_safe/rightBlue\GB_RB_1.xlsx
143	main_safe	True	1.0	743	0	5.0	5.0	0.0	1	left	n/a	0.0	n/a	0	-0.08	blockFiles/set_7/main_safe/rightBlue\GB_RB_1.xlsx
144	main_safe	True	0.0	743	0	5.0	5.0	1.0	1	right	2.0	0.0	1.0	1	0.08	blockFiles/set_7/main_safe/rightBlue\GB_RB_1.xlsx
145	main_safe	True	0.0	743	0	5.0	5.0	1.0	1	right	2.0	0.0	1.0	1	0.08	blockFiles/set_7/main_safe/rightBlue\GB_RB_1.xlsx
146	main_safe	True	0.0	743	0	5.0	5.0	0.0	1	left	1.0	1.0	1.0	0	-0.08	blockFiles/set_7/main_safe/rightBlue\GB_RB_1.xlsx
147	main_safe	True	0.0	743	0	5.0	5.0	1.0	1	right	2.0	1.0	1.0	1	0.08	blockFiles/set_7/main_safe/rightBlue\GB_RB_1.xlsx
148	main_safe	True	0.0	743	0	5.0	5.0	0.0	1	left	1.0	0.0	1.0	0	-0.08	blockFiles/set_7/main_safe/rightBlue\GB_RB_1.xlsx
149	main_safe	True	0.0	743	0	5.0	5.0	0.0	1	left	1.0	1.0	1.0	0	-0.08	blockFiles/set_7/main_safe/rightBlue\GB_RB_1.xlsx
150	main_safe	True	0.0	743	0	5.0	5.0	1.0	1	right	2.0	1.0	1.0	1	0.08	blockFiles/set_7/main_safe/rightBlue\GB_RB_1.xlsx
151	main_safe	True	0.0	743	0	5.0	5.0	0.0	1	left	1.0	1.0	1.0	0	-0.08	blockFiles/set_7/main_safe/rightBlue\GB_RB_1.xlsx
152	main_safe	True	0.0	743	0	5.0	5.0	1.0	1	right	1.0	0.0	0.0	1	0.08	blockFiles/set_7/main_safe/rightBlue\GB_RB_1.xlsx
153	main_safe	True	0.0	743	0	5.0	5.0	1.0	1	right	2.0	1.0	1.0	1	0.08	blockFiles/set_7/main_safe/rightBlue\GB_RB_1.xlsx
154	main_safe	True	0.0	743	0	5.0	5.0	0.0	1	left	2.0	0.0	0.0	0	-0.08	blockFiles/set_7/main_safe/rightBlue\GB_RB_1.xlsx
155	main_safe	True	0.0	743	0	5.0	5.0	1.0	1	right	2.0	1.0	1.0	1	0.08	blockFiles/set_7/main_safe/rightBlue\GB_RB_1.xlsx
156	main_safe	True	0.0	743	0	5.0	5.0	0.0	1	left	1.0	1.0	1.0	0	-0.08	blockFiles/set_7/main_safe/rightBlue\GB_RB_1.xlsx
157	main_safe	True	0.0	743	0	5.0	5.0	0.0	1	left	1.0	1.0	1.0	0	-0.08	blockFiles/set_7/main_safe/rightBlue\GB_RB_1.xlsx
158	main_safe	True	0.0	743	0	5.0	5.0	0.0	1	left	1.0	1.0	1.0	0	-0.08	blockFiles/set_7/main_safe/rightBlue\GB_RB_1.xlsx
159	patches	True	n/a	743	0	n/a	n/a	0.0	1	left	n/a	n/a	n/a	0	-0.038303025606999996	blockFiles/set_7/main_PD/GB_runPatches1.xlsx
160	patches	True	n/a	743	0	n/a	n/a	1.0	0	right	n/a	n/a	n/a	0	-0.00021922102198	blockFiles/set_7/main_PD/GB_runPatches1.xlsx
161	patches	True	n/a	743	0	n/a	n/a	1.0	1	right	n/a	n/a	n/a	1	0.0273423083685	blockFiles/set_7/main_PD/GB_runPatches1.xlsx
162	patches	True	n/a	743	0	n/a	n/a	0.0	1	left	n/a	n/a	n/a	0	-0.0597145084664	blockFiles/set_7/main_PD/GB_runPatches1.xlsx
163	patches	True	n/a	743	0	n/a	n/a	1.0	0	right	n/a	n/a	n/a	0	-0.0114395037107	blockFiles/set_7/main_PD/GB_runPatches1.xlsx
164	patches	True	n/a	743	0	n/a	n/a	1.0	1	right	n/a	n/a	n/a	1	0.0611786969192	blockFiles/set_7/main_PD/GB_runPatches1.xlsx
165	patches	True	n/a	743	0	n/a	n/a	n/a	0	None	n/a	n/a	n/a	1	0.00652826601639	blockFiles/set_7/main_PD/GB_runPatches1.xlsx
166	patches	True	n/a	743	0	n/a	n/a	1.0	1	right	n/a	n/a	n/a	1	0.07815008709210002	blockFiles/set_7/main_PD/GB_runPatches1.xlsx
167	patches	True	n/a	743	0	n/a	n/a	0.0	1	left	n/a	n/a	n/a	0	-0.039847534801800005	blockFiles/set_7/main_PD/GB_runPatches1.xlsx
168	patches	True	n/a	743	0	n/a	n/a	1.0	1	right	n/a	n/a	n/a	1	0.057690926902	blockFiles/set_7/main_PD/GB_runPatches1.xlsx
169	patches	True	n/a	743	0	n/a	n/a	1.0	1	right	n/a	n/a	n/a	1	0.0759180936217	blockFiles/set_7/main_PD/GB_runPatches1.xlsx
170	patches	True	n/a	743	0	n/a	n/a	0.0	1	left	n/a	n/a	n/a	0	-0.021477147377999998	blockFiles/set_7/main_PD/GB_runPatches1.xlsx
171	patches	True	n/a	743	0	n/a	n/a	0.0	1	left	n/a	n/a	n/a	0	-0.0053420673497	blockFiles/set_7/main_PD/GB_runPatches1.xlsx
172	patches	True	n/a	743	0	n/a	n/a	0.0	0	left	n/a	n/a	n/a	1	0.0027826743014200002	blockFiles/set_7/main_PD/GB_runPatches1.xlsx
173	patches	True	n/a	743	0	n/a	n/a	0.0	1	left	n/a	n/a	n/a	0	-0.0555473922007	blockFiles/set_7/main_PD/GB_runPatches1.xlsx
174	patches	True	n/a	743	0	n/a	n/a	1.0	1	right	n/a	n/a	n/a	1	0.071501072403	blockFiles/set_7/main_PD/GB_runPatches1.xlsx
175	patches	True	n/a	743	0	n/a	n/a	1.0	0	right	n/a	n/a	n/a	0	-0.0398052232526	blockFiles/set_7/main_PD/GB_runPatches1.xlsx
176	patches	True	n/a	743	0	n/a	n/a	0.0	0	left	n/a	n/a	n/a	1	0.0337951354869	blockFiles/set_7/main_PD/GB_runPatches1.xlsx
177	patches	True	n/a	743	0	n/a	n/a	0.0	1	left	n/a	n/a	n/a	0	-0.0404193831235	blockFiles/set_7/main_PD/GB_runPatches1.xlsx
178	patches	True	n/a	743	0	n/a	n/a	1.0	1	right	n/a	n/a	n/a	1	0.0732289251685	blockFiles/set_7/main_PD/GB_runPatches1.xlsx
179	patches	True	n/a	743	0	n/a	n/a	1.0	0	right	n/a	n/a	n/a	0	-0.0352325310186	blockFiles/set_7/main_PD/GB_runPatches1.xlsx
180	patches	True	n/a	743	0	n/a	n/a	0.0	1	left	n/a	n/a	n/a	0	-0.0371331500076	blockFiles/set_7/main_PD/GB_runPatches1.xlsx
181	patches	True	n/a	743	0	n/a	n/a	0.0	1	left	n/a	n/a	n/a	0	-0.043512030337	blockFiles/set_7/main_PD/GB_runPatches1.xlsx
182	patches	True	n/a	743	0	n/a	n/a	0.0	1	left	n/a	n/a	n/a	0	-0.026689805090400004	blockFiles/set_7/main_PD/GB_runPatches1.xlsx
183	patches	True	n/a	743	0	n/a	n/a	1.0	1	right	n/a	n/a	n/a	1	0.011321345157899999	blockFiles/set_7/main_PD/GB_runPatches1.xlsx
184	patches	True	n/a	743	0	n/a	n/a	1.0	1	right	n/a	n/a	n/a	1	0.079049759917	blockFiles/set_7/main_PD/GB_runPatches1.xlsx
185	patches	True	n/a	743	0	n/a	n/a	1.0	0	right	n/a	n/a	n/a	0	-0.0469859122671	blockFiles/set_7/main_PD/GB_runPatches1.xlsx
186	patches	True	n/a	743	0	n/a	n/a	1.0	1	right	n/a	n/a	n/a	1	0.037146559990900004	blockFiles/set_7/main_PD/GB_runPatches1.xlsx
187	patches	True	n/a	743	0	n/a	n/a	0.0	1	left	n/a	n/a	n/a	0	-0.0757314041443	blockFiles/set_7/main_PD/GB_runPatches1.xlsx
188	patches	True	n/a	743	0	n/a	n/a	1.0	1	right	n/a	n/a	n/a	1	0.028405845165300002	blockFiles/set_7/main_PD/GB_runPatches1.xlsx
189	patches	True	n/a	743	0	n/a	n/a	1.0	1	right	n/a	n/a	n/a	1	0.031004763376000003	blockFiles/set_7/main_PD/GB_runPatches1.xlsx
190	patches	True	n/a	743	0	n/a	n/a	1.0	1	right	n/a	n/a	n/a	1	0.020258129146	blockFiles/set_7/main_PD/GB_runPatches1.xlsx
191	patches	True	n/a	743	0	n/a	n/a	0.0	1	left	n/a	n/a	n/a	0	-0.050672050491	blockFiles/set_7/main_PD/GB_runPatches1.xlsx
192	patches	True	n/a	743	0	n/a	n/a	0.0	1	left	n/a	n/a	n/a	0	-0.045782928485400005	blockFiles/set_7/main_PD/GB_runPatches1.xlsx
193	patches	True	n/a	743	0	n/a	n/a	0.0	1	left	n/a	n/a	n/a	0	-0.0405409934744	blockFiles/set_7/main_PD/GB_runPatches1.xlsx
194	patches	True	n/a	743	0	n/a	n/a	0.0	1	left	n/a	n/a	n/a	0	-0.0246509597078	blockFiles/set_7/main_PD/GB_runPatches1.xlsx
195	patches	True	n/a	743	0	n/a	n/a	0.0	1	left	n/a	n/a	n/a	0	-0.0667946057394	blockFiles/set_7/main_PD/GB_runPatches1.xlsx
196	patches	True	n/a	743	0	n/a	n/a	0.0	1	left	n/a	n/a	n/a	0	-0.0286328874156	blockFiles/set_7/main_PD/GB_runPatches1.xlsx
197	patches	True	n/a	743	0	n/a	n/a	0.0	1	left	n/a	n/a	n/a	0	-0.0505280970037	blockFiles/set_7/main_PD/GB_runPatches1.xlsx
198	patches	True	n/a	743	0	n/a	n/a	1.0	1	right	n/a	n/a	n/a	1	0.046955304686	blockFiles/set_7/main_PD/GB_runPatches1.xlsx
199	patches	True	n/a	743	0	n/a	n/a	0.0	1	left	n/a	n/a	n/a	0	-0.013455655854200001	blockFiles/set_7/main_PD/GB_runPatches1.xlsx
200	patches	True	n/a	743	0	n/a	n/a	1.0	1	right	n/a	n/a	n/a	1	0.0393640579283	blockFiles/set_7/main_PD/GB_runPatches1.xlsx
201	patches	True	n/a	743	0	n/a	n/a	1.0	1	right	n/a	n/a	n/a	1	0.0637432711758	blockFiles/set_7/main_PD/GB_runPatches1.xlsx
202	patches	True	n/a	743	0	n/a	n/a	1.0	1	right	n/a	n/a	n/a	1	0.0722751033492	blockFiles/set_7/main_PD/GB_runPatches1.xlsx
203	patches	True	n/a	743	0	n/a	n/a	0.0	1	left	n/a	n/a	n/a	0	-0.0243967215158	blockFiles/set_7/main_PD/GB_runPatches1.xlsx
204	patches	True	n/a	743	0	n/a	n/a	0.0	1	left	n/a	n/a	n/a	0	-0.0555943763442	blockFiles/set_7/main_PD/GB_runPatches1.xlsx
205	patches	True	n/a	743	0	n/a	n/a	1.0	1	right	n/a	n/a	n/a	1	0.0183358713612	blockFiles/set_7/main_PD/GB_runPatches1.xlsx
206	patches	True	n/a	743	0	n/a	n/a	1.0	1	right	n/a	n/a	n/a	1	0.0103975103609	blockFiles/set_7/main_PD/GB_runPatches1.xlsx
207	patches	True	n/a	743	0	n/a	n/a	1.0	1	right	n/a	n/a	n/a	1	0.0197735195048	blockFiles/set_7/main_PD/GB_runPatches1.xlsx
208	patches	True	n/a	743	0	n/a	n/a	1.0	1	right	n/a	n/a	n/a	1	0.0416690126806	blockFiles/set_7/main_PD/GB_runPatches1.xlsx
209	patches	True	n/a	743	0	n/a	n/a	1.0	1	right	n/a	n/a	n/a	1	0.0363596802764	blockFiles/set_7/main_PD/GB_runPatches1.xlsx
210	patches	True	n/a	743	0	n/a	n/a	1.0	1	right	n/a	n/a	n/a	1	0.06856895629319999	blockFiles/set_7/main_PD/GB_runPatches1.xlsx
211	patches	True	n/a	743	0	n/a	n/a	0.0	0	left	n/a	n/a	n/a	1	0.007613653857260001	blockFiles/set_7/main_PD/GB_runPatches1.xlsx
212	patches	True	n/a	743	0	n/a	n/a	0.0	1	left	n/a	n/a	n/a	0	-0.07373910158869999	blockFiles/set_7/main_PD/GB_runPatches1.xlsx
213	patches	True	n/a	743	0	n/a	n/a	0.0	1	left	n/a	n/a	n/a	0	-0.055286311060199995	blockFiles/set_7/main_PD/GB_runPatches1.xlsx
214	patches	True	n/a	743	0	n/a	n/a	0.0	1	left	n/a	n/a	n/a	0	-0.0326439512335	blockFiles/set_7/main_PD/GB_runPatches1.xlsx
215	patches	True	n/a	743	0	n/a	n/a	1.0	0	right	n/a	n/a	n/a	0	-0.0323337943293	blockFiles/set_7/main_PD/GB_runPatches1.xlsx
216	patches	True	n/a	743	0	n/a	n/a	0.0	0	left	n/a	n/a	n/a	1	0.028427235819399998	blockFiles/set_7/main_PD/GB_runPatches1.xlsx
217	patches	True	n/a	743	0	n/a	n/a	0.0	1	left	n/a	n/a	n/a	0	-0.052530204635100004	blockFiles/set_7/main_PD/GB_runPatches1.xlsx
218	patches	True	n/a	743	0	n/a	n/a	1.0	1	right	n/a	n/a	n/a	1	0.057455607000699994	blockFiles/set_7/main_PD/GB_runPatches1.xlsx
219	patches	True	n/a	743	0	n/a	n/a	0.0	1	left	n/a	n/a	n/a	0	-0.035255682449800006	blockFiles/set_7/main_PD/GB_runPatches1.xlsx
220	patches	True	n/a	743	0	n/a	n/a	1.0	1	right	n/a	n/a	n/a	1	0.0266212289408	blockFiles/set_7/main_PD/GB_runPatches1.xlsx
221	patches	True	n/a	743	0	n/a	n/a	0.0	1	left	n/a	n/a	n/a	0	-0.017233944181400004	blockFiles/set_7/main_PD/GB_runPatches1.xlsx
222	patches	True	n/a	743	0	n/a	n/a	0.0	1	left	n/a	n/a	n/a	0	-0.0195364489593	blockFiles/set_7/main_PD/GB_runPatches1.xlsx
223	patches	True	n/a	743	0	n/a	n/a	1.0	0	right	n/a	n/a	n/a	0	-0.0242193448544	blockFiles/set_7/main_PD/GB_runPatches1.xlsx
224	patches	True	n/a	743	0	n/a	n/a	1.0	1	right	n/a	n/a	n/a	1	0.0377088267356	blockFiles/set_7/main_PD/GB_runPatches1.xlsx
225	patches	True	n/a	743	0	n/a	n/a	0.0	1	left	n/a	n/a	n/a	0	-0.0403931780346	blockFiles/set_7/main_PD/GB_runPatches1.xlsx
226	patches	True	n/a	743	0	n/a	n/a	0.0	0	left	n/a	n/a	n/a	1	0.07865109426900001	blockFiles/set_7/main_PD/GB_runPatches1.xlsx
227	patches	True	n/a	743	0	n/a	n/a	1.0	1	right	n/a	n/a	n/a	1	0.0719429108314	blockFiles/set_7/main_PD/GB_runPatches1.xlsx
228	patches	True	n/a	743	0	n/a	n/a	0.0	1	left	n/a	n/a	n/a	0	-0.0567518595606	blockFiles/set_7/main_PD/GB_runPatches1.xlsx
229	patches	True	n/a	743	0	n/a	n/a	0.0	1	left	n/a	n/a	n/a	0	-0.00813618697226	blockFiles/set_7/main_PD/GB_runPatches1.xlsx
230	patches	True	n/a	743	0	n/a	n/a	1.0	1	right	n/a	n/a	n/a	1	0.0512024174631	blockFiles/set_7/main_PD/GB_runPatches1.xlsx
231	patches	True	n/a	743	0	n/a	n/a	1.0	1	right	n/a	n/a	n/a	1	0.0102108670957	blockFiles/set_7/main_PD/GB_runPatches1.xlsx
232	patches	True	n/a	743	0	n/a	n/a	0.0	0	left	n/a	n/a	n/a	1	0.04539675105359999	blockFiles/set_7/main_PD/GB_runPatches1.xlsx
233	patches	True	n/a	743	0	n/a	n/a	0.0	1	left	n/a	n/a	n/a	0	-0.0047528062202	blockFiles/set_7/main_PD/GB_runPatches1.xlsx
234	patches	True	n/a	743	0	n/a	n/a	0.0	1	left	n/a	n/a	n/a	0	-0.05361487669869999	blockFiles/set_7/main_PD/GB_runPatches1.xlsx
235	patches	True	n/a	743	0	n/a	n/a	1.0	1	right	n/a	n/a	n/a	1	0.018297794368099998	blockFiles/set_7/main_PD/GB_runPatches1.xlsx
236	patches	True	n/a	743	0	n/a	n/a	0.0	1	left	n/a	n/a	n/a	0	-0.0771708063781	blockFiles/set_7/main_PD/GB_runPatches1.xlsx
237	patches	True	n/a	743	0	n/a	n/a	1.0	0	right	n/a	n/a	n/a	0	-0.0190395094082	blockFiles/set_7/main_PD/GB_runPatches1.xlsx
238	patches	True	n/a	743	0	n/a	n/a	0.0	0	left	n/a	n/a	n/a	1	0.0306425400451	blockFiles/set_7/main_PD/GB_runPatches1.xlsx
239	patches	True	n/a	743	0	n/a	n/a	1.0	1	right	n/a	n/a	n/a	1	0.021628033146299998	blockFiles/set_7/main_PD/GB_runPatches1.xlsx
240	patches	True	n/a	743	0	n/a	n/a	1.0	1	right	n/a	n/a	n/a	1	0.016071602311	blockFiles/set_7/main_PD/GB_runPatches1.xlsx
241	patches	True	n/a	743	0	n/a	n/a	1.0	1	right	n/a	n/a	n/a	1	0.00712986886501	blockFiles/set_7/main_PD/GB_runPatches1.xlsx
242	patches	True	n/a	743	0	n/a	n/a	0.0	1	left	n/a	n/a	n/a	0	-0.056763629373199995	blockFiles/set_7/main_PD/GB_runPatches1.xlsx
243	patches	True	n/a	743	0	n/a	n/a	1.0	1	right	n/a	n/a	n/a	1	0.07345531260589999	blockFiles/set_7/main_PD/GB_runPatches1.xlsx
244	patches	True	n/a	743	0	n/a	n/a	0.0	1	left	n/a	n/a	n/a	0	-0.0479275763035	blockFiles/set_7/main_PD/GB_runPatches1.xlsx
245	patches	True	n/a	743	0	n/a	n/a	n/a	0	None	n/a	n/a	n/a	0	-0.0238578741811	blockFiles/set_7/main_PD/GB_runPatches1.xlsx
246	patches	True	n/a	743	0	n/a	n/a	0.0	1	left	n/a	n/a	n/a	0	-0.0469321344979	blockFiles/set_7/main_PD/GB_runPatches1.xlsx
247	patches	True	n/a	743	0	n/a	n/a	0.0	0	left	n/a	n/a	n/a	1	0.031662191469200004	blockFiles/set_7/main_PD/GB_runPatches1.xlsx
248	patches	True	n/a	743	0	n/a	n/a	1.0	1	right	n/a	n/a	n/a	1	0.022730114813900002	blockFiles/set_7/main_PD/GB_runPatches1.xlsx
249	patches	True	n/a	743	0	n/a	n/a	1.0	1	right	n/a	n/a	n/a	1	0.0634854530916	blockFiles/set_7/main_PD/GB_runPatches1.xlsx
250	patches	True	n/a	743	0	n/a	n/a	1.0	1	right	n/a	n/a	n/a	1	0.07769271990280001	blockFiles/set_7/main_PD/GB_runPatches1.xlsx
251	patches	True	n/a	743	0	n/a	n/a	1.0	1	right	n/a	n/a	n/a	1	0.0299283095635	blockFiles/set_7/main_PD/GB_runPatches1.xlsx
252	patches	True	n/a	743	0	n/a	n/a	1.0	1	right	n/a	n/a	n/a	1	0.04913444243369999	blockFiles/set_7/main_PD/GB_runPatches1.xlsx
253	patches	True	n/a	743	0	n/a	n/a	1.0	0	right	n/a	n/a	n/a	0	-0.026087234187900002	blockFiles/set_7/main_PD/GB_runPatches1.xlsx
254	patches	True	n/a	743	0	n/a	n/a	0.0	1	left	n/a	n/a	n/a	0	-0.0462054737285	blockFiles/set_7/main_PD/GB_runPatches1.xlsx
255	patches	True	n/a	743	0	n/a	n/a	n/a	0	None	n/a	n/a	n/a	1	0.008717658501120001	blockFiles/set_7/main_PD/GB_runPatches1.xlsx
256	patches	True	n/a	743	0	n/a	n/a	0.0	1	left	n/a	n/a	n/a	0	-0.0229415856861	blockFiles/set_7/main_PD/GB_runPatches1.xlsx
257	patches	True	n/a	743	0	n/a	n/a	n/a	0	None	n/a	n/a	n/a	0	-0.0470443241298	blockFiles/set_7/main_PD/GB_runPatches1.xlsx
258	patches	True	n/a	743	0	n/a	n/a	1.0	1	right	n/a	n/a	n/a	1	0.0677169165574	blockFiles/set_7/main_PD/GB_runPatches1.xlsx
259	main_unc	True	1.0	743	0	0.0	0.0	n/a	0	None	n/a	0.0	n/a	0	-0.047914353013000004	blockFiles/set_7/main_unc/leftBlue\GB_LB_2.xlsx
260	main_unc	True	0.0	743	0	0.0	0.0	1.0	1	right	1.0	1.0	1.0	1	0.049615444596899996	blockFiles/set_7/main_unc/leftBlue\GB_LB_2.xlsx
261	main_unc	True	0.0	743	0	0.0	0.0	0.0	1	left	2.0	1.0	1.0	0	-0.0631547986902	blockFiles/set_7/main_unc/leftBlue\GB_LB_2.xlsx
262	main_unc	True	0.0	743	0	0.0	0.0	0.0	1	left	2.0	1.0	1.0	0	-0.0544510579854	blockFiles/set_7/main_unc/leftBlue\GB_LB_2.xlsx
263	main_unc	True	0.0	743	0	0.0	0.0	1.0	1	right	1.0	1.0	1.0	1	0.0786407063715	blockFiles/set_7/main_unc/leftBlue\GB_LB_2.xlsx
264	main_unc	True	1.0	743	0	0.0	0.0	0.0	0	left	n/a	0.0	n/a	1	0.0594315669872	blockFiles/set_7/main_unc/leftBlue\GB_LB_2.xlsx
265	main_unc	True	0.0	743	0	0.0	0.0	1.0	0	right	1.0	0.0	0.0	0	-0.0024546596780399997	blockFiles/set_7/main_unc/leftBlue\GB_LB_2.xlsx
266	main_unc	True	0.0	743	0	0.0	0.0	0.0	1	left	2.0	1.0	1.0	0	-0.00443478725851	blockFiles/set_7/main_unc/leftBlue\GB_LB_2.xlsx
267	main_unc	True	0.0	743	0	0.0	0.0	0.0	1	left	2.0	1.0	1.0	0	-0.020426657088099997	blockFiles/set_7/main_unc/leftBlue\GB_LB_2.xlsx
268	main_unc	True	0.0	743	0	0.0	0.0	0.0	1	left	2.0	0.0	1.0	0	-0.0634291238524	blockFiles/set_7/main_unc/leftBlue\GB_LB_2.xlsx
269	main_unc	True	0.0	743	0	0.0	0.0	0.0	1	left	2.0	1.0	1.0	0	-0.044897950068100004	blockFiles/set_7/main_unc/leftBlue\GB_LB_2.xlsx
270	main_unc	True	0.0	743	0	0.0	0.0	0.0	0	left	2.0	0.0	0.0	1	0.0265047317557	blockFiles/set_7/main_unc/leftBlue\GB_LB_2.xlsx
271	main_unc	True	0.0	743	0	0.0	0.0	1.0	1	right	1.0	1.0	1.0	1	0.0417333253473	blockFiles/set_7/main_unc/leftBlue\GB_LB_2.xlsx
272	main_unc	True	0.0	743	0	0.0	0.0	1.0	1	right	1.0	0.0	1.0	1	0.0410295019299	blockFiles/set_7/main_unc/leftBlue\GB_LB_2.xlsx
273	main_unc	True	0.0	743	0	0.0	0.0	0.0	1	left	2.0	1.0	1.0	0	-0.00974788324907	blockFiles/set_7/main_unc/leftBlue\GB_LB_2.xlsx
274	main_unc	True	0.0	743	0	0.0	0.0	0.0	1	left	2.0	1.0	1.0	0	-0.0404160192236	blockFiles/set_7/main_unc/leftBlue\GB_LB_2.xlsx
275	main_unc	True	0.0	743	0	0.0	0.0	1.0	1	right	1.0	1.0	1.0	1	0.0455467977561	blockFiles/set_7/main_unc/leftBlue\GB_LB_2.xlsx
276	main_unc	True	0.0	743	0	0.0	0.0	0.0	1	left	2.0	0.0	1.0	0	-0.0738651277311	blockFiles/set_7/main_unc/leftBlue\GB_LB_2.xlsx
277	main_unc	True	0.0	743	0	0.0	0.0	1.0	1	right	1.0	1.0	1.0	1	0.0297392277606	blockFiles/set_7/main_unc/leftBlue\GB_LB_2.xlsx
278	main_unc	True	0.0	743	0	0.0	0.0	0.0	1	left	2.0	1.0	1.0	0	-0.07673039268699999	blockFiles/set_7/main_unc/leftBlue\GB_LB_2.xlsx
279	main_unc	True	0.0	743	0	0.0	0.0	0.0	0	left	2.0	0.0	0.0	1	0.0145371413417	blockFiles/set_7/main_unc/leftBlue\GB_LB_2.xlsx
280	main_unc	True	0.0	743	0	0.0	0.0	1.0	1	right	1.0	1.0	1.0	1	0.0239008201845	blockFiles/set_7/main_unc/leftBlue\GB_LB_2.xlsx
281	main_unc	True	1.0	743	0	0.0	0.0	0.0	0	left	n/a	0.0	n/a	1	0.00115824801847	blockFiles/set_7/main_unc/leftBlue\GB_LB_2.xlsx
282	main_unc	True	0.0	743	0	0.0	0.0	0.0	0	left	2.0	1.0	0.0	1	0.043417047783699994	blockFiles/set_7/main_unc/leftBlue\GB_LB_2.xlsx
283	main_unc	True	0.0	743	0	0.0	0.0	0.0	1	left	2.0	1.0	1.0	0	-0.07042651355269999	blockFiles/set_7/main_unc/leftBlue\GB_LB_2.xlsx
284	main_unc	True	0.0	743	0	0.0	0.0	0.0	1	left	2.0	1.0	1.0	0	-0.047914353013000004	blockFiles/set_7/main_unc/leftBlue\GB_LB_2.xlsx
285	main_unc	True	0.0	743	0	0.0	0.0	1.0	1	right	1.0	1.0	1.0	1	0.0594315669872	blockFiles/set_7/main_unc/leftBlue\GB_LB_2.xlsx
286	main_unc	True	0.0	743	0	0.0	0.0	1.0	1	right	1.0	1.0	1.0	1	0.00115824801847	blockFiles/set_7/main_unc/leftBlue\GB_LB_2.xlsx
287	main_unc	True	0.0	743	0	1.0	1.0	1.0	1	right	1.0	1.0	1.0	1	0.0677871745639	blockFiles/set_7/main_unc/leftBlue\GB_LB_5.xlsx
288	main_unc	True	0.0	743	0	1.0	1.0	0.0	1	left	2.0	1.0	1.0	0	-0.00433318341151	blockFiles/set_7/main_unc/leftBlue\GB_LB_5.xlsx
289	main_unc	True	0.0	743	0	1.0	1.0	1.0	1	right	1.0	1.0	1.0	1	0.0304836532474	blockFiles/set_7/main_unc/leftBlue\GB_LB_5.xlsx
290	main_unc	True	0.0	743	0	1.0	1.0	0.0	1	left	2.0	1.0	1.0	0	-0.010417753048200001	blockFiles/set_7/main_unc/leftBlue\GB_LB_5.xlsx
291	main_unc	True	0.0	743	0	1.0	1.0	0.0	1	left	2.0	0.0	1.0	0	-0.046715513542300004	blockFiles/set_7/main_unc/leftBlue\GB_LB_5.xlsx
292	main_unc	True	0.0	743	0	1.0	1.0	1.0	1	right	1.0	0.0	1.0	1	0.0368420110084	blockFiles/set_7/main_unc/leftBlue\GB_LB_5.xlsx
293	main_unc	True	0.0	743	0	1.0	1.0	0.0	1	left	2.0	1.0	1.0	0	-0.07081621009860001	blockFiles/set_7/main_unc/leftBlue\GB_LB_5.xlsx
294	main_unc	True	0.0	743	0	1.0	1.0	0.0	1	left	2.0	1.0	1.0	0	-0.06879479559139999	blockFiles/set_7/main_unc/leftBlue\GB_LB_5.xlsx
295	main_unc	True	0.0	743	0	1.0	1.0	0.0	1	left	2.0	1.0	1.0	0	-0.027794999592	blockFiles/set_7/main_unc/leftBlue\GB_LB_5.xlsx
296	main_unc	True	0.0	743	0	1.0	1.0	0.0	0	left	2.0	1.0	0.0	1	0.020625496562599998	blockFiles/set_7/main_unc/leftBlue\GB_LB_5.xlsx
297	main_unc	True	0.0	743	0	1.0	1.0	0.0	1	left	2.0	1.0	1.0	0	-0.042365491595099995	blockFiles/set_7/main_unc/leftBlue\GB_LB_5.xlsx
298	main_unc	True	0.0	743	0	1.0	1.0	0.0	0	left	2.0	0.0	0.0	1	0.0245253439248	blockFiles/set_7/main_unc/leftBlue\GB_LB_5.xlsx
299	main_unc	True	0.0	743	0	1.0	1.0	0.0	0	left	2.0	1.0	0.0	1	0.030978813674300002	blockFiles/set_7/main_unc/leftBlue\GB_LB_5.xlsx
300	main_unc	True	0.0	743	0	1.0	1.0	0.0	0	left	2.0	0.0	0.0	1	0.012164149005	blockFiles/set_7/main_unc/leftBlue\GB_LB_5.xlsx
301	main_unc	True	0.0	743	0	1.0	1.0	0.0	1	left	2.0	1.0	1.0	0	-0.0643014198169	blockFiles/set_7/main_unc/leftBlue\GB_LB_5.xlsx
302	main_unc	True	0.0	743	0	1.0	1.0	1.0	1	right	1.0	1.0	1.0	1	0.0324133168533	blockFiles/set_7/main_unc/leftBlue\GB_LB_5.xlsx
303	main_unc	True	0.0	743	0	1.0	1.0	0.0	1	left	2.0	1.0	1.0	0	-0.027757750470199998	blockFiles/set_7/main_unc/leftBlue\GB_LB_5.xlsx
304	main_unc	True	0.0	743	0	1.0	1.0	1.0	1	right	1.0	1.0	1.0	1	0.045987234599900007	blockFiles/set_7/main_unc/leftBlue\GB_LB_5.xlsx
305	main_unc	True	0.0	743	0	1.0	1.0	0.0	1	left	2.0	1.0	1.0	0	-0.0782437058724	blockFiles/set_7/main_unc/leftBlue\GB_LB_5.xlsx
306	main_unc	True	0.0	743	0	1.0	1.0	0.0	1	left	2.0	1.0	1.0	0	-0.013885037731399999	blockFiles/set_7/main_unc/leftBlue\GB_LB_5.xlsx
307	main_unc	True	0.0	743	0	1.0	1.0	1.0	1	right	1.0	0.0	1.0	1	0.0768760542385	blockFiles/set_7/main_unc/leftBlue\GB_LB_5.xlsx
308	main_unc	True	0.0	743	0	1.0	1.0	0.0	1	left	2.0	1.0	1.0	0	-0.0195313775167	blockFiles/set_7/main_unc/leftBlue\GB_LB_5.xlsx
309	main_unc	True	0.0	743	0	1.0	1.0	1.0	1	right	2.0	0.0	0.0	1	0.0633401187509	blockFiles/set_7/main_unc/leftBlue\GB_LB_5.xlsx
310	main_unc	True	0.0	743	0	1.0	1.0	0.0	1	left	2.0	1.0	1.0	0	-0.014545856825999999	blockFiles/set_7/main_unc/leftBlue\GB_LB_5.xlsx
311	main_unc	True	0.0	743	0	1.0	1.0	1.0	1	right	1.0	0.0	1.0	1	0.0391049775667	blockFiles/set_7/main_unc/leftBlue\GB_LB_5.xlsx
312	main_unc	True	0.0	743	0	2.0	2.0	1.0	1	right	1.0	0.0	0.0	1	0.0596448692679	blockFiles/set_7/main_unc/rightBlue\GB_RB_5.xlsx
313	main_unc	True	0.0	743	0	2.0	2.0	0.0	1	left	1.0	1.0	1.0	0	-0.06816700454800001	blockFiles/set_7/main_unc/rightBlue\GB_RB_5.xlsx
314	main_unc	True	0.0	743	0	2.0	2.0	1.0	1	right	2.0	1.0	1.0	1	0.040279264934400004	blockFiles/set_7/main_unc/rightBlue\GB_RB_5.xlsx
315	main_unc	True	0.0	743	0	2.0	2.0	1.0	1	right	2.0	1.0	1.0	1	0.0387910029292	blockFiles/set_7/main_unc/rightBlue\GB_RB_5.xlsx
316	main_unc	True	0.0	743	0	2.0	2.0	1.0	1	right	2.0	1.0	1.0	1	0.050305039417	blockFiles/set_7/main_unc/rightBlue\GB_RB_5.xlsx
317	main_unc	True	0.0	743	0	2.0	2.0	1.0	1	right	2.0	1.0	1.0	1	0.00539035769179	blockFiles/set_7/main_unc/rightBlue\GB_RB_5.xlsx
318	main_unc	True	0.0	743	0	2.0	2.0	1.0	1	right	2.0	1.0	1.0	1	0.0328757945262	blockFiles/set_7/main_unc/rightBlue\GB_RB_5.xlsx
319	main_unc	True	0.0	743	0	2.0	2.0	1.0	1	right	1.0	0.0	0.0	1	0.0490493363515	blockFiles/set_7/main_unc/rightBlue\GB_RB_5.xlsx
320	main_unc	True	0.0	743	0	2.0	2.0	0.0	1	left	1.0	1.0	1.0	0	-0.05541598556559999	blockFiles/set_7/main_unc/rightBlue\GB_RB_5.xlsx
321	main_unc	True	0.0	743	0	2.0	2.0	0.0	0	left	1.0	0.0	0.0	1	0.0267785036191	blockFiles/set_7/main_unc/rightBlue\GB_RB_5.xlsx
322	main_unc	True	0.0	743	0	2.0	2.0	0.0	1	left	1.0	0.0	1.0	0	-0.050021979343099994	blockFiles/set_7/main_unc/rightBlue\GB_RB_5.xlsx
323	main_unc	True	1.0	743	0	2.0	2.0	n/a	0	None	n/a	0.0	n/a	1	0.0150489913672	blockFiles/set_7/main_unc/rightBlue\GB_RB_5.xlsx
324	main_unc	True	0.0	743	0	2.0	2.0	0.0	1	left	1.0	0.0	1.0	0	-0.0399710719474	blockFiles/set_7/main_unc/rightBlue\GB_RB_5.xlsx
325	main_unc	True	0.0	743	0	2.0	2.0	0.0	1	left	1.0	1.0	1.0	0	-0.0275723182037	blockFiles/set_7/main_unc/rightBlue\GB_RB_5.xlsx
326	main_unc	True	0.0	743	0	2.0	2.0	0.0	1	left	1.0	1.0	1.0	0	-0.038529199641199996	blockFiles/set_7/main_unc/rightBlue\GB_RB_5.xlsx
327	main_unc	True	0.0	743	0	2.0	2.0	0.0	0	left	1.0	0.0	0.0	1	0.013669126182799998	blockFiles/set_7/main_unc/rightBlue\GB_RB_5.xlsx
328	main_unc	True	0.0	743	0	2.0	2.0	1.0	1	right	2.0	1.0	1.0	1	0.0408833988383	blockFiles/set_7/main_unc/rightBlue\GB_RB_5.xlsx
329	main_unc	True	1.0	743	0	2.0	2.0	n/a	0	None	n/a	0.0	n/a	0	-0.0523696567304	blockFiles/set_7/main_unc/rightBlue\GB_RB_5.xlsx
330	main_unc	True	0.0	743	0	2.0	2.0	0.0	1	left	1.0	1.0	1.0	0	-0.0668397847377	blockFiles/set_7/main_unc/rightBlue\GB_RB_5.xlsx
331	main_unc	True	0.0	743	0	2.0	2.0	0.0	1	left	1.0	1.0	1.0	0	-0.0681670197286	blockFiles/set_7/main_unc/rightBlue\GB_RB_5.xlsx
332	main_unc	True	0.0	743	0	2.0	2.0	0.0	0	left	1.0	0.0	0.0	1	2.93043628335e-05	blockFiles/set_7/main_unc/rightBlue\GB_RB_5.xlsx
333	main_unc	True	0.0	743	0	2.0	2.0	0.0	1	left	1.0	1.0	1.0	0	-0.0689629109763	blockFiles/set_7/main_unc/rightBlue\GB_RB_5.xlsx
334	main_unc	True	1.0	743	0	2.0	2.0	n/a	0	None	n/a	0.0	n/a	0	-0.021346954964099996	blockFiles/set_7/main_unc/rightBlue\GB_RB_5.xlsx
335	main_unc	True	1.0	743	0	2.0	2.0	n/a	0	None	n/a	0.0	n/a	1	0.025847932510099998	blockFiles/set_7/main_unc/rightBlue\GB_RB_5.xlsx
336	main_unc	True	0.0	743	0	2.0	2.0	0.0	1	left	1.0	1.0	1.0	0	-0.0275433385745	blockFiles/set_7/main_unc/rightBlue\GB_RB_5.xlsx
337	main_unc	True	0.0	743	0	2.0	2.0	n/a	0	None	n/a	0.0	n/a	1	0.0150489913672	blockFiles/set_7/main_unc/rightBlue\GB_RB_5.xlsx
338	main_unc	True	0.0	743	0	2.0	2.0	0.0	0	left	2.0	1.0	1.0	1	0.0150489913672	blockFiles/set_7/main_unc/rightBlue\GB_RB_5.xlsx
339	main_unc	True	0.0	743	0	2.0	2.0	0.0	1	left	1.0	0.0	1.0	0	-0.0523696567304	blockFiles/set_7/main_unc/rightBlue\GB_RB_5.xlsx
340	main_unc	True	0.0	743	0	2.0	2.0	0.0	1	left	1.0	0.0	1.0	0	-0.021346954964099996	blockFiles/set_7/main_unc/rightBlue\GB_RB_5.xlsx
341	main_unc	True	0.0	743	0	2.0	2.0	0.0	0	left	1.0	1.0	0.0	1	0.025847932510099998	blockFiles/set_7/main_unc/rightBlue\GB_RB_5.xlsx
342	main_unc	True	0.0	743	0	3.0	3.0	1.0	1	right	2.0	0.0	0.0	1	0.0031100384704800003	blockFiles/set_7/main_unc/leftBlue\GB_LB_3.xlsx
343	main_unc	True	0.0	743	0	3.0	3.0	0.0	1	left	2.0	1.0	1.0	0	-0.0238913535327	blockFiles/set_7/main_unc/leftBlue\GB_LB_3.xlsx
344	main_unc	True	0.0	743	0	3.0	3.0	1.0	1	right	1.0	1.0	1.0	1	0.07139569642020001	blockFiles/set_7/main_unc/leftBlue\GB_LB_3.xlsx
345	main_unc	True	0.0	743	0	3.0	3.0	0.0	1	left	2.0	1.0	1.0	0	-0.040186588522	blockFiles/set_7/main_unc/leftBlue\GB_LB_3.xlsx
346	main_unc	True	0.0	743	0	3.0	3.0	0.0	1	left	2.0	0.0	1.0	0	-0.07308467360210001	blockFiles/set_7/main_unc/leftBlue\GB_LB_3.xlsx
347	main_unc	True	1.0	743	0	3.0	3.0	n/a	0	None	n/a	0.0	n/a	1	0.045008132271499995	blockFiles/set_7/main_unc/leftBlue\GB_LB_3.xlsx
348	main_unc	True	0.0	743	0	3.0	3.0	1.0	1	right	1.0	1.0	1.0	1	0.05975365020330001	blockFiles/set_7/main_unc/leftBlue\GB_LB_3.xlsx
349	main_unc	True	0.0	743	0	3.0	3.0	0.0	1	left	2.0	1.0	1.0	0	-0.0647224144451	blockFiles/set_7/main_unc/leftBlue\GB_LB_3.xlsx
350	main_unc	True	1.0	743	0	3.0	3.0	n/a	0	None	n/a	0.0	n/a	1	0.00842457609251	blockFiles/set_7/main_unc/leftBlue\GB_LB_3.xlsx
351	main_unc	True	1.0	743	0	3.0	3.0	n/a	0	None	n/a	0.0	n/a	0	-0.00989681372419	blockFiles/set_7/main_unc/leftBlue\GB_LB_3.xlsx
352	main_unc	True	0.0	743	0	3.0	3.0	0.0	1	left	2.0	0.0	1.0	0	-0.0567986842617	blockFiles/set_7/main_unc/leftBlue\GB_LB_3.xlsx
353	main_unc	True	0.0	743	0	3.0	3.0	0.0	0	left	2.0	0.0	0.0	1	0.0272496195138	blockFiles/set_7/main_unc/leftBlue\GB_LB_3.xlsx
354	main_unc	True	0.0	743	0	3.0	3.0	0.0	1	left	2.0	1.0	1.0	0	-0.058618200123300004	blockFiles/set_7/main_unc/leftBlue\GB_LB_3.xlsx
355	main_unc	True	0.0	743	0	3.0	3.0	1.0	1	right	1.0	1.0	1.0	1	0.0753476582095	blockFiles/set_7/main_unc/leftBlue\GB_LB_3.xlsx
356	main_unc	True	0.0	743	0	3.0	3.0	0.0	1	left	2.0	1.0	1.0	0	-0.0316272078641	blockFiles/set_7/main_unc/leftBlue\GB_LB_3.xlsx
357	main_unc	True	1.0	743	0	3.0	3.0	n/a	0	None	n/a	0.0	n/a	0	-0.0323472157493	blockFiles/set_7/main_unc/leftBlue\GB_LB_3.xlsx
358	main_unc	True	0.0	743	0	3.0	3.0	1.0	1	right	1.0	1.0	1.0	1	0.021022692676599997	blockFiles/set_7/main_unc/leftBlue\GB_LB_3.xlsx
359	main_unc	True	0.0	743	0	3.0	3.0	1.0	1	right	1.0	1.0	1.0	1	0.011228343695399998	blockFiles/set_7/main_unc/leftBlue\GB_LB_3.xlsx
360	main_unc	True	0.0	743	0	3.0	3.0	0.0	1	left	2.0	1.0	1.0	0	-0.061026670821	blockFiles/set_7/main_unc/leftBlue\GB_LB_3.xlsx
361	main_unc	True	1.0	743	0	3.0	3.0	n/a	0	None	n/a	0.0	n/a	1	0.05895385682580001	blockFiles/set_7/main_unc/leftBlue\GB_LB_3.xlsx
362	main_unc	True	0.0	743	0	3.0	3.0	1.0	1	right	1.0	1.0	1.0	1	0.060963730215999996	blockFiles/set_7/main_unc/leftBlue\GB_LB_3.xlsx
363	main_unc	True	0.0	743	0	3.0	3.0	1.0	1	right	1.0	0.0	1.0	1	0.07527510909360001	blockFiles/set_7/main_unc/leftBlue\GB_LB_3.xlsx
364	main_unc	True	1.0	743	0	3.0	3.0	n/a	0	None	n/a	0.0	n/a	0	-0.0104802556895	blockFiles/set_7/main_unc/leftBlue\GB_LB_3.xlsx
365	main_unc	True	0.0	743	0	3.0	3.0	1.0	0	right	2.0	1.0	1.0	0	-0.0106799064204	blockFiles/set_7/main_unc/leftBlue\GB_LB_3.xlsx
366	main_unc	True	0.0	743	0	3.0	3.0	0.0	1	left	2.0	1.0	1.0	0	-0.0168626868166	blockFiles/set_7/main_unc/leftBlue\GB_LB_3.xlsx
367	main_unc	True	0.0	743	0	3.0	3.0	n/a	0	None	n/a	0.0	n/a	1	0.045008132271499995	blockFiles/set_7/main_unc/leftBlue\GB_LB_3.xlsx
368	main_unc	True	0.0	743	0	3.0	3.0	1.0	1	right	n/a	0.0	n/a	1	0.045008132271499995	blockFiles/set_7/main_unc/leftBlue\GB_LB_3.xlsx
369	main_unc	True	0.0	743	0	3.0	3.0	0.0	0	left	1.0	1.0	1.0	1	0.045008132271499995	blockFiles/set_7/main_unc/leftBlue\GB_LB_3.xlsx
370	main_unc	True	0.0	743	0	3.0	3.0	1.0	1	right	1.0	1.0	1.0	1	0.00842457609251	blockFiles/set_7/main_unc/leftBlue\GB_LB_3.xlsx
371	main_unc	True	0.0	743	0	3.0	3.0	1.0	0	right	2.0	1.0	1.0	0	-0.00989681372419	blockFiles/set_7/main_unc/leftBlue\GB_LB_3.xlsx
372	main_unc	True	0.0	743	0	3.0	3.0	0.0	1	left	2.0	0.0	1.0	0	-0.0323472157493	blockFiles/set_7/main_unc/leftBlue\GB_LB_3.xlsx
373	main_unc	True	0.0	743	0	3.0	3.0	1.0	1	right	1.0	1.0	1.0	1	0.05895385682580001	blockFiles/set_7/main_unc/leftBlue\GB_LB_3.xlsx
374	main_unc	True	0.0	743	0	3.0	3.0	1.0	0	right	n/a	0.0	n/a	0	-0.0104802556895	blockFiles/set_7/main_unc/leftBlue\GB_LB_3.xlsx
375	main_unc	True	0.0	743	0	3.0	3.0	0.0	1	left	2.0	1.0	1.0	0	-0.0104802556895	blockFiles/set_7/main_unc/leftBlue\GB_LB_3.xlsx
376	main_unc	True	0.0	743	0	4.0	4.0	1.0	1	right	1.0	0.0	0.0	1	0.0504216019064	blockFiles/set_7/main_unc/rightBlue\GB_RB_2.xlsx
377	main_unc	True	0.0	743	0	4.0	4.0	0.0	1	left	2.0	0.0	0.0	0	-0.061919165086000004	blockFiles/set_7/main_unc/rightBlue\GB_RB_2.xlsx
378	main_unc	True	0.0	743	0	4.0	4.0	1.0	1	right	2.0	1.0	1.0	1	0.0440993167646	blockFiles/set_7/main_unc/rightBlue\GB_RB_2.xlsx
379	main_unc	True	0.0	743	0	4.0	4.0	0.0	1	left	1.0	1.0	1.0	0	-0.00829651119187	blockFiles/set_7/main_unc/rightBlue\GB_RB_2.xlsx
380	main_unc	True	0.0	743	0	4.0	4.0	1.0	1	right	2.0	1.0	1.0	1	0.0205570878647	blockFiles/set_7/main_unc/rightBlue\GB_RB_2.xlsx
381	main_unc	True	0.0	743	0	4.0	4.0	0.0	1	left	2.0	0.0	0.0	0	-0.0018779547326300003	blockFiles/set_7/main_unc/rightBlue\GB_RB_2.xlsx
382	main_unc	True	1.0	743	0	4.0	4.0	0.0	1	left	n/a	0.0	n/a	0	-0.0593259573355	blockFiles/set_7/main_unc/rightBlue\GB_RB_2.xlsx
383	main_unc	True	0.0	743	0	4.0	4.0	0.0	1	left	1.0	0.0	1.0	0	-0.020022683925900002	blockFiles/set_7/main_unc/rightBlue\GB_RB_2.xlsx
384	main_unc	True	0.0	743	0	4.0	4.0	0.0	1	left	1.0	1.0	1.0	0	-0.075848933775	blockFiles/set_7/main_unc/rightBlue\GB_RB_2.xlsx
385	main_unc	True	0.0	743	0	4.0	4.0	0.0	0	left	1.0	0.0	0.0	1	0.0228560683317	blockFiles/set_7/main_unc/rightBlue\GB_RB_2.xlsx
386	main_unc	True	0.0	743	0	4.0	4.0	0.0	1	left	1.0	1.0	1.0	0	-0.0535951348394	blockFiles/set_7/main_unc/rightBlue\GB_RB_2.xlsx
387	main_unc	True	0.0	743	0	4.0	4.0	0.0	1	left	1.0	1.0	1.0	0	-0.073646827545	blockFiles/set_7/main_unc/rightBlue\GB_RB_2.xlsx
388	main_unc	True	0.0	743	0	4.0	4.0	0.0	0	left	2.0	0.0	1.0	1	0.00668810313568	blockFiles/set_7/main_unc/rightBlue\GB_RB_2.xlsx
389	main_unc	True	0.0	743	0	4.0	4.0	1.0	1	right	2.0	1.0	1.0	1	0.0403440333717	blockFiles/set_7/main_unc/rightBlue\GB_RB_2.xlsx
390	main_unc	True	0.0	743	0	4.0	4.0	1.0	1	right	2.0	1.0	1.0	1	0.028946703542	blockFiles/set_7/main_unc/rightBlue\GB_RB_2.xlsx
391	main_unc	True	0.0	743	0	4.0	4.0	0.0	1	left	1.0	0.0	1.0	0	-0.026652285587	blockFiles/set_7/main_unc/rightBlue\GB_RB_2.xlsx
392	main_unc	True	0.0	743	0	4.0	4.0	1.0	1	right	2.0	1.0	1.0	1	0.0539830625802	blockFiles/set_7/main_unc/rightBlue\GB_RB_2.xlsx
393	main_unc	True	0.0	743	0	4.0	4.0	0.0	0	left	2.0	1.0	1.0	1	0.00259010875598	blockFiles/set_7/main_unc/rightBlue\GB_RB_2.xlsx
394	main_unc	True	0.0	743	0	4.0	4.0	0.0	1	left	1.0	1.0	1.0	0	-0.057685808464900006	blockFiles/set_7/main_unc/rightBlue\GB_RB_2.xlsx
395	main_unc	True	0.0	743	0	4.0	4.0	0.0	1	left	1.0	1.0	1.0	0	-0.036552328299699996	blockFiles/set_7/main_unc/rightBlue\GB_RB_2.xlsx
396	main_unc	True	0.0	743	0	4.0	4.0	0.0	1	left	1.0	1.0	1.0	0	-0.031051208768	blockFiles/set_7/main_unc/rightBlue\GB_RB_2.xlsx
397	main_unc	True	0.0	743	0	4.0	4.0	1.0	1	right	2.0	1.0	1.0	1	0.04939539831130001	blockFiles/set_7/main_unc/rightBlue\GB_RB_2.xlsx
398	main_unc	True	0.0	743	0	4.0	4.0	0.0	0	left	2.0	1.0	1.0	1	0.06751959986980001	blockFiles/set_7/main_unc/rightBlue\GB_RB_2.xlsx
399	main_unc	True	1.0	743	0	4.0	4.0	n/a	0	None	n/a	0.0	n/a	1	0.0048390608839700006	blockFiles/set_7/main_unc/rightBlue\GB_RB_2.xlsx
400	main_unc	True	0.0	743	0	4.0	4.0	1.0	1	right	2.0	1.0	1.0	1	0.0030076488666199996	blockFiles/set_7/main_unc/rightBlue\GB_RB_2.xlsx
401	main_unc	True	0.0	743	0	4.0	4.0	0.0	1	left	2.0	0.0	0.0	0	-0.0593259573355	blockFiles/set_7/main_unc/rightBlue\GB_RB_2.xlsx
402	main_unc	True	0.0	743	0	4.0	4.0	1.0	1	right	1.0	1.0	0.0	1	0.0048390608839700006	blockFiles/set_7/main_unc/rightBlue\GB_RB_2.xlsx
403	main_unc	True	0.0	743	0	5.0	5.0	1.0	1	right	1.0	0.0	0.0	1	0.0580390601605	blockFiles/set_7/main_unc/rightBlue\GB_RB_1.xlsx
404	main_unc	True	0.0	743	0	5.0	5.0	0.0	1	left	2.0	1.0	0.0	0	-0.009790098275989999	blockFiles/set_7/main_unc/rightBlue\GB_RB_1.xlsx
405	main_unc	True	0.0	743	0	5.0	5.0	1.0	0	right	2.0	0.0	0.0	0	-0.006534287277609999	blockFiles/set_7/main_unc/rightBlue\GB_RB_1.xlsx
406	main_unc	True	0.0	743	0	5.0	5.0	0.0	1	left	2.0	1.0	0.0	0	-0.0566785265692	blockFiles/set_7/main_unc/rightBlue\GB_RB_1.xlsx
407	main_unc	True	0.0	743	0	5.0	5.0	0.0	1	left	2.0	0.0	0.0	0	-0.0307406070083	blockFiles/set_7/main_unc/rightBlue\GB_RB_1.xlsx
408	main_unc	True	0.0	743	0	5.0	5.0	0.0	1	left	2.0	1.0	0.0	0	-0.0715646656975	blockFiles/set_7/main_unc/rightBlue\GB_RB_1.xlsx
409	main_unc	True	0.0	743	0	5.0	5.0	1.0	1	right	1.0	0.0	0.0	1	0.0324110564403	blockFiles/set_7/main_unc/rightBlue\GB_RB_1.xlsx
410	main_unc	True	0.0	743	0	5.0	5.0	1.0	1	right	1.0	1.0	0.0	1	0.0363708049431	blockFiles/set_7/main_unc/rightBlue\GB_RB_1.xlsx
411	main_unc	True	0.0	743	0	5.0	5.0	0.0	1	left	2.0	0.0	0.0	0	-0.028460591174699998	blockFiles/set_7/main_unc/rightBlue\GB_RB_1.xlsx
412	main_unc	True	0.0	743	0	5.0	5.0	0.0	1	left	2.0	0.0	0.0	0	-0.0522601501085	blockFiles/set_7/main_unc/rightBlue\GB_RB_1.xlsx
413	main_unc	True	0.0	743	0	5.0	5.0	0.0	0	left	2.0	1.0	1.0	1	0.000126239396632	blockFiles/set_7/main_unc/rightBlue\GB_RB_1.xlsx
414	main_unc	True	0.0	743	0	5.0	5.0	1.0	1	right	1.0	0.0	0.0	1	0.0794731512852	blockFiles/set_7/main_unc/rightBlue\GB_RB_1.xlsx
415	main_unc	True	0.0	743	0	5.0	5.0	0.0	0	left	1.0	0.0	0.0	1	0.0683015008084	blockFiles/set_7/main_unc/rightBlue\GB_RB_1.xlsx
416	main_unc	True	0.0	743	0	5.0	5.0	1.0	0	right	1.0	1.0	1.0	0	-0.0007446074858310001	blockFiles/set_7/main_unc/rightBlue\GB_RB_1.xlsx
417	main_unc	True	0.0	743	0	5.0	5.0	0.0	1	left	2.0	0.0	0.0	0	-0.0465382230468	blockFiles/set_7/main_unc/rightBlue\GB_RB_1.xlsx
418	main_unc	True	0.0	743	0	5.0	5.0	1.0	1	right	1.0	0.0	0.0	1	0.0226206276193	blockFiles/set_7/main_unc/rightBlue\GB_RB_1.xlsx
419	main_unc	True	1.0	743	0	5.0	5.0	n/a	0	None	n/a	0.0	n/a	1	0.030631563141900003	blockFiles/set_7/main_unc/rightBlue\GB_RB_1.xlsx
420	main_unc	True	1.0	743	0	5.0	5.0	n/a	0	None	n/a	0.0	n/a	1	0.021716750077900002	blockFiles/set_7/main_unc/rightBlue\GB_RB_1.xlsx
421	main_unc	True	0.0	743	0	5.0	5.0	1.0	1	right	2.0	1.0	1.0	1	0.0645026557148	blockFiles/set_7/main_unc/rightBlue\GB_RB_1.xlsx
422	main_unc	True	0.0	743	0	5.0	5.0	1.0	1	right	2.0	1.0	1.0	1	0.0520471242256	blockFiles/set_7/main_unc/rightBlue\GB_RB_1.xlsx
423	main_unc	True	0.0	743	0	5.0	5.0	0.0	1	left	1.0	1.0	1.0	0	-0.04912119381130001	blockFiles/set_7/main_unc/rightBlue\GB_RB_1.xlsx
424	main_unc	True	0.0	743	0	5.0	5.0	0.0	1	left	1.0	1.0	1.0	0	-0.050304020773599994	blockFiles/set_7/main_unc/rightBlue\GB_RB_1.xlsx
425	main_unc	True	1.0	743	0	5.0	5.0	n/a	0	None	n/a	0.0	n/a	1	0.017516827695099997	blockFiles/set_7/main_unc/rightBlue\GB_RB_1.xlsx
426	main_unc	True	0.0	743	0	5.0	5.0	0.0	1	left	1.0	1.0	1.0	0	-0.0505195530131	blockFiles/set_7/main_unc/rightBlue\GB_RB_1.xlsx
427	main_unc	True	0.0	743	0	5.0	5.0	1.0	1	right	2.0	1.0	1.0	1	0.0475987309963	blockFiles/set_7/main_unc/rightBlue\GB_RB_1.xlsx
428	main_unc	True	0.0	743	0	5.0	5.0	0.0	0	left	2.0	1.0	1.0	1	0.030631563141900003	blockFiles/set_7/main_unc/rightBlue\GB_RB_1.xlsx
429	main_unc	True	0.0	743	0	5.0	5.0	1.0	1	right	1.0	0.0	0.0	1	0.021716750077900002	blockFiles/set_7/main_unc/rightBlue\GB_RB_1.xlsx
430	main_unc	True	0.0	743	0	5.0	5.0	1.0	1	right	2.0	1.0	1.0	1	0.017516827695099997	blockFiles/set_7/main_unc/rightBlue\GB_RB_1.xlsx
431	main_unc	True	0.0	743	0	6.0	6.0	1.0	1	right	1.0	0.0	0.0	1	0.0381580201536	blockFiles/set_7/main_unc/rightBlue\GB_RB_3.xlsx
432	main_unc	True	0.0	743	0	6.0	6.0	0.0	1	left	2.0	0.0	0.0	0	-0.014207642655799999	blockFiles/set_7/main_unc/rightBlue\GB_RB_3.xlsx
433	main_unc	True	1.0	743	0	6.0	6.0	n/a	0	None	n/a	0.0	n/a	1	0.0784885601699	blockFiles/set_7/main_unc/rightBlue\GB_RB_3.xlsx
434	main_unc	True	0.0	743	0	6.0	6.0	1.0	1	right	1.0	0.0	0.0	1	0.019137067031099998	blockFiles/set_7/main_unc/rightBlue\GB_RB_3.xlsx
435	main_unc	True	0.0	743	0	6.0	6.0	1.0	1	right	2.0	1.0	1.0	1	0.06820466054600001	blockFiles/set_7/main_unc/rightBlue\GB_RB_3.xlsx
436	main_unc	True	1.0	743	0	6.0	6.0	n/a	0	None	n/a	0.0	n/a	1	0.0350800107792	blockFiles/set_7/main_unc/rightBlue\GB_RB_3.xlsx
437	main_unc	True	0.0	743	0	6.0	6.0	0.0	1	left	1.0	1.0	1.0	0	-0.025150852780800002	blockFiles/set_7/main_unc/rightBlue\GB_RB_3.xlsx
438	main_unc	True	0.0	743	0	6.0	6.0	1.0	1	right	2.0	1.0	1.0	1	0.0586078985967	blockFiles/set_7/main_unc/rightBlue\GB_RB_3.xlsx
439	main_unc	True	0.0	743	0	6.0	6.0	1.0	1	right	2.0	1.0	1.0	1	0.061124458648300004	blockFiles/set_7/main_unc/rightBlue\GB_RB_3.xlsx
440	main_unc	True	0.0	743	0	6.0	6.0	0.0	0	left	1.0	0.0	0.0	1	0.00419211318716	blockFiles/set_7/main_unc/rightBlue\GB_RB_3.xlsx
441	main_unc	True	0.0	743	0	6.0	6.0	1.0	1	right	2.0	1.0	1.0	1	0.028820094000499997	blockFiles/set_7/main_unc/rightBlue\GB_RB_3.xlsx
442	main_unc	True	0.0	743	0	6.0	6.0	0.0	1	left	1.0	1.0	1.0	0	-0.0148339604773	blockFiles/set_7/main_unc/rightBlue\GB_RB_3.xlsx
443	main_unc	True	0.0	743	0	6.0	6.0	1.0	0	right	2.0	0.0	0.0	0	-0.0508387531154	blockFiles/set_7/main_unc/rightBlue\GB_RB_3.xlsx
444	main_unc	True	0.0	743	0	6.0	6.0	1.0	1	right	2.0	1.0	1.0	1	0.0759978539497	blockFiles/set_7/main_unc/rightBlue\GB_RB_3.xlsx
445	main_unc	True	1.0	743	0	6.0	6.0	n/a	0	None	n/a	0.0	n/a	0	-0.00244471345097	blockFiles/set_7/main_unc/rightBlue\GB_RB_3.xlsx
446	main_unc	True	0.0	743	0	6.0	6.0	1.0	1	right	2.0	0.0	1.0	1	0.046796805393000004	blockFiles/set_7/main_unc/rightBlue\GB_RB_3.xlsx
447	main_unc	True	0.0	743	0	6.0	6.0	0.0	1	left	1.0	0.0	1.0	0	-0.0562218109146	blockFiles/set_7/main_unc/rightBlue\GB_RB_3.xlsx
448	main_unc	True	0.0	743	0	6.0	6.0	0.0	1	left	2.0	0.0	0.0	0	-0.034978359174	blockFiles/set_7/main_unc/rightBlue\GB_RB_3.xlsx
449	main_unc	True	0.0	743	0	6.0	6.0	0.0	1	left	1.0	1.0	1.0	0	-0.0542642435618	blockFiles/set_7/main_unc/rightBlue\GB_RB_3.xlsx
450	main_unc	True	0.0	743	0	6.0	6.0	1.0	1	right	2.0	0.0	1.0	1	0.037606090269999996	blockFiles/set_7/main_unc/rightBlue\GB_RB_3.xlsx
451	main_unc	True	0.0	743	0	6.0	6.0	0.0	1	left	1.0	1.0	1.0	0	-0.0400653988495	blockFiles/set_7/main_unc/rightBlue\GB_RB_3.xlsx
452	main_unc	True	0.0	743	0	6.0	6.0	0.0	1	left	1.0	1.0	1.0	0	-0.0641515185684	blockFiles/set_7/main_unc/rightBlue\GB_RB_3.xlsx
453	main_unc	True	0.0	743	0	6.0	6.0	0.0	1	left	1.0	0.0	1.0	0	-0.0434971285611	blockFiles/set_7/main_unc/rightBlue\GB_RB_3.xlsx
454	main_unc	True	0.0	743	0	6.0	6.0	1.0	1	right	2.0	1.0	1.0	1	0.0487518879399	blockFiles/set_7/main_unc/rightBlue\GB_RB_3.xlsx
455	main_unc	True	1.0	743	0	6.0	6.0	n/a	0	None	n/a	0.0	n/a	1	0.0026504783518600003	blockFiles/set_7/main_unc/rightBlue\GB_RB_3.xlsx
456	main_unc	True	0.0	743	0	6.0	6.0	n/a	0	None	n/a	0.0	n/a	1	0.0784885601699	blockFiles/set_7/main_unc/rightBlue\GB_RB_3.xlsx
457	main_unc	True	0.0	743	0	6.0	6.0	1.0	1	right	2.0	1.0	1.0	1	0.0784885601699	blockFiles/set_7/main_unc/rightBlue\GB_RB_3.xlsx
458	main_unc	True	0.0	743	0	6.0	6.0	n/a	0	None	n/a	0.0	n/a	1	0.0350800107792	blockFiles/set_7/main_unc/rightBlue\GB_RB_3.xlsx
459	main_unc	True	0.0	743	0	6.0	6.0	1.0	1	right	2.0	1.0	1.0	1	0.0350800107792	blockFiles/set_7/main_unc/rightBlue\GB_RB_3.xlsx
460	main_unc	True	0.0	743	0	6.0	6.0	0.0	1	left	1.0	1.0	1.0	0	-0.00244471345097	blockFiles/set_7/main_unc/rightBlue\GB_RB_3.xlsx
461	main_unc	True	0.0	743	0	6.0	6.0	1.0	1	right	n/a	0.0	n/a	1	0.0026504783518600003	blockFiles/set_7/main_unc/rightBlue\GB_RB_3.xlsx
462	main_unc	True	0.0	743	0	6.0	6.0	0.0	0	left	1.0	0.0	0.0	1	0.0026504783518600003	blockFiles/set_7/main_unc/rightBlue\GB_RB_3.xlsx
463	main_unc	True	0.0	743	0	7.0	7.0	1.0	1	right	1.0	0.0	1.0	1	0.0580585744232	blockFiles/set_7/main_unc/leftBlue\GB_LB_6.xlsx
464	main_unc	True	0.0	743	0	7.0	7.0	0.0	1	left	2.0	1.0	1.0	0	-0.00443030467257	blockFiles/set_7/main_unc/leftBlue\GB_LB_6.xlsx
465	main_unc	True	0.0	743	0	7.0	7.0	1.0	1	right	1.0	0.0	1.0	1	0.0483921097778	blockFiles/set_7/main_unc/leftBlue\GB_LB_6.xlsx
466	main_unc	True	0.0	743	0	7.0	7.0	0.0	1	left	1.0	0.0	0.0	0	-0.050109276343099994	blockFiles/set_7/main_unc/leftBlue\GB_LB_6.xlsx
467	main_unc	True	0.0	743	0	7.0	7.0	1.0	1	right	1.0	1.0	1.0	1	0.0473265684955	blockFiles/set_7/main_unc/leftBlue\GB_LB_6.xlsx
468	main_unc	True	1.0	743	0	7.0	7.0	n/a	0	None	n/a	0.0	n/a	1	0.043857405595500006	blockFiles/set_7/main_unc/leftBlue\GB_LB_6.xlsx
469	main_unc	True	1.0	743	0	7.0	7.0	0.0	1	left	n/a	0.0	n/a	0	-0.0407368445955	blockFiles/set_7/main_unc/leftBlue\GB_LB_6.xlsx
470	main_unc	True	0.0	743	0	7.0	7.0	0.0	1	left	2.0	1.0	1.0	0	-0.0069463056512200005	blockFiles/set_7/main_unc/leftBlue\GB_LB_6.xlsx
471	main_unc	True	1.0	743	0	7.0	7.0	n/a	0	None	n/a	0.0	n/a	1	0.022431611605000002	blockFiles/set_7/main_unc/leftBlue\GB_LB_6.xlsx
472	main_unc	True	0.0	743	0	7.0	7.0	0.0	1	left	2.0	1.0	1.0	0	-0.0045199354924300005	blockFiles/set_7/main_unc/leftBlue\GB_LB_6.xlsx
473	main_unc	True	1.0	743	0	7.0	7.0	1.0	1	right	n/a	0.0	n/a	1	0.0637323779613	blockFiles/set_7/main_unc/leftBlue\GB_LB_6.xlsx
474	main_unc	True	1.0	743	0	7.0	7.0	1.0	1	right	n/a	0.0	n/a	1	0.0547377625294	blockFiles/set_7/main_unc/leftBlue\GB_LB_6.xlsx
475	main_unc	True	0.0	743	0	7.0	7.0	0.0	0	left	1.0	1.0	1.0	1	0.0326601456665	blockFiles/set_7/main_unc/leftBlue\GB_LB_6.xlsx
476	main_unc	True	0.0	743	0	7.0	7.0	1.0	1	right	2.0	1.0	0.0	1	0.0719615129381	blockFiles/set_7/main_unc/leftBlue\GB_LB_6.xlsx
477	main_unc	True	0.0	743	0	7.0	7.0	0.0	1	left	1.0	0.0	0.0	0	-0.0478565766476	blockFiles/set_7/main_unc/leftBlue\GB_LB_6.xlsx
478	main_unc	True	0.0	743	0	7.0	7.0	1.0	1	right	2.0	0.0	0.0	1	0.0142069042474	blockFiles/set_7/main_unc/leftBlue\GB_LB_6.xlsx
479	main_unc	True	0.0	743	0	7.0	7.0	1.0	1	right	2.0	0.0	0.0	1	0.007251557297999999	blockFiles/set_7/main_unc/leftBlue\GB_LB_6.xlsx
480	main_unc	True	0.0	743	0	7.0	7.0	0.0	1	left	2.0	1.0	1.0	0	-0.06309207864109999	blockFiles/set_7/main_unc/leftBlue\GB_LB_6.xlsx
481	main_unc	True	0.0	743	0	7.0	7.0	0.0	1	left	2.0	1.0	1.0	0	-0.0201623114571	blockFiles/set_7/main_unc/leftBlue\GB_LB_6.xlsx
482	main_unc	True	0.0	743	0	7.0	7.0	1.0	1	right	2.0	0.0	0.0	1	0.05710561914369999	blockFiles/set_7/main_unc/leftBlue\GB_LB_6.xlsx
483	main_unc	True	0.0	743	0	7.0	7.0	0.0	0	left	2.0	0.0	0.0	1	0.00509089756757	blockFiles/set_7/main_unc/leftBlue\GB_LB_6.xlsx
484	main_unc	True	0.0	743	0	7.0	7.0	1.0	1	right	1.0	0.0	1.0	1	0.0468280595355	blockFiles/set_7/main_unc/leftBlue\GB_LB_6.xlsx
485	main_unc	True	0.0	743	0	7.0	7.0	0.0	1	left	2.0	0.0	1.0	0	-0.0761401240155	blockFiles/set_7/main_unc/leftBlue\GB_LB_6.xlsx
486	main_unc	True	0.0	743	0	7.0	7.0	0.0	1	left	2.0	1.0	1.0	0	-0.046509173270300005	blockFiles/set_7/main_unc/leftBlue\GB_LB_6.xlsx
487	main_unc	True	1.0	743	0	7.0	7.0	1.0	0	right	n/a	0.0	n/a	0	-0.00127539018169	blockFiles/set_7/main_unc/leftBlue\GB_LB_6.xlsx
488	main_unc	True	0.0	743	0	7.0	7.0	1.0	1	right	1.0	0.0	1.0	1	0.043857405595500006	blockFiles/set_7/main_unc/leftBlue\GB_LB_6.xlsx
489	main_unc	True	0.0	743	0	7.0	7.0	0.0	1	left	2.0	1.0	1.0	0	-0.0407368445955	blockFiles/set_7/main_unc/leftBlue\GB_LB_6.xlsx
490	main_unc	True	0.0	743	0	7.0	7.0	1.0	1	right	1.0	1.0	1.0	1	0.022431611605000002	blockFiles/set_7/main_unc/leftBlue\GB_LB_6.xlsx
491	main_unc	True	0.0	743	0	7.0	7.0	1.0	1	right	n/a	0.0	n/a	1	0.0637323779613	blockFiles/set_7/main_unc/leftBlue\GB_LB_6.xlsx
492	main_unc	True	0.0	743	0	7.0	7.0	n/a	0	None	n/a	0.0	n/a	1	0.0637323779613	blockFiles/set_7/main_unc/leftBlue\GB_LB_6.xlsx
493	main_unc	True	0.0	743	0	7.0	7.0	1.0	1	right	1.0	1.0	1.0	1	0.0637323779613	blockFiles/set_7/main_unc/leftBlue\GB_LB_6.xlsx
494	main_unc	True	0.0	743	0	7.0	7.0	1.0	1	right	1.0	1.0	1.0	1	0.0547377625294	blockFiles/set_7/main_unc/leftBlue\GB_LB_6.xlsx
495	main_unc	True	0.0	743	0	7.0	7.0	1.0	0	right	2.0	1.0	1.0	0	-0.00127539018169	blockFiles/set_7/main_unc/leftBlue\GB_LB_6.xlsx
496	main_unc	True	0.0	743	0	8.0	8.0	0.0	1	left	1.0	1.0	1.0	0	-0.0612584846839	blockFiles/set_7/main_unc/rightBlue\GB_RB_6.xlsx
497	main_unc	True	0.0	743	0	8.0	8.0	0.0	1	left	1.0	1.0	1.0	0	-0.013472820520399999	blockFiles/set_7/main_unc/rightBlue\GB_RB_6.xlsx
498	main_unc	True	0.0	743	0	8.0	8.0	1.0	1	right	2.0	1.0	1.0	1	0.0743449230492	blockFiles/set_7/main_unc/rightBlue\GB_RB_6.xlsx
499	main_unc	True	0.0	743	0	8.0	8.0	1.0	1	right	2.0	0.0	1.0	1	0.0597930885106	blockFiles/set_7/main_unc/rightBlue\GB_RB_6.xlsx
500	main_unc	True	0.0	743	0	8.0	8.0	0.0	0	left	1.0	0.0	0.0	1	0.00227826025337	blockFiles/set_7/main_unc/rightBlue\GB_RB_6.xlsx
501	main_unc	True	0.0	743	0	8.0	8.0	0.0	1	left	1.0	1.0	1.0	0	-0.0134925930202	blockFiles/set_7/main_unc/rightBlue\GB_RB_6.xlsx
502	main_unc	True	0.0	743	0	8.0	8.0	0.0	1	left	2.0	1.0	0.0	0	-0.07858910452569999	blockFiles/set_7/main_unc/rightBlue\GB_RB_6.xlsx
503	main_unc	True	1.0	743	0	8.0	8.0	n/a	0	None	n/a	0.0	n/a	1	0.017256183419400002	blockFiles/set_7/main_unc/rightBlue\GB_RB_6.xlsx
504	main_unc	True	0.0	743	0	8.0	8.0	0.0	0	left	2.0	1.0	1.0	1	0.0123117621988	blockFiles/set_7/main_unc/rightBlue\GB_RB_6.xlsx
505	main_unc	True	0.0	743	0	8.0	8.0	0.0	1	left	2.0	0.0	0.0	0	-0.07838740203530001	blockFiles/set_7/main_unc/rightBlue\GB_RB_6.xlsx
506	main_unc	True	0.0	743	0	8.0	8.0	0.0	1	left	2.0	1.0	0.0	0	-0.04229985488580001	blockFiles/set_7/main_unc/rightBlue\GB_RB_6.xlsx
507	main_unc	True	0.0	743	0	8.0	8.0	0.0	1	left	2.0	0.0	0.0	0	-0.028401792217	blockFiles/set_7/main_unc/rightBlue\GB_RB_6.xlsx
508	main_unc	True	0.0	743	0	8.0	8.0	1.0	1	right	1.0	0.0	0.0	1	0.05066515384240001	blockFiles/set_7/main_unc/rightBlue\GB_RB_6.xlsx
509	main_unc	True	0.0	743	0	8.0	8.0	1.0	1	right	1.0	0.0	0.0	1	0.05366138609130001	blockFiles/set_7/main_unc/rightBlue\GB_RB_6.xlsx
510	main_unc	True	0.0	743	0	8.0	8.0	0.0	1	left	2.0	0.0	0.0	0	-0.0780650225841	blockFiles/set_7/main_unc/rightBlue\GB_RB_6.xlsx
511	main_unc	True	0.0	743	0	8.0	8.0	0.0	1	left	1.0	1.0	1.0	0	-0.0122886663489	blockFiles/set_7/main_unc/rightBlue\GB_RB_6.xlsx
512	main_unc	True	0.0	743	0	8.0	8.0	0.0	1	left	1.0	1.0	1.0	0	-0.04890580091630001	blockFiles/set_7/main_unc/rightBlue\GB_RB_6.xlsx
513	main_unc	True	0.0	743	0	8.0	8.0	0.0	0	left	2.0	0.0	1.0	1	0.0468878940493	blockFiles/set_7/main_unc/rightBlue\GB_RB_6.xlsx
514	main_unc	True	0.0	743	0	8.0	8.0	1.0	1	right	2.0	0.0	1.0	1	0.063561939057	blockFiles/set_7/main_unc/rightBlue\GB_RB_6.xlsx
515	main_unc	True	0.0	743	0	8.0	8.0	0.0	1	left	1.0	1.0	1.0	0	-0.014438188336799999	blockFiles/set_7/main_unc/rightBlue\GB_RB_6.xlsx
516	main_unc	True	1.0	743	0	8.0	8.0	n/a	0	None	n/a	0.0	n/a	0	-0.021591549348100002	blockFiles/set_7/main_unc/rightBlue\GB_RB_6.xlsx
517	main_unc	True	0.0	743	0	8.0	8.0	1.0	1	right	1.0	0.0	0.0	1	0.0698853387125	blockFiles/set_7/main_unc/rightBlue\GB_RB_6.xlsx
518	main_unc	True	0.0	743	0	8.0	8.0	0.0	1	left	2.0	0.0	0.0	0	-0.0123296274431	blockFiles/set_7/main_unc/rightBlue\GB_RB_6.xlsx
519	main_unc	True	0.0	743	0	8.0	8.0	1.0	1	right	1.0	0.0	0.0	1	0.0462719320878	blockFiles/set_7/main_unc/rightBlue\GB_RB_6.xlsx
520	main_unc	True	1.0	743	0	8.0	8.0	n/a	0	None	n/a	0.0	n/a	1	0.0349667917565	blockFiles/set_7/main_unc/rightBlue\GB_RB_6.xlsx
521	main_unc	True	0.0	743	0	8.0	8.0	1.0	1	right	1.0	0.0	0.0	1	0.017256183419400002	blockFiles/set_7/main_unc/rightBlue\GB_RB_6.xlsx
522	main_unc	True	0.0	743	0	8.0	8.0	n/a	0	None	n/a	0.0	n/a	0	-0.021591549348100002	blockFiles/set_7/main_unc/rightBlue\GB_RB_6.xlsx
523	main_unc	True	0.0	743	0	8.0	8.0	n/a	0	None	n/a	0.0	n/a	0	-0.021591549348100002	blockFiles/set_7/main_unc/rightBlue\GB_RB_6.xlsx
524	main_unc	True	0.0	743	0	8.0	8.0	n/a	0	None	n/a	0.0	n/a	0	-0.021591549348100002	blockFiles/set_7/main_unc/rightBlue\GB_RB_6.xlsx
525	main_unc	True	0.0	743	0	8.0	8.0	0.0	1	left	2.0	0.0	0.0	0	-0.021591549348100002	blockFiles/set_7/main_unc/rightBlue\GB_RB_6.xlsx
526	main_unc	True	0.0	743	0	8.0	8.0	1.0	1	right	1.0	0.0	0.0	1	0.0349667917565	blockFiles/set_7/main_unc/rightBlue\GB_RB_6.xlsx
527	main_unc	True	0.0	743	0	9.0	9.0	1.0	1	right	1.0	1.0	1.0	1	0.023303008955	blockFiles/set_7/main_unc/leftBlue\GB_LB_1.xlsx
528	main_unc	True	0.0	743	0	9.0	9.0	0.0	1	left	2.0	1.0	1.0	0	-0.0012401917018	blockFiles/set_7/main_unc/leftBlue\GB_LB_1.xlsx
529	main_unc	True	0.0	743	0	9.0	9.0	1.0	1	right	1.0	1.0	1.0	1	0.0323556635156	blockFiles/set_7/main_unc/leftBlue\GB_LB_1.xlsx
530	main_unc	True	0.0	743	0	9.0	9.0	0.0	1	left	2.0	0.0	1.0	0	-0.031285503189999994	blockFiles/set_7/main_unc/leftBlue\GB_LB_1.xlsx
531	main_unc	True	0.0	743	0	9.0	9.0	0.0	1	left	2.0	1.0	1.0	0	-0.0556906580552	blockFiles/set_7/main_unc/leftBlue\GB_LB_1.xlsx
532	main_unc	True	0.0	743	0	9.0	9.0	1.0	1	right	1.0	1.0	1.0	1	0.00530779900029	blockFiles/set_7/main_unc/leftBlue\GB_LB_1.xlsx
533	main_unc	True	0.0	743	0	9.0	9.0	0.0	1	left	2.0	1.0	1.0	0	-0.07802599713210001	blockFiles/set_7/main_unc/leftBlue\GB_LB_1.xlsx
534	main_unc	True	0.0	743	0	9.0	9.0	1.0	1	right	2.0	0.0	0.0	1	0.033105714805400005	blockFiles/set_7/main_unc/leftBlue\GB_LB_1.xlsx
535	main_unc	True	0.0	743	0	9.0	9.0	0.0	1	left	2.0	1.0	1.0	0	-0.0344185212255	blockFiles/set_7/main_unc/leftBlue\GB_LB_1.xlsx
536	main_unc	True	1.0	743	0	9.0	9.0	n/a	0	None	n/a	0.0	n/a	1	0.00859085839242	blockFiles/set_7/main_unc/leftBlue\GB_LB_1.xlsx
537	main_unc	True	0.0	743	0	9.0	9.0	0.0	1	left	2.0	1.0	1.0	0	-0.0578787594475	blockFiles/set_7/main_unc/leftBlue\GB_LB_1.xlsx
538	main_unc	True	0.0	743	0	9.0	9.0	1.0	1	right	1.0	0.0	1.0	1	0.0681982251443	blockFiles/set_7/main_unc/leftBlue\GB_LB_1.xlsx
539	main_unc	True	1.0	743	0	9.0	9.0	n/a	0	None	n/a	0.0	n/a	1	0.008696240223940001	blockFiles/set_7/main_unc/leftBlue\GB_LB_1.xlsx
540	main_unc	True	0.0	743	0	9.0	9.0	0.0	1	left	2.0	1.0	1.0	0	-0.0632883155532	blockFiles/set_7/main_unc/leftBlue\GB_LB_1.xlsx
541	main_unc	True	1.0	743	0	9.0	9.0	1.0	0	right	n/a	0.0	n/a	0	-0.0106427783147	blockFiles/set_7/main_unc/leftBlue\GB_LB_1.xlsx
542	main_unc	True	1.0	743	0	9.0	9.0	n/a	0	None	n/a	0.0	n/a	1	0.05670581052080001	blockFiles/set_7/main_unc/leftBlue\GB_LB_1.xlsx
543	main_unc	True	1.0	743	0	9.0	9.0	n/a	0	None	n/a	0.0	n/a	0	-0.0665223031491	blockFiles/set_7/main_unc/leftBlue\GB_LB_1.xlsx
544	main_unc	True	1.0	743	0	9.0	9.0	n/a	0	None	n/a	0.0	n/a	1	0.0456522560492	blockFiles/set_7/main_unc/leftBlue\GB_LB_1.xlsx
545	main_unc	True	0.0	743	0	9.0	9.0	1.0	0	right	1.0	0.0	0.0	0	-0.024031863510599997	blockFiles/set_7/main_unc/leftBlue\GB_LB_1.xlsx
546	main_unc	True	0.0	743	0	9.0	9.0	0.0	1	left	2.0	1.0	1.0	0	-0.00463360730559	blockFiles/set_7/main_unc/leftBlue\GB_LB_1.xlsx
547	main_unc	True	0.0	743	0	9.0	9.0	0.0	1	left	2.0	1.0	1.0	0	-0.0240250697732	blockFiles/set_7/main_unc/leftBlue\GB_LB_1.xlsx
548	main_unc	True	0.0	743	0	9.0	9.0	1.0	1	right	1.0	1.0	1.0	1	0.029769233875000002	blockFiles/set_7/main_unc/leftBlue\GB_LB_1.xlsx
549	main_unc	True	0.0	743	0	9.0	9.0	0.0	0	left	2.0	0.0	0.0	1	0.00370599312708	blockFiles/set_7/main_unc/leftBlue\GB_LB_1.xlsx
550	main_unc	True	0.0	743	0	9.0	9.0	0.0	1	left	2.0	0.0	1.0	0	-0.0763867603615	blockFiles/set_7/main_unc/leftBlue\GB_LB_1.xlsx
551	main_unc	True	1.0	743	0	9.0	9.0	n/a	0	None	n/a	0.0	n/a	0	-0.0407608577795	blockFiles/set_7/main_unc/leftBlue\GB_LB_1.xlsx
552	main_unc	True	0.0	743	0	9.0	9.0	1.0	1	right	1.0	0.0	1.0	1	0.00859085839242	blockFiles/set_7/main_unc/leftBlue\GB_LB_1.xlsx
553	main_unc	True	0.0	743	0	9.0	9.0	0.0	0	left	2.0	0.0	0.0	1	0.008696240223940001	blockFiles/set_7/main_unc/leftBlue\GB_LB_1.xlsx
554	main_unc	True	0.0	743	0	9.0	9.0	0.0	1	left	2.0	1.0	1.0	0	-0.0106427783147	blockFiles/set_7/main_unc/leftBlue\GB_LB_1.xlsx
555	main_unc	True	0.0	743	0	9.0	9.0	1.0	1	right	n/a	0.0	n/a	1	0.05670581052080001	blockFiles/set_7/main_unc/leftBlue\GB_LB_1.xlsx
556	main_unc	True	0.0	743	0	9.0	9.0	1.0	1	right	1.0	1.0	1.0	1	0.05670581052080001	blockFiles/set_7/main_unc/leftBlue\GB_LB_1.xlsx
557	main_unc	True	0.0	743	0	9.0	9.0	n/a	0	None	n/a	0.0	n/a	0	-0.0665223031491	blockFiles/set_7/main_unc/leftBlue\GB_LB_1.xlsx
558	main_unc	True	0.0	743	0	9.0	9.0	0.0	1	left	2.0	1.0	1.0	0	-0.0665223031491	blockFiles/set_7/main_unc/leftBlue\GB_LB_1.xlsx
559	main_unc	True	0.0	743	0	9.0	9.0	1.0	1	right	n/a	0.0	n/a	1	0.0456522560492	blockFiles/set_7/main_unc/leftBlue\GB_LB_1.xlsx
560	main_unc	True	0.0	743	0	9.0	9.0	1.0	1	right	1.0	0.0	1.0	1	0.0456522560492	blockFiles/set_7/main_unc/leftBlue\GB_LB_1.xlsx
561	main_unc	True	0.0	743	0	9.0	9.0	0.0	1	left	2.0	0.0	1.0	0	-0.0407608577795	blockFiles/set_7/main_unc/leftBlue\GB_LB_1.xlsx
562	main_unc	True	0.0	743	0	10.0	10.0	1.0	1	right	1.0	0.0	0.0	1	0.0348029592261	blockFiles/set_7/main_unc/rightBlue\GB_RB_4.xlsx
563	main_unc	True	0.0	743	0	10.0	10.0	1.0	1	right	2.0	1.0	1.0	1	0.0415405523404	blockFiles/set_7/main_unc/rightBlue\GB_RB_4.xlsx
564	main_unc	True	0.0	743	0	10.0	10.0	0.0	1	left	1.0	1.0	1.0	0	-0.0602080155164	blockFiles/set_7/main_unc/rightBlue\GB_RB_4.xlsx
565	main_unc	True	0.0	743	0	10.0	10.0	0.0	1	left	1.0	1.0	1.0	0	-0.0717798767798	blockFiles/set_7/main_unc/rightBlue\GB_RB_4.xlsx
566	main_unc	True	0.0	743	0	10.0	10.0	0.0	1	left	1.0	0.0	1.0	0	-0.00416074892506	blockFiles/set_7/main_unc/rightBlue\GB_RB_4.xlsx
567	main_unc	True	0.0	743	0	10.0	10.0	1.0	1	right	2.0	1.0	1.0	1	0.0636441393569	blockFiles/set_7/main_unc/rightBlue\GB_RB_4.xlsx
568	main_unc	True	0.0	743	0	10.0	10.0	0.0	1	left	1.0	1.0	1.0	0	-0.0165102527104	blockFiles/set_7/main_unc/rightBlue\GB_RB_4.xlsx
569	main_unc	True	0.0	743	0	10.0	10.0	0.0	1	left	1.0	1.0	1.0	0	-0.0125417260081	blockFiles/set_7/main_unc/rightBlue\GB_RB_4.xlsx
570	main_unc	True	1.0	743	0	10.0	10.0	n/a	0	None	n/a	0.0	n/a	1	0.07971123300489999	blockFiles/set_7/main_unc/rightBlue\GB_RB_4.xlsx
571	main_unc	True	0.0	743	0	10.0	10.0	1.0	1	right	2.0	1.0	1.0	1	0.0625098698959	blockFiles/set_7/main_unc/rightBlue\GB_RB_4.xlsx
572	main_unc	True	0.0	743	0	10.0	10.0	1.0	1	right	2.0	1.0	1.0	1	0.056993002668000003	blockFiles/set_7/main_unc/rightBlue\GB_RB_4.xlsx
573	main_unc	True	0.0	743	0	10.0	10.0	0.0	1	left	1.0	0.0	1.0	0	-0.00188747199252	blockFiles/set_7/main_unc/rightBlue\GB_RB_4.xlsx
574	main_unc	True	0.0	743	0	10.0	10.0	0.0	1	left	2.0	0.0	0.0	0	-0.0655910607614	blockFiles/set_7/main_unc/rightBlue\GB_RB_4.xlsx
575	main_unc	True	1.0	743	0	10.0	10.0	n/a	0	None	n/a	0.0	n/a	0	-0.0252388919145	blockFiles/set_7/main_unc/rightBlue\GB_RB_4.xlsx
576	main_unc	True	0.0	743	0	10.0	10.0	0.0	1	left	1.0	1.0	1.0	0	-0.0244757306762	blockFiles/set_7/main_unc/rightBlue\GB_RB_4.xlsx
577	main_unc	True	1.0	743	0	10.0	10.0	n/a	0	None	n/a	0.0	n/a	0	-0.07582308968530001	blockFiles/set_7/main_unc/rightBlue\GB_RB_4.xlsx
578	main_unc	True	1.0	743	0	10.0	10.0	n/a	0	None	n/a	0.0	n/a	1	0.0162697787583	blockFiles/set_7/main_unc/rightBlue\GB_RB_4.xlsx
579	main_unc	True	1.0	743	0	10.0	10.0	0.0	1	left	n/a	0.0	n/a	0	-0.0764576125704	blockFiles/set_7/main_unc/rightBlue\GB_RB_4.xlsx
580	main_unc	True	1.0	743	0	10.0	10.0	1.0	1	right	n/a	0.0	n/a	1	0.04212447838859999	blockFiles/set_7/main_unc/rightBlue\GB_RB_4.xlsx
581	main_unc	True	1.0	743	0	10.0	10.0	0.0	1	left	n/a	0.0	n/a	0	-0.0329131601937	blockFiles/set_7/main_unc/rightBlue\GB_RB_4.xlsx
582	main_unc	True	0.0	743	0	10.0	10.0	1.0	1	right	2.0	0.0	1.0	1	0.0146637643129	blockFiles/set_7/main_unc/rightBlue\GB_RB_4.xlsx
583	main_unc	True	0.0	743	0	10.0	10.0	1.0	1	right	2.0	0.0	1.0	1	0.0269560844265	blockFiles/set_7/main_unc/rightBlue\GB_RB_4.xlsx
584	main_unc	True	1.0	743	0	10.0	10.0	n/a	0	None	n/a	0.0	n/a	0	-0.0558928441443	blockFiles/set_7/main_unc/rightBlue\GB_RB_4.xlsx
585	main_unc	True	0.0	743	0	10.0	10.0	1.0	1	right	2.0	1.0	1.0	1	0.0187132901512	blockFiles/set_7/main_unc/rightBlue\GB_RB_4.xlsx
586	main_unc	True	0.0	743	0	10.0	10.0	1.0	1	right	2.0	1.0	1.0	1	0.06908733796330001	blockFiles/set_7/main_unc/rightBlue\GB_RB_4.xlsx
587	main_unc	True	0.0	743	0	10.0	10.0	n/a	0	None	n/a	0.0	n/a	1	0.07971123300489999	blockFiles/set_7/main_unc/rightBlue\GB_RB_4.xlsx
588	main_unc	True	0.0	743	0	10.0	10.0	n/a	0	None	n/a	0.0	n/a	1	0.07971123300489999	blockFiles/set_7/main_unc/rightBlue\GB_RB_4.xlsx
589	main_unc	True	0.0	743	0	10.0	10.0	1.0	1	right	2.0	1.0	1.0	1	0.07971123300489999	blockFiles/set_7/main_unc/rightBlue\GB_RB_4.xlsx
590	main_unc	True	0.0	743	0	10.0	10.0	0.0	1	left	1.0	1.0	1.0	0	-0.0252388919145	blockFiles/set_7/main_unc/rightBlue\GB_RB_4.xlsx
591	main_unc	True	0.0	743	0	10.0	10.0	0.0	1	left	1.0	1.0	1.0	0	-0.07582308968530001	blockFiles/set_7/main_unc/rightBlue\GB_RB_4.xlsx
592	main_unc	True	0.0	743	0	10.0	10.0	1.0	1	right	2.0	1.0	1.0	1	0.0162697787583	blockFiles/set_7/main_unc/rightBlue\GB_RB_4.xlsx
593	main_unc	True	0.0	743	0	10.0	10.0	0.0	1	left	2.0	0.0	0.0	0	-0.0764576125704	blockFiles/set_7/main_unc/rightBlue\GB_RB_4.xlsx
594	main_unc	True	0.0	743	0	10.0	10.0	1.0	1	right	1.0	0.0	0.0	1	0.04212447838859999	blockFiles/set_7/main_unc/rightBlue\GB_RB_4.xlsx
595	main_unc	True	0.0	743	0	10.0	10.0	1.0	0	right	1.0	1.0	1.0	0	-0.0329131601937	blockFiles/set_7/main_unc/rightBlue\GB_RB_4.xlsx
596	main_unc	True	0.0	743	0	10.0	10.0	0.0	1	left	1.0	1.0	1.0	0	-0.0558928441443	blockFiles/set_7/main_unc/rightBlue\GB_RB_4.xlsx
597	main_unc	True	1.0	743	0	11.0	11.0	n/a	0	None	n/a	0.0	n/a	0	-0.0648123320751	blockFiles/set_7/main_unc/leftBlue\GB_LB_4.xlsx
598	main_unc	True	0.0	743	0	11.0	11.0	0.0	1	left	2.0	1.0	1.0	0	-0.00801297390833	blockFiles/set_7/main_unc/leftBlue\GB_LB_4.xlsx
599	main_unc	True	0.0	743	0	11.0	11.0	0.0	1	left	2.0	1.0	1.0	0	-0.0797111206502	blockFiles/set_7/main_unc/leftBlue\GB_LB_4.xlsx
600	main_unc	True	0.0	743	0	11.0	11.0	1.0	1	right	1.0	1.0	1.0	1	0.07922151770439999	blockFiles/set_7/main_unc/leftBlue\GB_LB_4.xlsx
601	main_unc	True	0.0	743	0	11.0	11.0	1.0	1	right	1.0	1.0	1.0	1	0.0112195688672	blockFiles/set_7/main_unc/leftBlue\GB_LB_4.xlsx
602	main_unc	True	0.0	743	0	11.0	11.0	1.0	1	right	2.0	1.0	0.0	1	0.008866291902959999	blockFiles/set_7/main_unc/leftBlue\GB_LB_4.xlsx
603	main_unc	True	0.0	743	0	11.0	11.0	0.0	1	left	2.0	1.0	1.0	0	-0.0184878731892	blockFiles/set_7/main_unc/leftBlue\GB_LB_4.xlsx
604	main_unc	True	1.0	743	0	11.0	11.0	0.0	1	left	n/a	0.0	n/a	0	-0.0184509103373	blockFiles/set_7/main_unc/leftBlue\GB_LB_4.xlsx
605	main_unc	True	0.0	743	0	11.0	11.0	1.0	1	right	2.0	0.0	0.0	1	0.0624935236387	blockFiles/set_7/main_unc/leftBlue\GB_LB_4.xlsx
606	main_unc	True	0.0	743	0	11.0	11.0	0.0	1	left	2.0	1.0	1.0	0	-0.0472115008347	blockFiles/set_7/main_unc/leftBlue\GB_LB_4.xlsx
607	main_unc	True	0.0	743	0	11.0	11.0	1.0	1	right	2.0	1.0	0.0	1	0.030318727642299998	blockFiles/set_7/main_unc/leftBlue\GB_LB_4.xlsx
608	main_unc	True	0.0	743	0	11.0	11.0	0.0	1	left	2.0	1.0	1.0	0	-0.0694562245347	blockFiles/set_7/main_unc/leftBlue\GB_LB_4.xlsx
609	main_unc	True	0.0	743	0	11.0	11.0	0.0	1	left	1.0	0.0	0.0	0	-0.004945700298989999	blockFiles/set_7/main_unc/leftBlue\GB_LB_4.xlsx
610	main_unc	True	0.0	743	0	11.0	11.0	1.0	1	right	1.0	1.0	1.0	1	0.057240951247500005	blockFiles/set_7/main_unc/leftBlue\GB_LB_4.xlsx
611	main_unc	True	0.0	743	0	11.0	11.0	1.0	1	right	1.0	1.0	1.0	1	0.07299273775889999	blockFiles/set_7/main_unc/leftBlue\GB_LB_4.xlsx
612	main_unc	True	1.0	743	0	11.0	11.0	n/a	0	None	n/a	0.0	n/a	0	-0.0312601437606	blockFiles/set_7/main_unc/leftBlue\GB_LB_4.xlsx
613	main_unc	True	1.0	743	0	11.0	11.0	1.0	0	right	n/a	0.0	n/a	0	-0.0144185950421	blockFiles/set_7/main_unc/leftBlue\GB_LB_4.xlsx
614	main_unc	True	0.0	743	0	11.0	11.0	0.0	1	left	2.0	1.0	1.0	0	-0.052026498056899996	blockFiles/set_7/main_unc/leftBlue\GB_LB_4.xlsx
615	main_unc	True	0.0	743	0	11.0	11.0	1.0	1	right	1.0	1.0	1.0	1	0.013940923958999998	blockFiles/set_7/main_unc/leftBlue\GB_LB_4.xlsx
616	main_unc	True	0.0	743	0	11.0	11.0	1.0	1	right	1.0	1.0	1.0	1	0.0503183314577	blockFiles/set_7/main_unc/leftBlue\GB_LB_4.xlsx
617	main_unc	True	0.0	743	0	11.0	11.0	1.0	1	right	1.0	1.0	1.0	1	0.0258815628663	blockFiles/set_7/main_unc/leftBlue\GB_LB_4.xlsx
618	main_unc	True	0.0	743	0	11.0	11.0	0.0	1	left	2.0	1.0	1.0	0	-0.0258222331852	blockFiles/set_7/main_unc/leftBlue\GB_LB_4.xlsx
619	main_unc	True	0.0	743	0	11.0	11.0	0.0	1	left	2.0	1.0	1.0	0	-0.0268485013582	blockFiles/set_7/main_unc/leftBlue\GB_LB_4.xlsx
620	main_unc	True	0.0	743	0	11.0	11.0	0.0	1	left	2.0	1.0	1.0	0	-0.0775398653932	blockFiles/set_7/main_unc/leftBlue\GB_LB_4.xlsx
621	main_unc	True	0.0	743	0	11.0	11.0	1.0	1	right	1.0	0.0	1.0	1	0.07329259419810001	blockFiles/set_7/main_unc/leftBlue\GB_LB_4.xlsx
622	main_unc	True	0.0	743	0	11.0	11.0	0.0	1	left	2.0	1.0	1.0	0	-0.0648123320751	blockFiles/set_7/main_unc/leftBlue\GB_LB_4.xlsx
623	main_unc	True	0.0	743	0	11.0	11.0	1.0	0	right	1.0	1.0	0.0	0	-0.0184509103373	blockFiles/set_7/main_unc/leftBlue\GB_LB_4.xlsx
624	main_unc	True	0.0	743	0	11.0	11.0	0.0	1	left	2.0	1.0	1.0	0	-0.0312601437606	blockFiles/set_7/main_unc/leftBlue\GB_LB_4.xlsx
625	main_unc	True	0.0	743	0	11.0	11.0	1.0	0	right	2.0	0.0	1.0	0	-0.0144185950421	blockFiles/set_7/main_unc/leftBlue\GB_LB_4.xlsx
