	trial_type	complete	missIndex	participant	id	blockNumber	b_t	d_t	decision1.corr	decision1.keys	a_t	r_t	decision2.corr	s_t	u_t	block_file
0	main_safe	True	0.0	445	0	0.0	0.0	1.0	1	right	2.0	0.0	0.0	1	0.08	blockFiles/set_47/main_safe/leftBlue\GB_LB_3.xlsx
1	main_safe	True	0.0	445	0	0.0	0.0	1.0	1	right	2.0	1.0	0.0	1	0.08	blockFiles/set_47/main_safe/leftBlue\GB_LB_3.xlsx
2	main_safe	True	0.0	445	0	0.0	0.0	0.0	1	left	1.0	0.0	0.0	0	-0.08	blockFiles/set_47/main_safe/leftBlue\GB_LB_3.xlsx
3	main_safe	True	0.0	445	0	0.0	0.0	1.0	1	right	2.0	0.0	0.0	1	0.08	blockFiles/set_47/main_safe/leftBlue\GB_LB_3.xlsx
4	main_safe	True	0.0	445	0	0.0	0.0	1.0	1	right	1.0	1.0	1.0	1	0.08	blockFiles/set_47/main_safe/leftBlue\GB_LB_3.xlsx
5	main_safe	True	0.0	445	0	0.0	0.0	0.0	1	left	2.0	0.0	1.0	0	-0.08	blockFiles/set_47/main_safe/leftBlue\GB_LB_3.xlsx
6	main_safe	True	0.0	445	0	0.0	0.0	0.0	1	left	1.0	1.0	0.0	0	-0.08	blockFiles/set_47/main_safe/leftBlue\GB_LB_3.xlsx
7	main_safe	True	0.0	445	0	0.0	0.0	0.0	1	left	1.0	0.0	0.0	0	-0.08	blockFiles/set_47/main_safe/leftBlue\GB_LB_3.xlsx
8	main_safe	True	0.0	445	0	0.0	0.0	1.0	1	right	1.0	1.0	1.0	1	0.08	blockFiles/set_47/main_safe/leftBlue\GB_LB_3.xlsx
9	main_safe	True	0.0	445	0	0.0	0.0	0.0	1	left	2.0	0.0	1.0	0	-0.08	blockFiles/set_47/main_safe/leftBlue\GB_LB_3.xlsx
10	main_safe	True	0.0	445	0	0.0	0.0	0.0	1	left	2.0	1.0	1.0	0	-0.08	blockFiles/set_47/main_safe/leftBlue\GB_LB_3.xlsx
11	main_safe	True	0.0	445	0	0.0	0.0	1.0	1	right	1.0	1.0	1.0	1	0.08	blockFiles/set_47/main_safe/leftBlue\GB_LB_3.xlsx
12	main_safe	True	0.0	445	0	0.0	0.0	0.0	1	left	2.0	1.0	1.0	0	-0.08	blockFiles/set_47/main_safe/leftBlue\GB_LB_3.xlsx
13	main_safe	True	0.0	445	0	0.0	0.0	1.0	1	right	1.0	1.0	1.0	1	0.08	blockFiles/set_47/main_safe/leftBlue\GB_LB_3.xlsx
14	main_safe	True	0.0	445	0	0.0	0.0	0.0	1	left	2.0	1.0	1.0	0	-0.08	blockFiles/set_47/main_safe/leftBlue\GB_LB_3.xlsx
15	main_safe	True	0.0	445	0	0.0	0.0	1.0	1	right	1.0	1.0	1.0	1	0.08	blockFiles/set_47/main_safe/leftBlue\GB_LB_3.xlsx
16	main_safe	True	0.0	445	0	0.0	0.0	0.0	1	left	2.0	0.0	1.0	0	-0.08	blockFiles/set_47/main_safe/leftBlue\GB_LB_3.xlsx
17	main_safe	True	0.0	445	0	0.0	0.0	0.0	1	left	2.0	1.0	1.0	0	-0.08	blockFiles/set_47/main_safe/leftBlue\GB_LB_3.xlsx
18	main_safe	True	0.0	445	0	0.0	0.0	1.0	1	right	1.0	1.0	1.0	1	0.08	blockFiles/set_47/main_safe/leftBlue\GB_LB_3.xlsx
19	main_safe	True	0.0	445	0	0.0	0.0	1.0	1	right	1.0	1.0	1.0	1	0.08	blockFiles/set_47/main_safe/leftBlue\GB_LB_3.xlsx
20	main_safe	True	0.0	445	0	0.0	0.0	1.0	1	right	1.0	1.0	1.0	1	0.08	blockFiles/set_47/main_safe/leftBlue\GB_LB_3.xlsx
21	main_safe	True	0.0	445	0	0.0	0.0	1.0	1	right	1.0	1.0	1.0	1	0.08	blockFiles/set_47/main_safe/leftBlue\GB_LB_3.xlsx
22	main_safe	True	0.0	445	0	0.0	0.0	0.0	1	left	2.0	1.0	1.0	0	-0.08	blockFiles/set_47/main_safe/leftBlue\GB_LB_3.xlsx
23	main_safe	True	0.0	445	0	0.0	0.0	1.0	1	right	1.0	0.0	1.0	1	0.08	blockFiles/set_47/main_safe/leftBlue\GB_LB_3.xlsx
24	main_safe	True	0.0	445	0	0.0	0.0	0.0	1	left	2.0	1.0	1.0	0	-0.08	blockFiles/set_47/main_safe/leftBlue\GB_LB_3.xlsx
25	main_safe	True	0.0	445	0	1.0	1.0	1.0	1	right	1.0	1.0	1.0	1	0.08	blockFiles/set_47/main_safe/leftBlue\GB_LB_2.xlsx
26	main_safe	True	0.0	445	0	1.0	1.0	1.0	1	right	1.0	1.0	1.0	1	0.08	blockFiles/set_47/main_safe/leftBlue\GB_LB_2.xlsx
27	main_safe	True	0.0	445	0	1.0	1.0	1.0	1	right	1.0	1.0	1.0	1	0.08	blockFiles/set_47/main_safe/leftBlue\GB_LB_2.xlsx
28	main_safe	True	0.0	445	0	1.0	1.0	1.0	1	right	1.0	1.0	1.0	1	0.08	blockFiles/set_47/main_safe/leftBlue\GB_LB_2.xlsx
29	main_safe	True	0.0	445	0	1.0	1.0	1.0	1	right	1.0	1.0	1.0	1	0.08	blockFiles/set_47/main_safe/leftBlue\GB_LB_2.xlsx
30	main_safe	True	0.0	445	0	1.0	1.0	0.0	1	left	2.0	1.0	1.0	0	-0.08	blockFiles/set_47/main_safe/leftBlue\GB_LB_2.xlsx
31	main_safe	True	0.0	445	0	1.0	1.0	0.0	1	left	2.0	1.0	1.0	0	-0.08	blockFiles/set_47/main_safe/leftBlue\GB_LB_2.xlsx
32	main_safe	True	0.0	445	0	1.0	1.0	0.0	1	left	2.0	1.0	1.0	0	-0.08	blockFiles/set_47/main_safe/leftBlue\GB_LB_2.xlsx
33	main_safe	True	0.0	445	0	1.0	1.0	0.0	1	left	2.0	0.0	1.0	0	-0.08	blockFiles/set_47/main_safe/leftBlue\GB_LB_2.xlsx
34	main_safe	True	0.0	445	0	1.0	1.0	0.0	1	left	2.0	1.0	1.0	0	-0.08	blockFiles/set_47/main_safe/leftBlue\GB_LB_2.xlsx
35	main_safe	True	0.0	445	0	1.0	1.0	1.0	1	right	1.0	1.0	1.0	1	0.08	blockFiles/set_47/main_safe/leftBlue\GB_LB_2.xlsx
36	main_safe	True	0.0	445	0	1.0	1.0	1.0	1	right	1.0	1.0	1.0	1	0.08	blockFiles/set_47/main_safe/leftBlue\GB_LB_2.xlsx
37	main_safe	True	0.0	445	0	1.0	1.0	1.0	1	right	1.0	1.0	1.0	1	0.08	blockFiles/set_47/main_safe/leftBlue\GB_LB_2.xlsx
38	main_safe	True	0.0	445	0	1.0	1.0	0.0	1	left	2.0	1.0	1.0	0	-0.08	blockFiles/set_47/main_safe/leftBlue\GB_LB_2.xlsx
39	main_safe	True	0.0	445	0	1.0	1.0	0.0	1	left	2.0	1.0	1.0	0	-0.08	blockFiles/set_47/main_safe/leftBlue\GB_LB_2.xlsx
40	main_safe	True	0.0	445	0	1.0	1.0	0.0	1	left	2.0	0.0	1.0	0	-0.08	blockFiles/set_47/main_safe/leftBlue\GB_LB_2.xlsx
41	main_safe	True	0.0	445	0	1.0	1.0	1.0	1	right	1.0	0.0	1.0	1	0.08	blockFiles/set_47/main_safe/leftBlue\GB_LB_2.xlsx
42	main_safe	True	0.0	445	0	1.0	1.0	1.0	1	right	1.0	1.0	1.0	1	0.08	blockFiles/set_47/main_safe/leftBlue\GB_LB_2.xlsx
43	main_safe	True	0.0	445	0	1.0	1.0	1.0	1	right	1.0	0.0	1.0	1	0.08	blockFiles/set_47/main_safe/leftBlue\GB_LB_2.xlsx
44	main_safe	True	0.0	445	0	1.0	1.0	0.0	1	left	2.0	1.0	1.0	0	-0.08	blockFiles/set_47/main_safe/leftBlue\GB_LB_2.xlsx
45	main_safe	True	0.0	445	0	1.0	1.0	1.0	1	right	1.0	1.0	1.0	1	0.08	blockFiles/set_47/main_safe/leftBlue\GB_LB_2.xlsx
46	main_safe	True	0.0	445	0	1.0	1.0	1.0	1	right	1.0	1.0	1.0	1	0.08	blockFiles/set_47/main_safe/leftBlue\GB_LB_2.xlsx
47	main_safe	True	0.0	445	0	1.0	1.0	0.0	1	left	2.0	1.0	1.0	0	-0.08	blockFiles/set_47/main_safe/leftBlue\GB_LB_2.xlsx
48	main_safe	True	0.0	445	0	1.0	1.0	1.0	1	right	1.0	1.0	1.0	1	0.08	blockFiles/set_47/main_safe/leftBlue\GB_LB_2.xlsx
49	main_safe	True	0.0	445	0	1.0	1.0	0.0	1	left	2.0	1.0	1.0	0	-0.08	blockFiles/set_47/main_safe/leftBlue\GB_LB_2.xlsx
50	main_safe	True	0.0	445	0	2.0	2.0	1.0	1	right	2.0	1.0	1.0	1	0.08	blockFiles/set_47/main_safe/rightBlue\GB_RB_3.xlsx
51	main_safe	True	0.0	445	0	2.0	2.0	1.0	1	right	2.0	1.0	1.0	1	0.08	blockFiles/set_47/main_safe/rightBlue\GB_RB_3.xlsx
52	main_safe	True	0.0	445	0	2.0	2.0	1.0	1	right	2.0	0.0	1.0	1	0.08	blockFiles/set_47/main_safe/rightBlue\GB_RB_3.xlsx
53	main_safe	True	0.0	445	0	2.0	2.0	0.0	1	left	1.0	1.0	1.0	0	-0.08	blockFiles/set_47/main_safe/rightBlue\GB_RB_3.xlsx
54	main_safe	True	1.0	445	0	2.0	2.0	1.0	1	right	n/a	0.0	n/a	1	0.08	blockFiles/set_47/main_safe/rightBlue\GB_RB_3.xlsx
55	main_safe	True	0.0	445	0	2.0	2.0	1.0	1	right	2.0	1.0	1.0	1	0.08	blockFiles/set_47/main_safe/rightBlue\GB_RB_3.xlsx
56	main_safe	True	0.0	445	0	2.0	2.0	0.0	1	left	1.0	1.0	1.0	0	-0.08	blockFiles/set_47/main_safe/rightBlue\GB_RB_3.xlsx
57	main_safe	True	0.0	445	0	2.0	2.0	1.0	1	right	2.0	1.0	1.0	1	0.08	blockFiles/set_47/main_safe/rightBlue\GB_RB_3.xlsx
58	main_safe	True	0.0	445	0	2.0	2.0	0.0	1	left	1.0	1.0	1.0	0	-0.08	blockFiles/set_47/main_safe/rightBlue\GB_RB_3.xlsx
59	main_safe	True	0.0	445	0	2.0	2.0	1.0	1	right	2.0	1.0	1.0	1	0.08	blockFiles/set_47/main_safe/rightBlue\GB_RB_3.xlsx
60	main_safe	True	0.0	445	0	2.0	2.0	0.0	1	left	1.0	1.0	1.0	0	-0.08	blockFiles/set_47/main_safe/rightBlue\GB_RB_3.xlsx
61	main_safe	True	0.0	445	0	2.0	2.0	0.0	1	left	1.0	1.0	1.0	0	-0.08	blockFiles/set_47/main_safe/rightBlue\GB_RB_3.xlsx
62	main_safe	True	0.0	445	0	2.0	2.0	1.0	1	right	2.0	1.0	1.0	1	0.08	blockFiles/set_47/main_safe/rightBlue\GB_RB_3.xlsx
63	main_safe	True	0.0	445	0	2.0	2.0	0.0	1	left	1.0	1.0	1.0	0	-0.08	blockFiles/set_47/main_safe/rightBlue\GB_RB_3.xlsx
64	main_safe	True	0.0	445	0	2.0	2.0	1.0	1	right	2.0	0.0	1.0	1	0.08	blockFiles/set_47/main_safe/rightBlue\GB_RB_3.xlsx
65	main_safe	True	0.0	445	0	2.0	2.0	0.0	1	left	1.0	1.0	1.0	0	-0.08	blockFiles/set_47/main_safe/rightBlue\GB_RB_3.xlsx
66	main_safe	True	0.0	445	0	2.0	2.0	1.0	1	right	2.0	1.0	1.0	1	0.08	blockFiles/set_47/main_safe/rightBlue\GB_RB_3.xlsx
67	main_safe	True	0.0	445	0	2.0	2.0	1.0	1	right	2.0	1.0	1.0	1	0.08	blockFiles/set_47/main_safe/rightBlue\GB_RB_3.xlsx
68	main_safe	True	0.0	445	0	2.0	2.0	0.0	1	left	1.0	1.0	1.0	0	-0.08	blockFiles/set_47/main_safe/rightBlue\GB_RB_3.xlsx
69	main_safe	True	0.0	445	0	2.0	2.0	1.0	1	right	2.0	0.0	1.0	1	0.08	blockFiles/set_47/main_safe/rightBlue\GB_RB_3.xlsx
70	main_safe	True	0.0	445	0	2.0	2.0	0.0	1	left	1.0	1.0	1.0	0	-0.08	blockFiles/set_47/main_safe/rightBlue\GB_RB_3.xlsx
71	main_safe	True	0.0	445	0	2.0	2.0	0.0	1	left	1.0	1.0	1.0	0	-0.08	blockFiles/set_47/main_safe/rightBlue\GB_RB_3.xlsx
72	main_safe	True	0.0	445	0	2.0	2.0	0.0	1	left	1.0	0.0	1.0	0	-0.08	blockFiles/set_47/main_safe/rightBlue\GB_RB_3.xlsx
73	main_safe	True	0.0	445	0	2.0	2.0	0.0	1	left	1.0	1.0	1.0	0	-0.08	blockFiles/set_47/main_safe/rightBlue\GB_RB_3.xlsx
74	main_safe	True	0.0	445	0	2.0	2.0	1.0	1	right	2.0	1.0	1.0	1	0.08	blockFiles/set_47/main_safe/rightBlue\GB_RB_3.xlsx
75	main_safe	True	0.0	445	0	2.0	2.0	1.0	1	right	2.0	1.0	1.0	1	0.08	blockFiles/set_47/main_safe/rightBlue\GB_RB_3.xlsx
76	main_safe	True	0.0	445	0	3.0	3.0	1.0	1	right	1.0	0.0	1.0	1	0.08	blockFiles/set_47/main_safe/leftBlue\GB_LB_1.xlsx
77	main_safe	True	0.0	445	0	3.0	3.0	0.0	1	left	2.0	1.0	1.0	0	-0.08	blockFiles/set_47/main_safe/leftBlue\GB_LB_1.xlsx
78	main_safe	True	0.0	445	0	3.0	3.0	1.0	1	right	1.0	1.0	1.0	1	0.08	blockFiles/set_47/main_safe/leftBlue\GB_LB_1.xlsx
79	main_safe	True	0.0	445	0	3.0	3.0	1.0	1	right	1.0	1.0	1.0	1	0.08	blockFiles/set_47/main_safe/leftBlue\GB_LB_1.xlsx
80	main_safe	True	0.0	445	0	3.0	3.0	0.0	1	left	2.0	1.0	1.0	0	-0.08	blockFiles/set_47/main_safe/leftBlue\GB_LB_1.xlsx
81	main_safe	True	0.0	445	0	3.0	3.0	0.0	1	left	2.0	0.0	1.0	0	-0.08	blockFiles/set_47/main_safe/leftBlue\GB_LB_1.xlsx
82	main_safe	True	0.0	445	0	3.0	3.0	0.0	1	left	2.0	1.0	1.0	0	-0.08	blockFiles/set_47/main_safe/leftBlue\GB_LB_1.xlsx
83	main_safe	True	0.0	445	0	3.0	3.0	0.0	1	left	2.0	1.0	1.0	0	-0.08	blockFiles/set_47/main_safe/leftBlue\GB_LB_1.xlsx
84	main_safe	True	0.0	445	0	3.0	3.0	1.0	1	right	1.0	1.0	1.0	1	0.08	blockFiles/set_47/main_safe/leftBlue\GB_LB_1.xlsx
85	main_safe	True	0.0	445	0	3.0	3.0	0.0	1	left	2.0	1.0	1.0	0	-0.08	blockFiles/set_47/main_safe/leftBlue\GB_LB_1.xlsx
86	main_safe	True	0.0	445	0	3.0	3.0	0.0	1	left	2.0	0.0	1.0	0	-0.08	blockFiles/set_47/main_safe/leftBlue\GB_LB_1.xlsx
87	main_safe	True	0.0	445	0	3.0	3.0	1.0	1	right	1.0	1.0	1.0	1	0.08	blockFiles/set_47/main_safe/leftBlue\GB_LB_1.xlsx
88	main_safe	True	0.0	445	0	3.0	3.0	0.0	1	left	2.0	1.0	1.0	0	-0.08	blockFiles/set_47/main_safe/leftBlue\GB_LB_1.xlsx
89	main_safe	True	0.0	445	0	3.0	3.0	0.0	1	left	2.0	1.0	1.0	0	-0.08	blockFiles/set_47/main_safe/leftBlue\GB_LB_1.xlsx
90	main_safe	True	0.0	445	0	3.0	3.0	0.0	1	left	2.0	1.0	1.0	0	-0.08	blockFiles/set_47/main_safe/leftBlue\GB_LB_1.xlsx
91	main_safe	True	0.0	445	0	3.0	3.0	1.0	1	right	1.0	1.0	1.0	1	0.08	blockFiles/set_47/main_safe/leftBlue\GB_LB_1.xlsx
92	main_safe	True	0.0	445	0	3.0	3.0	1.0	1	right	1.0	1.0	1.0	1	0.08	blockFiles/set_47/main_safe/leftBlue\GB_LB_1.xlsx
93	main_safe	True	0.0	445	0	3.0	3.0	1.0	1	right	1.0	1.0	1.0	1	0.08	blockFiles/set_47/main_safe/leftBlue\GB_LB_1.xlsx
94	main_safe	True	0.0	445	0	3.0	3.0	1.0	1	right	1.0	0.0	1.0	1	0.08	blockFiles/set_47/main_safe/leftBlue\GB_LB_1.xlsx
95	main_safe	True	0.0	445	0	3.0	3.0	0.0	1	left	2.0	1.0	1.0	0	-0.08	blockFiles/set_47/main_safe/leftBlue\GB_LB_1.xlsx
96	main_safe	True	0.0	445	0	3.0	3.0	1.0	1	right	1.0	1.0	1.0	1	0.08	blockFiles/set_47/main_safe/leftBlue\GB_LB_1.xlsx
97	main_safe	True	0.0	445	0	3.0	3.0	1.0	1	right	1.0	1.0	1.0	1	0.08	blockFiles/set_47/main_safe/leftBlue\GB_LB_1.xlsx
98	main_safe	True	0.0	445	0	3.0	3.0	1.0	1	right	1.0	1.0	1.0	1	0.08	blockFiles/set_47/main_safe/leftBlue\GB_LB_1.xlsx
99	main_safe	True	0.0	445	0	3.0	3.0	0.0	1	left	2.0	1.0	1.0	0	-0.08	blockFiles/set_47/main_safe/leftBlue\GB_LB_1.xlsx
100	main_safe	True	0.0	445	0	3.0	3.0	0.0	1	left	2.0	0.0	1.0	0	-0.08	blockFiles/set_47/main_safe/leftBlue\GB_LB_1.xlsx
101	main_safe	True	0.0	445	0	4.0	4.0	0.0	1	left	1.0	1.0	1.0	0	-0.08	blockFiles/set_47/main_safe/rightBlue\GB_RB_2.xlsx
102	main_safe	True	0.0	445	0	4.0	4.0	1.0	1	right	2.0	1.0	1.0	1	0.08	blockFiles/set_47/main_safe/rightBlue\GB_RB_2.xlsx
103	main_safe	True	0.0	445	0	4.0	4.0	1.0	1	right	2.0	1.0	1.0	1	0.08	blockFiles/set_47/main_safe/rightBlue\GB_RB_2.xlsx
104	main_safe	True	0.0	445	0	4.0	4.0	1.0	1	right	2.0	0.0	1.0	1	0.08	blockFiles/set_47/main_safe/rightBlue\GB_RB_2.xlsx
105	main_safe	True	0.0	445	0	4.0	4.0	1.0	1	right	2.0	1.0	1.0	1	0.08	blockFiles/set_47/main_safe/rightBlue\GB_RB_2.xlsx
106	main_safe	True	0.0	445	0	4.0	4.0	1.0	1	right	2.0	0.0	1.0	1	0.08	blockFiles/set_47/main_safe/rightBlue\GB_RB_2.xlsx
107	main_safe	True	0.0	445	0	4.0	4.0	1.0	1	right	2.0	1.0	1.0	1	0.08	blockFiles/set_47/main_safe/rightBlue\GB_RB_2.xlsx
108	main_safe	True	0.0	445	0	4.0	4.0	0.0	1	left	1.0	1.0	1.0	0	-0.08	blockFiles/set_47/main_safe/rightBlue\GB_RB_2.xlsx
109	main_safe	True	0.0	445	0	4.0	4.0	1.0	1	right	2.0	1.0	1.0	1	0.08	blockFiles/set_47/main_safe/rightBlue\GB_RB_2.xlsx
110	main_safe	True	0.0	445	0	4.0	4.0	1.0	1	right	2.0	1.0	1.0	1	0.08	blockFiles/set_47/main_safe/rightBlue\GB_RB_2.xlsx
111	main_safe	True	0.0	445	0	4.0	4.0	1.0	1	right	2.0	1.0	1.0	1	0.08	blockFiles/set_47/main_safe/rightBlue\GB_RB_2.xlsx
112	main_safe	True	0.0	445	0	4.0	4.0	0.0	1	left	1.0	0.0	1.0	0	-0.08	blockFiles/set_47/main_safe/rightBlue\GB_RB_2.xlsx
113	main_safe	True	0.0	445	0	4.0	4.0	0.0	1	left	1.0	0.0	1.0	0	-0.08	blockFiles/set_47/main_safe/rightBlue\GB_RB_2.xlsx
114	main_safe	True	0.0	445	0	4.0	4.0	0.0	1	left	1.0	1.0	1.0	0	-0.08	blockFiles/set_47/main_safe/rightBlue\GB_RB_2.xlsx
115	main_safe	True	0.0	445	0	4.0	4.0	0.0	1	left	1.0	1.0	1.0	0	-0.08	blockFiles/set_47/main_safe/rightBlue\GB_RB_2.xlsx
116	main_safe	True	0.0	445	0	4.0	4.0	0.0	1	left	1.0	1.0	1.0	0	-0.08	blockFiles/set_47/main_safe/rightBlue\GB_RB_2.xlsx
117	main_safe	True	0.0	445	0	4.0	4.0	0.0	1	left	1.0	1.0	1.0	0	-0.08	blockFiles/set_47/main_safe/rightBlue\GB_RB_2.xlsx
118	main_safe	True	0.0	445	0	4.0	4.0	1.0	1	right	2.0	1.0	1.0	1	0.08	blockFiles/set_47/main_safe/rightBlue\GB_RB_2.xlsx
119	main_safe	True	0.0	445	0	4.0	4.0	0.0	1	left	1.0	1.0	1.0	0	-0.08	blockFiles/set_47/main_safe/rightBlue\GB_RB_2.xlsx
120	main_safe	True	0.0	445	0	4.0	4.0	0.0	1	left	1.0	0.0	1.0	0	-0.08	blockFiles/set_47/main_safe/rightBlue\GB_RB_2.xlsx
121	main_safe	True	0.0	445	0	4.0	4.0	0.0	1	left	1.0	1.0	1.0	0	-0.08	blockFiles/set_47/main_safe/rightBlue\GB_RB_2.xlsx
122	main_safe	True	0.0	445	0	4.0	4.0	1.0	1	right	2.0	1.0	1.0	1	0.08	blockFiles/set_47/main_safe/rightBlue\GB_RB_2.xlsx
123	main_safe	True	0.0	445	0	4.0	4.0	1.0	1	right	1.0	0.0	0.0	1	0.08	blockFiles/set_47/main_safe/rightBlue\GB_RB_2.xlsx
124	main_safe	True	0.0	445	0	4.0	4.0	0.0	1	left	1.0	1.0	1.0	0	-0.08	blockFiles/set_47/main_safe/rightBlue\GB_RB_2.xlsx
125	main_safe	True	0.0	445	0	4.0	4.0	0.0	1	left	1.0	1.0	1.0	0	-0.08	blockFiles/set_47/main_safe/rightBlue\GB_RB_2.xlsx
126	main_safe	True	0.0	445	0	5.0	5.0	0.0	1	left	1.0	1.0	1.0	0	-0.08	blockFiles/set_47/main_safe/rightBlue\GB_RB_1.xlsx
127	main_safe	True	0.0	445	0	5.0	5.0	1.0	1	right	2.0	1.0	1.0	1	0.08	blockFiles/set_47/main_safe/rightBlue\GB_RB_1.xlsx
128	main_safe	True	0.0	445	0	5.0	5.0	1.0	1	right	2.0	0.0	1.0	1	0.08	blockFiles/set_47/main_safe/rightBlue\GB_RB_1.xlsx
129	main_safe	True	0.0	445	0	5.0	5.0	0.0	1	left	1.0	1.0	1.0	0	-0.08	blockFiles/set_47/main_safe/rightBlue\GB_RB_1.xlsx
130	main_safe	True	0.0	445	0	5.0	5.0	1.0	1	right	2.0	1.0	1.0	1	0.08	blockFiles/set_47/main_safe/rightBlue\GB_RB_1.xlsx
131	main_safe	True	0.0	445	0	5.0	5.0	1.0	1	right	2.0	1.0	1.0	1	0.08	blockFiles/set_47/main_safe/rightBlue\GB_RB_1.xlsx
132	main_safe	True	0.0	445	0	5.0	5.0	1.0	1	right	2.0	0.0	1.0	1	0.08	blockFiles/set_47/main_safe/rightBlue\GB_RB_1.xlsx
133	main_safe	True	0.0	445	0	5.0	5.0	0.0	1	left	1.0	1.0	1.0	0	-0.08	blockFiles/set_47/main_safe/rightBlue\GB_RB_1.xlsx
134	main_safe	True	0.0	445	0	5.0	5.0	1.0	1	right	2.0	1.0	1.0	1	0.08	blockFiles/set_47/main_safe/rightBlue\GB_RB_1.xlsx
135	main_safe	True	0.0	445	0	5.0	5.0	1.0	1	right	2.0	1.0	1.0	1	0.08	blockFiles/set_47/main_safe/rightBlue\GB_RB_1.xlsx
136	main_safe	True	0.0	445	0	5.0	5.0	0.0	1	left	1.0	1.0	1.0	0	-0.08	blockFiles/set_47/main_safe/rightBlue\GB_RB_1.xlsx
137	main_safe	True	0.0	445	0	5.0	5.0	0.0	1	left	1.0	1.0	1.0	0	-0.08	blockFiles/set_47/main_safe/rightBlue\GB_RB_1.xlsx
138	main_safe	True	0.0	445	0	5.0	5.0	1.0	1	right	2.0	1.0	1.0	1	0.08	blockFiles/set_47/main_safe/rightBlue\GB_RB_1.xlsx
139	main_safe	True	0.0	445	0	5.0	5.0	0.0	1	left	1.0	1.0	1.0	0	-0.08	blockFiles/set_47/main_safe/rightBlue\GB_RB_1.xlsx
140	main_safe	True	0.0	445	0	5.0	5.0	0.0	1	left	1.0	1.0	1.0	0	-0.08	blockFiles/set_47/main_safe/rightBlue\GB_RB_1.xlsx
141	main_safe	True	0.0	445	0	5.0	5.0	0.0	1	left	1.0	1.0	1.0	0	-0.08	blockFiles/set_47/main_safe/rightBlue\GB_RB_1.xlsx
142	main_safe	True	0.0	445	0	5.0	5.0	0.0	1	left	1.0	1.0	1.0	0	-0.08	blockFiles/set_47/main_safe/rightBlue\GB_RB_1.xlsx
143	main_safe	True	0.0	445	0	5.0	5.0	1.0	1	right	2.0	1.0	1.0	1	0.08	blockFiles/set_47/main_safe/rightBlue\GB_RB_1.xlsx
144	main_safe	True	0.0	445	0	5.0	5.0	1.0	1	right	2.0	0.0	1.0	1	0.08	blockFiles/set_47/main_safe/rightBlue\GB_RB_1.xlsx
145	main_safe	True	0.0	445	0	5.0	5.0	0.0	1	left	1.0	1.0	1.0	0	-0.08	blockFiles/set_47/main_safe/rightBlue\GB_RB_1.xlsx
146	main_safe	True	0.0	445	0	5.0	5.0	0.0	1	left	1.0	1.0	1.0	0	-0.08	blockFiles/set_47/main_safe/rightBlue\GB_RB_1.xlsx
147	main_safe	True	0.0	445	0	5.0	5.0	1.0	1	right	2.0	1.0	1.0	1	0.08	blockFiles/set_47/main_safe/rightBlue\GB_RB_1.xlsx
148	main_safe	True	0.0	445	0	5.0	5.0	0.0	1	left	1.0	1.0	1.0	0	-0.08	blockFiles/set_47/main_safe/rightBlue\GB_RB_1.xlsx
149	main_safe	True	0.0	445	0	5.0	5.0	1.0	1	right	2.0	0.0	1.0	1	0.08	blockFiles/set_47/main_safe/rightBlue\GB_RB_1.xlsx
150	main_safe	True	0.0	445	0	5.0	5.0	0.0	1	left	1.0	0.0	1.0	0	-0.08	blockFiles/set_47/main_safe/rightBlue\GB_RB_1.xlsx
151	patches	True	n/a	445	0	n/a	n/a	1.0	1	right	n/a	n/a	n/a	1	0.0634125603735	blockFiles/set_47/main_PD/GB_runPatches1.xlsx
152	patches	True	n/a	445	0	n/a	n/a	n/a	0	None	n/a	n/a	n/a	1	0.059478707332199995	blockFiles/set_47/main_PD/GB_runPatches1.xlsx
153	patches	True	n/a	445	0	n/a	n/a	0.0	1	left	n/a	n/a	n/a	0	-0.0205231416225	blockFiles/set_47/main_PD/GB_runPatches1.xlsx
154	patches	True	n/a	445	0	n/a	n/a	0.0	1	left	n/a	n/a	n/a	0	-0.0399993223511	blockFiles/set_47/main_PD/GB_runPatches1.xlsx
155	patches	True	n/a	445	0	n/a	n/a	1.0	1	right	n/a	n/a	n/a	1	0.070886439383	blockFiles/set_47/main_PD/GB_runPatches1.xlsx
156	patches	True	n/a	445	0	n/a	n/a	1.0	1	right	n/a	n/a	n/a	1	0.0327273755521	blockFiles/set_47/main_PD/GB_runPatches1.xlsx
157	patches	True	n/a	445	0	n/a	n/a	1.0	1	right	n/a	n/a	n/a	1	0.0469461296126	blockFiles/set_47/main_PD/GB_runPatches1.xlsx
158	patches	True	n/a	445	0	n/a	n/a	1.0	1	right	n/a	n/a	n/a	1	0.042992514669900006	blockFiles/set_47/main_PD/GB_runPatches1.xlsx
159	patches	True	n/a	445	0	n/a	n/a	1.0	1	right	n/a	n/a	n/a	1	0.008228795956819999	blockFiles/set_47/main_PD/GB_runPatches1.xlsx
160	patches	True	n/a	445	0	n/a	n/a	1.0	1	right	n/a	n/a	n/a	1	0.0453699441254	blockFiles/set_47/main_PD/GB_runPatches1.xlsx
161	patches	True	n/a	445	0	n/a	n/a	1.0	1	right	n/a	n/a	n/a	1	0.05565048845480001	blockFiles/set_47/main_PD/GB_runPatches1.xlsx
162	patches	True	n/a	445	0	n/a	n/a	1.0	1	right	n/a	n/a	n/a	1	0.00897421417758	blockFiles/set_47/main_PD/GB_runPatches1.xlsx
163	patches	True	n/a	445	0	n/a	n/a	1.0	1	right	n/a	n/a	n/a	1	0.0434906091355	blockFiles/set_47/main_PD/GB_runPatches1.xlsx
164	patches	True	n/a	445	0	n/a	n/a	1.0	1	right	n/a	n/a	n/a	1	0.07578769605610002	blockFiles/set_47/main_PD/GB_runPatches1.xlsx
165	patches	True	n/a	445	0	n/a	n/a	1.0	1	right	n/a	n/a	n/a	1	0.020527085568799997	blockFiles/set_47/main_PD/GB_runPatches1.xlsx
166	patches	True	n/a	445	0	n/a	n/a	1.0	0	right	n/a	n/a	n/a	0	-0.0104353624582	blockFiles/set_47/main_PD/GB_runPatches1.xlsx
167	patches	True	n/a	445	0	n/a	n/a	0.0	1	left	n/a	n/a	n/a	0	-0.0788195395283	blockFiles/set_47/main_PD/GB_runPatches1.xlsx
168	patches	True	n/a	445	0	n/a	n/a	0.0	1	left	n/a	n/a	n/a	0	-0.0704003393091	blockFiles/set_47/main_PD/GB_runPatches1.xlsx
169	patches	True	n/a	445	0	n/a	n/a	1.0	1	right	n/a	n/a	n/a	1	1.84853188694e-05	blockFiles/set_47/main_PD/GB_runPatches1.xlsx
170	patches	True	n/a	445	0	n/a	n/a	0.0	1	left	n/a	n/a	n/a	0	-0.0715331225097	blockFiles/set_47/main_PD/GB_runPatches1.xlsx
171	patches	True	n/a	445	0	n/a	n/a	1.0	1	right	n/a	n/a	n/a	1	0.05501411171630001	blockFiles/set_47/main_PD/GB_runPatches1.xlsx
172	patches	True	n/a	445	0	n/a	n/a	1.0	1	right	n/a	n/a	n/a	1	0.0498966860026	blockFiles/set_47/main_PD/GB_runPatches1.xlsx
173	patches	True	n/a	445	0	n/a	n/a	1.0	1	right	n/a	n/a	n/a	1	0.0169792099483	blockFiles/set_47/main_PD/GB_runPatches1.xlsx
174	patches	True	n/a	445	0	n/a	n/a	1.0	0	right	n/a	n/a	n/a	0	-0.0277960592136	blockFiles/set_47/main_PD/GB_runPatches1.xlsx
175	patches	True	n/a	445	0	n/a	n/a	1.0	1	right	n/a	n/a	n/a	1	0.0792435079627	blockFiles/set_47/main_PD/GB_runPatches1.xlsx
176	patches	True	n/a	445	0	n/a	n/a	0.0	1	left	n/a	n/a	n/a	0	-0.0374187120982	blockFiles/set_47/main_PD/GB_runPatches1.xlsx
177	patches	True	n/a	445	0	n/a	n/a	1.0	1	right	n/a	n/a	n/a	1	0.00655930470675	blockFiles/set_47/main_PD/GB_runPatches1.xlsx
178	patches	True	n/a	445	0	n/a	n/a	1.0	1	right	n/a	n/a	n/a	1	0.00592428037897	blockFiles/set_47/main_PD/GB_runPatches1.xlsx
179	patches	True	n/a	445	0	n/a	n/a	1.0	0	right	n/a	n/a	n/a	0	-0.0332254529744	blockFiles/set_47/main_PD/GB_runPatches1.xlsx
180	patches	True	n/a	445	0	n/a	n/a	0.0	1	left	n/a	n/a	n/a	0	-0.0593246057071	blockFiles/set_47/main_PD/GB_runPatches1.xlsx
181	patches	True	n/a	445	0	n/a	n/a	0.0	1	left	n/a	n/a	n/a	0	-0.0756367913447	blockFiles/set_47/main_PD/GB_runPatches1.xlsx
182	patches	True	n/a	445	0	n/a	n/a	0.0	1	left	n/a	n/a	n/a	0	-0.0493719931133	blockFiles/set_47/main_PD/GB_runPatches1.xlsx
183	patches	True	n/a	445	0	n/a	n/a	0.0	1	left	n/a	n/a	n/a	0	-0.0562855205499	blockFiles/set_47/main_PD/GB_runPatches1.xlsx
184	patches	True	n/a	445	0	n/a	n/a	1.0	1	right	n/a	n/a	n/a	1	0.00729832746089	blockFiles/set_47/main_PD/GB_runPatches1.xlsx
185	patches	True	n/a	445	0	n/a	n/a	1.0	0	right	n/a	n/a	n/a	0	-0.0513104142435	blockFiles/set_47/main_PD/GB_runPatches1.xlsx
186	patches	True	n/a	445	0	n/a	n/a	1.0	1	right	n/a	n/a	n/a	1	0.0337897424959	blockFiles/set_47/main_PD/GB_runPatches1.xlsx
187	patches	True	n/a	445	0	n/a	n/a	0.0	1	left	n/a	n/a	n/a	0	-0.055994789358199994	blockFiles/set_47/main_PD/GB_runPatches1.xlsx
188	patches	True	n/a	445	0	n/a	n/a	1.0	0	right	n/a	n/a	n/a	0	-0.0176295347512	blockFiles/set_47/main_PD/GB_runPatches1.xlsx
189	patches	True	n/a	445	0	n/a	n/a	1.0	1	right	n/a	n/a	n/a	1	0.023458414915900002	blockFiles/set_47/main_PD/GB_runPatches1.xlsx
190	patches	True	n/a	445	0	n/a	n/a	1.0	1	right	n/a	n/a	n/a	1	0.0704989874177	blockFiles/set_47/main_PD/GB_runPatches1.xlsx
191	patches	True	n/a	445	0	n/a	n/a	1.0	1	right	n/a	n/a	n/a	1	0.013237643186	blockFiles/set_47/main_PD/GB_runPatches1.xlsx
192	patches	True	n/a	445	0	n/a	n/a	0.0	1	left	n/a	n/a	n/a	0	-0.04259729849169999	blockFiles/set_47/main_PD/GB_runPatches1.xlsx
193	patches	True	n/a	445	0	n/a	n/a	1.0	0	right	n/a	n/a	n/a	0	-0.0474018853158	blockFiles/set_47/main_PD/GB_runPatches1.xlsx
194	patches	True	n/a	445	0	n/a	n/a	1.0	0	right	n/a	n/a	n/a	0	-0.017978510391	blockFiles/set_47/main_PD/GB_runPatches1.xlsx
195	patches	True	n/a	445	0	n/a	n/a	1.0	1	right	n/a	n/a	n/a	1	0.054691215083	blockFiles/set_47/main_PD/GB_runPatches1.xlsx
196	patches	True	n/a	445	0	n/a	n/a	1.0	1	right	n/a	n/a	n/a	1	0.029085770063099998	blockFiles/set_47/main_PD/GB_runPatches1.xlsx
197	patches	True	n/a	445	0	n/a	n/a	0.0	1	left	n/a	n/a	n/a	0	-0.079642664101	blockFiles/set_47/main_PD/GB_runPatches1.xlsx
198	patches	True	n/a	445	0	n/a	n/a	1.0	1	right	n/a	n/a	n/a	1	0.056207419820099996	blockFiles/set_47/main_PD/GB_runPatches1.xlsx
199	patches	True	n/a	445	0	n/a	n/a	1.0	0	right	n/a	n/a	n/a	0	-0.00950644513592	blockFiles/set_47/main_PD/GB_runPatches1.xlsx
200	patches	True	n/a	445	0	n/a	n/a	0.0	1	left	n/a	n/a	n/a	0	-0.0616166276485	blockFiles/set_47/main_PD/GB_runPatches1.xlsx
201	patches	True	n/a	445	0	n/a	n/a	1.0	0	right	n/a	n/a	n/a	0	-0.023065618462900003	blockFiles/set_47/main_PD/GB_runPatches1.xlsx
202	patches	True	n/a	445	0	n/a	n/a	1.0	1	right	n/a	n/a	n/a	1	0.061561719942800006	blockFiles/set_47/main_PD/GB_runPatches1.xlsx
203	patches	True	n/a	445	0	n/a	n/a	n/a	0	None	n/a	n/a	n/a	0	-0.040081318412	blockFiles/set_47/main_PD/GB_runPatches1.xlsx
204	patches	True	n/a	445	0	n/a	n/a	0.0	1	left	n/a	n/a	n/a	0	-0.040346615091	blockFiles/set_47/main_PD/GB_runPatches1.xlsx
205	patches	True	n/a	445	0	n/a	n/a	1.0	0	right	n/a	n/a	n/a	0	-0.046273707281800004	blockFiles/set_47/main_PD/GB_runPatches1.xlsx
206	patches	True	n/a	445	0	n/a	n/a	0.0	1	left	n/a	n/a	n/a	0	-0.0494546738081	blockFiles/set_47/main_PD/GB_runPatches1.xlsx
207	patches	True	n/a	445	0	n/a	n/a	1.0	1	right	n/a	n/a	n/a	1	0.0187926553376	blockFiles/set_47/main_PD/GB_runPatches1.xlsx
208	patches	True	n/a	445	0	n/a	n/a	0.0	1	left	n/a	n/a	n/a	0	-0.0333931729198	blockFiles/set_47/main_PD/GB_runPatches1.xlsx
209	patches	True	n/a	445	0	n/a	n/a	1.0	1	right	n/a	n/a	n/a	1	0.026911675483	blockFiles/set_47/main_PD/GB_runPatches1.xlsx
210	patches	True	n/a	445	0	n/a	n/a	1.0	1	right	n/a	n/a	n/a	1	0.054721152354	blockFiles/set_47/main_PD/GB_runPatches1.xlsx
211	patches	True	n/a	445	0	n/a	n/a	1.0	0	right	n/a	n/a	n/a	0	-0.0147413279116	blockFiles/set_47/main_PD/GB_runPatches1.xlsx
212	patches	True	n/a	445	0	n/a	n/a	1.0	1	right	n/a	n/a	n/a	1	0.061000962983800006	blockFiles/set_47/main_PD/GB_runPatches1.xlsx
213	patches	True	n/a	445	0	n/a	n/a	1.0	0	right	n/a	n/a	n/a	0	-0.044519890602699994	blockFiles/set_47/main_PD/GB_runPatches1.xlsx
214	patches	True	n/a	445	0	n/a	n/a	1.0	1	right	n/a	n/a	n/a	1	0.0347934431769	blockFiles/set_47/main_PD/GB_runPatches1.xlsx
215	patches	True	n/a	445	0	n/a	n/a	1.0	0	right	n/a	n/a	n/a	0	-0.0635482554696	blockFiles/set_47/main_PD/GB_runPatches1.xlsx
216	patches	True	n/a	445	0	n/a	n/a	1.0	1	right	n/a	n/a	n/a	1	0.06872696824369999	blockFiles/set_47/main_PD/GB_runPatches1.xlsx
217	patches	True	n/a	445	0	n/a	n/a	1.0	1	right	n/a	n/a	n/a	1	0.00736282341182	blockFiles/set_47/main_PD/GB_runPatches1.xlsx
218	patches	True	n/a	445	0	n/a	n/a	n/a	0	None	n/a	n/a	n/a	0	-0.023450019881099998	blockFiles/set_47/main_PD/GB_runPatches1.xlsx
219	patches	True	n/a	445	0	n/a	n/a	0.0	1	left	n/a	n/a	n/a	0	-0.0510611294955	blockFiles/set_47/main_PD/GB_runPatches1.xlsx
220	patches	True	n/a	445	0	n/a	n/a	0.0	1	left	n/a	n/a	n/a	0	-0.057969537079300006	blockFiles/set_47/main_PD/GB_runPatches1.xlsx
221	patches	True	n/a	445	0	n/a	n/a	1.0	0	right	n/a	n/a	n/a	0	-0.0288897257857	blockFiles/set_47/main_PD/GB_runPatches1.xlsx
222	patches	True	n/a	445	0	n/a	n/a	1.0	1	right	n/a	n/a	n/a	1	0.034416640400900006	blockFiles/set_47/main_PD/GB_runPatches1.xlsx
223	patches	True	n/a	445	0	n/a	n/a	1.0	0	right	n/a	n/a	n/a	0	-0.0007708606682719999	blockFiles/set_47/main_PD/GB_runPatches1.xlsx
224	patches	True	n/a	445	0	n/a	n/a	0.0	1	left	n/a	n/a	n/a	0	-0.0489656243473	blockFiles/set_47/main_PD/GB_runPatches1.xlsx
225	patches	True	n/a	445	0	n/a	n/a	1.0	0	right	n/a	n/a	n/a	0	-0.045482075382000005	blockFiles/set_47/main_PD/GB_runPatches1.xlsx
226	patches	True	n/a	445	0	n/a	n/a	1.0	1	right	n/a	n/a	n/a	1	0.0043425355665400005	blockFiles/set_47/main_PD/GB_runPatches1.xlsx
227	patches	True	n/a	445	0	n/a	n/a	0.0	0	left	n/a	n/a	n/a	1	0.0299546613917	blockFiles/set_47/main_PD/GB_runPatches1.xlsx
228	patches	True	n/a	445	0	n/a	n/a	1.0	1	right	n/a	n/a	n/a	1	0.07608320841569999	blockFiles/set_47/main_PD/GB_runPatches1.xlsx
229	patches	True	n/a	445	0	n/a	n/a	1.0	1	right	n/a	n/a	n/a	1	0.0623226256482	blockFiles/set_47/main_PD/GB_runPatches1.xlsx
230	patches	True	n/a	445	0	n/a	n/a	0.0	1	left	n/a	n/a	n/a	0	-0.0392954099365	blockFiles/set_47/main_PD/GB_runPatches1.xlsx
231	patches	True	n/a	445	0	n/a	n/a	0.0	1	left	n/a	n/a	n/a	0	-0.055450410489	blockFiles/set_47/main_PD/GB_runPatches1.xlsx
232	patches	True	n/a	445	0	n/a	n/a	1.0	0	right	n/a	n/a	n/a	0	-0.0069617446698199996	blockFiles/set_47/main_PD/GB_runPatches1.xlsx
233	patches	True	n/a	445	0	n/a	n/a	0.0	0	left	n/a	n/a	n/a	1	0.00695832738653	blockFiles/set_47/main_PD/GB_runPatches1.xlsx
234	patches	True	n/a	445	0	n/a	n/a	1.0	1	right	n/a	n/a	n/a	1	0.0628215502948	blockFiles/set_47/main_PD/GB_runPatches1.xlsx
235	patches	True	n/a	445	0	n/a	n/a	1.0	1	right	n/a	n/a	n/a	1	0.0618834343925	blockFiles/set_47/main_PD/GB_runPatches1.xlsx
236	patches	True	n/a	445	0	n/a	n/a	1.0	0	right	n/a	n/a	n/a	0	-0.00821365432814	blockFiles/set_47/main_PD/GB_runPatches1.xlsx
237	patches	True	n/a	445	0	n/a	n/a	1.0	0	right	n/a	n/a	n/a	0	-0.0179959690943	blockFiles/set_47/main_PD/GB_runPatches1.xlsx
238	patches	True	n/a	445	0	n/a	n/a	0.0	1	left	n/a	n/a	n/a	0	-0.0555799511448	blockFiles/set_47/main_PD/GB_runPatches1.xlsx
239	patches	True	n/a	445	0	n/a	n/a	0.0	1	left	n/a	n/a	n/a	0	-0.0224381107464	blockFiles/set_47/main_PD/GB_runPatches1.xlsx
240	patches	True	n/a	445	0	n/a	n/a	0.0	1	left	n/a	n/a	n/a	0	-0.0069631750136600005	blockFiles/set_47/main_PD/GB_runPatches1.xlsx
241	patches	True	n/a	445	0	n/a	n/a	1.0	1	right	n/a	n/a	n/a	1	0.07385243956	blockFiles/set_47/main_PD/GB_runPatches1.xlsx
242	patches	True	n/a	445	0	n/a	n/a	1.0	0	right	n/a	n/a	n/a	0	-0.0393741706759	blockFiles/set_47/main_PD/GB_runPatches1.xlsx
243	patches	True	n/a	445	0	n/a	n/a	1.0	1	right	n/a	n/a	n/a	1	0.034400704391300004	blockFiles/set_47/main_PD/GB_runPatches1.xlsx
244	patches	True	n/a	445	0	n/a	n/a	1.0	1	right	n/a	n/a	n/a	1	0.0716725295223	blockFiles/set_47/main_PD/GB_runPatches1.xlsx
245	patches	True	n/a	445	0	n/a	n/a	1.0	1	right	n/a	n/a	n/a	1	0.0424594743922	blockFiles/set_47/main_PD/GB_runPatches1.xlsx
246	patches	True	n/a	445	0	n/a	n/a	1.0	1	right	n/a	n/a	n/a	1	0.0205638379231	blockFiles/set_47/main_PD/GB_runPatches1.xlsx
247	patches	True	n/a	445	0	n/a	n/a	1.0	0	right	n/a	n/a	n/a	0	-0.0335773451254	blockFiles/set_47/main_PD/GB_runPatches1.xlsx
248	patches	True	n/a	445	0	n/a	n/a	1.0	0	right	n/a	n/a	n/a	0	-0.027226686161	blockFiles/set_47/main_PD/GB_runPatches1.xlsx
249	patches	True	n/a	445	0	n/a	n/a	1.0	1	right	n/a	n/a	n/a	1	0.0313801844232	blockFiles/set_47/main_PD/GB_runPatches1.xlsx
250	patches	True	n/a	445	0	n/a	n/a	0.0	1	left	n/a	n/a	n/a	0	-0.023180866837499998	blockFiles/set_47/main_PD/GB_runPatches1.xlsx
251	main_unc	True	0.0	445	0	0.0	0.0	1.0	1	right	1.0	1.0	1.0	1	0.0304716291837	blockFiles/set_47/main_unc/leftBlue\GB_LB_2.xlsx
252	main_unc	True	0.0	445	0	0.0	0.0	1.0	1	right	1.0	1.0	1.0	1	0.0176862627827	blockFiles/set_47/main_unc/leftBlue\GB_LB_2.xlsx
253	main_unc	True	0.0	445	0	0.0	0.0	0.0	1	left	2.0	1.0	1.0	0	-0.063625007011	blockFiles/set_47/main_unc/leftBlue\GB_LB_2.xlsx
254	main_unc	True	0.0	445	0	0.0	0.0	0.0	1	left	2.0	1.0	1.0	0	-0.0555911447667	blockFiles/set_47/main_unc/leftBlue\GB_LB_2.xlsx
255	main_unc	True	0.0	445	0	0.0	0.0	1.0	1	right	1.0	0.0	1.0	1	0.0638471959531	blockFiles/set_47/main_unc/leftBlue\GB_LB_2.xlsx
256	main_unc	True	0.0	445	0	0.0	0.0	1.0	0	right	2.0	1.0	1.0	0	-0.031712999325200004	blockFiles/set_47/main_unc/leftBlue\GB_LB_2.xlsx
257	main_unc	True	0.0	445	0	0.0	0.0	1.0	1	right	1.0	1.0	1.0	1	0.0332896457613	blockFiles/set_47/main_unc/leftBlue\GB_LB_2.xlsx
258	main_unc	True	0.0	445	0	0.0	0.0	0.0	1	left	2.0	0.0	1.0	0	-0.0708860873058	blockFiles/set_47/main_unc/leftBlue\GB_LB_2.xlsx
259	main_unc	True	0.0	445	0	0.0	0.0	1.0	1	right	1.0	1.0	1.0	1	0.0580308191292	blockFiles/set_47/main_unc/leftBlue\GB_LB_2.xlsx
260	main_unc	True	1.0	445	0	0.0	0.0	n/a	0	None	n/a	0.0	n/a	1	0.012786002215	blockFiles/set_47/main_unc/leftBlue\GB_LB_2.xlsx
261	main_unc	True	0.0	445	0	0.0	0.0	0.0	1	left	2.0	1.0	1.0	0	-0.0437273769639	blockFiles/set_47/main_unc/leftBlue\GB_LB_2.xlsx
262	main_unc	True	0.0	445	0	0.0	0.0	0.0	1	left	2.0	1.0	1.0	0	-0.0173691141792	blockFiles/set_47/main_unc/leftBlue\GB_LB_2.xlsx
263	main_unc	True	0.0	445	0	0.0	0.0	0.0	1	left	2.0	1.0	1.0	0	-0.052788185290999996	blockFiles/set_47/main_unc/leftBlue\GB_LB_2.xlsx
264	main_unc	True	0.0	445	0	0.0	0.0	0.0	1	left	2.0	1.0	1.0	0	-0.0769832027517	blockFiles/set_47/main_unc/leftBlue\GB_LB_2.xlsx
265	main_unc	True	0.0	445	0	0.0	0.0	1.0	1	right	1.0	1.0	1.0	1	0.0482317440584	blockFiles/set_47/main_unc/leftBlue\GB_LB_2.xlsx
266	main_unc	True	0.0	445	0	0.0	0.0	1.0	1	right	1.0	1.0	1.0	1	0.031019547414000002	blockFiles/set_47/main_unc/leftBlue\GB_LB_2.xlsx
267	main_unc	True	0.0	445	0	0.0	0.0	0.0	1	left	2.0	1.0	1.0	0	-0.0492628335953	blockFiles/set_47/main_unc/leftBlue\GB_LB_2.xlsx
268	main_unc	True	0.0	445	0	0.0	0.0	1.0	1	right	1.0	0.0	1.0	1	0.0394124913774	blockFiles/set_47/main_unc/leftBlue\GB_LB_2.xlsx
269	main_unc	True	0.0	445	0	0.0	0.0	1.0	1	right	1.0	1.0	1.0	1	0.0428318911046	blockFiles/set_47/main_unc/leftBlue\GB_LB_2.xlsx
270	main_unc	True	0.0	445	0	0.0	0.0	0.0	1	left	2.0	1.0	1.0	0	-0.013231381773899998	blockFiles/set_47/main_unc/leftBlue\GB_LB_2.xlsx
271	main_unc	True	0.0	445	0	0.0	0.0	1.0	0	right	1.0	0.0	0.0	0	-0.0172370208241	blockFiles/set_47/main_unc/leftBlue\GB_LB_2.xlsx
272	main_unc	True	0.0	445	0	0.0	0.0	1.0	1	right	1.0	1.0	1.0	1	0.0726686607301	blockFiles/set_47/main_unc/leftBlue\GB_LB_2.xlsx
273	main_unc	True	0.0	445	0	0.0	0.0	0.0	0	left	2.0	0.0	0.0	1	0.00216403260827	blockFiles/set_47/main_unc/leftBlue\GB_LB_2.xlsx
274	main_unc	True	0.0	445	0	0.0	0.0	1.0	1	right	1.0	1.0	1.0	1	0.04805600445719999	blockFiles/set_47/main_unc/leftBlue\GB_LB_2.xlsx
275	main_unc	True	0.0	445	0	0.0	0.0	0.0	1	left	2.0	0.0	1.0	0	-0.054241825025500005	blockFiles/set_47/main_unc/leftBlue\GB_LB_2.xlsx
276	main_unc	True	0.0	445	0	0.0	0.0	1.0	1	right	2.0	0.0	0.0	1	0.012786002215	blockFiles/set_47/main_unc/leftBlue\GB_LB_2.xlsx
277	main_unc	True	0.0	445	0	1.0	1.0	1.0	0	right	2.0	1.0	1.0	0	-0.00574226662517	blockFiles/set_47/main_unc/leftBlue\GB_LB_5.xlsx
278	main_unc	True	0.0	445	0	1.0	1.0	1.0	1	right	2.0	0.0	0.0	1	0.0555308558419	blockFiles/set_47/main_unc/leftBlue\GB_LB_5.xlsx
279	main_unc	True	0.0	445	0	1.0	1.0	0.0	1	left	1.0	0.0	0.0	0	-0.07058310341089999	blockFiles/set_47/main_unc/leftBlue\GB_LB_5.xlsx
280	main_unc	True	0.0	445	0	1.0	1.0	0.0	1	left	1.0	0.0	0.0	0	-0.053622964490199994	blockFiles/set_47/main_unc/leftBlue\GB_LB_5.xlsx
281	main_unc	True	0.0	445	0	1.0	1.0	1.0	1	right	1.0	1.0	1.0	1	0.014054809156799998	blockFiles/set_47/main_unc/leftBlue\GB_LB_5.xlsx
282	main_unc	True	0.0	445	0	1.0	1.0	0.0	1	left	2.0	1.0	1.0	0	-0.0383436285891	blockFiles/set_47/main_unc/leftBlue\GB_LB_5.xlsx
283	main_unc	True	0.0	445	0	1.0	1.0	1.0	0	right	2.0	1.0	1.0	0	-0.0444491798058	blockFiles/set_47/main_unc/leftBlue\GB_LB_5.xlsx
284	main_unc	True	0.0	445	0	1.0	1.0	1.0	1	right	2.0	1.0	0.0	1	0.039233376830800006	blockFiles/set_47/main_unc/leftBlue\GB_LB_5.xlsx
285	main_unc	True	0.0	445	0	1.0	1.0	1.0	1	right	2.0	0.0	0.0	1	0.035068448577099995	blockFiles/set_47/main_unc/leftBlue\GB_LB_5.xlsx
286	main_unc	True	0.0	445	0	1.0	1.0	1.0	1	right	2.0	0.0	0.0	1	0.060412183571600005	blockFiles/set_47/main_unc/leftBlue\GB_LB_5.xlsx
287	main_unc	True	0.0	445	0	1.0	1.0	0.0	1	left	1.0	0.0	0.0	0	-0.0426278276183	blockFiles/set_47/main_unc/leftBlue\GB_LB_5.xlsx
288	main_unc	True	0.0	445	0	1.0	1.0	1.0	1	right	2.0	0.0	0.0	1	0.061995077971400005	blockFiles/set_47/main_unc/leftBlue\GB_LB_5.xlsx
289	main_unc	True	0.0	445	0	1.0	1.0	1.0	1	right	1.0	1.0	1.0	1	0.00426186570898	blockFiles/set_47/main_unc/leftBlue\GB_LB_5.xlsx
290	main_unc	True	0.0	445	0	1.0	1.0	0.0	1	left	2.0	1.0	1.0	0	-0.0731533953361	blockFiles/set_47/main_unc/leftBlue\GB_LB_5.xlsx
291	main_unc	True	0.0	445	0	1.0	1.0	1.0	1	right	1.0	1.0	1.0	1	0.0261014886387	blockFiles/set_47/main_unc/leftBlue\GB_LB_5.xlsx
292	main_unc	True	0.0	445	0	1.0	1.0	1.0	1	right	1.0	0.0	1.0	1	0.022682367879900002	blockFiles/set_47/main_unc/leftBlue\GB_LB_5.xlsx
293	main_unc	True	0.0	445	0	1.0	1.0	1.0	1	right	1.0	1.0	1.0	1	0.024661491755400004	blockFiles/set_47/main_unc/leftBlue\GB_LB_5.xlsx
294	main_unc	True	1.0	445	0	1.0	1.0	n/a	0	None	n/a	0.0	n/a	0	-0.008617229405790001	blockFiles/set_47/main_unc/leftBlue\GB_LB_5.xlsx
295	main_unc	True	0.0	445	0	1.0	1.0	0.0	1	left	2.0	1.0	1.0	0	-0.0518459411711	blockFiles/set_47/main_unc/leftBlue\GB_LB_5.xlsx
296	main_unc	True	0.0	445	0	1.0	1.0	0.0	0	left	1.0	1.0	1.0	1	0.033044848274400004	blockFiles/set_47/main_unc/leftBlue\GB_LB_5.xlsx
297	main_unc	True	0.0	445	0	1.0	1.0	1.0	1	right	1.0	0.0	1.0	1	0.07458828745410001	blockFiles/set_47/main_unc/leftBlue\GB_LB_5.xlsx
298	main_unc	True	0.0	445	0	1.0	1.0	1.0	1	right	1.0	1.0	1.0	1	0.0299934857339	blockFiles/set_47/main_unc/leftBlue\GB_LB_5.xlsx
299	main_unc	True	0.0	445	0	1.0	1.0	1.0	0	right	2.0	1.0	1.0	0	-0.018892381880400003	blockFiles/set_47/main_unc/leftBlue\GB_LB_5.xlsx
300	main_unc	True	0.0	445	0	1.0	1.0	0.0	1	left	2.0	1.0	1.0	0	-0.00661447629333	blockFiles/set_47/main_unc/leftBlue\GB_LB_5.xlsx
301	main_unc	True	0.0	445	0	1.0	1.0	1.0	1	right	1.0	1.0	1.0	1	0.0634233112447	blockFiles/set_47/main_unc/leftBlue\GB_LB_5.xlsx
302	main_unc	True	0.0	445	0	1.0	1.0	0.0	1	left	2.0	1.0	1.0	0	-0.008617229405790001	blockFiles/set_47/main_unc/leftBlue\GB_LB_5.xlsx
303	main_unc	True	0.0	445	0	2.0	2.0	1.0	1	right	2.0	1.0	1.0	1	0.0175117036887	blockFiles/set_47/main_unc/rightBlue\GB_RB_4.xlsx
304	main_unc	True	0.0	445	0	2.0	2.0	0.0	1	left	1.0	1.0	1.0	0	-0.0445638269931	blockFiles/set_47/main_unc/rightBlue\GB_RB_4.xlsx
305	main_unc	True	0.0	445	0	2.0	2.0	0.0	1	left	1.0	1.0	1.0	0	-0.037054600324499996	blockFiles/set_47/main_unc/rightBlue\GB_RB_4.xlsx
306	main_unc	True	0.0	445	0	2.0	2.0	0.0	1	left	1.0	1.0	1.0	0	-0.0710642071813	blockFiles/set_47/main_unc/rightBlue\GB_RB_4.xlsx
307	main_unc	True	0.0	445	0	2.0	2.0	1.0	1	right	2.0	1.0	1.0	1	0.0161602276936	blockFiles/set_47/main_unc/rightBlue\GB_RB_4.xlsx
308	main_unc	True	0.0	445	0	2.0	2.0	1.0	1	right	2.0	1.0	1.0	1	0.0275956898928	blockFiles/set_47/main_unc/rightBlue\GB_RB_4.xlsx
309	main_unc	True	0.0	445	0	2.0	2.0	1.0	1	right	2.0	0.0	1.0	1	0.055355761125699995	blockFiles/set_47/main_unc/rightBlue\GB_RB_4.xlsx
310	main_unc	True	0.0	445	0	2.0	2.0	1.0	1	right	2.0	1.0	1.0	1	0.006618030332029999	blockFiles/set_47/main_unc/rightBlue\GB_RB_4.xlsx
311	main_unc	True	0.0	445	0	2.0	2.0	1.0	1	right	2.0	1.0	1.0	1	0.0619561912306	blockFiles/set_47/main_unc/rightBlue\GB_RB_4.xlsx
312	main_unc	True	0.0	445	0	2.0	2.0	0.0	1	left	1.0	1.0	1.0	0	-0.0761453627422	blockFiles/set_47/main_unc/rightBlue\GB_RB_4.xlsx
313	main_unc	True	0.0	445	0	2.0	2.0	1.0	1	right	1.0	0.0	0.0	1	0.00319606777281	blockFiles/set_47/main_unc/rightBlue\GB_RB_4.xlsx
314	main_unc	True	0.0	445	0	2.0	2.0	0.0	1	left	1.0	1.0	1.0	0	-0.057398858647800005	blockFiles/set_47/main_unc/rightBlue\GB_RB_4.xlsx
315	main_unc	True	0.0	445	0	2.0	2.0	0.0	0	left	2.0	1.0	1.0	1	0.028553466573400004	blockFiles/set_47/main_unc/rightBlue\GB_RB_4.xlsx
316	main_unc	True	0.0	445	0	2.0	2.0	1.0	1	right	2.0	1.0	1.0	1	0.07853760853410001	blockFiles/set_47/main_unc/rightBlue\GB_RB_4.xlsx
317	main_unc	True	0.0	445	0	2.0	2.0	0.0	1	left	1.0	1.0	1.0	0	-0.056903403420000005	blockFiles/set_47/main_unc/rightBlue\GB_RB_4.xlsx
318	main_unc	True	0.0	445	0	2.0	2.0	0.0	1	left	1.0	1.0	1.0	0	-0.017476130854299998	blockFiles/set_47/main_unc/rightBlue\GB_RB_4.xlsx
319	main_unc	True	0.0	445	0	2.0	2.0	1.0	1	right	2.0	1.0	1.0	1	0.0165986319445	blockFiles/set_47/main_unc/rightBlue\GB_RB_4.xlsx
320	main_unc	True	0.0	445	0	2.0	2.0	1.0	1	right	2.0	0.0	1.0	1	0.07081948522480001	blockFiles/set_47/main_unc/rightBlue\GB_RB_4.xlsx
321	main_unc	True	0.0	445	0	2.0	2.0	1.0	1	right	2.0	1.0	1.0	1	0.0396703882143	blockFiles/set_47/main_unc/rightBlue\GB_RB_4.xlsx
322	main_unc	True	0.0	445	0	2.0	2.0	1.0	1	right	2.0	0.0	1.0	1	0.0271580822952	blockFiles/set_47/main_unc/rightBlue\GB_RB_4.xlsx
323	main_unc	True	0.0	445	0	2.0	2.0	1.0	1	right	2.0	1.0	1.0	1	0.019891481399499998	blockFiles/set_47/main_unc/rightBlue\GB_RB_4.xlsx
324	main_unc	True	0.0	445	0	2.0	2.0	1.0	0	right	1.0	1.0	1.0	0	-0.025391719900099998	blockFiles/set_47/main_unc/rightBlue\GB_RB_4.xlsx
325	main_unc	True	0.0	445	0	2.0	2.0	0.0	1	left	1.0	0.0	1.0	0	-0.057815382983499995	blockFiles/set_47/main_unc/rightBlue\GB_RB_4.xlsx
326	main_unc	True	0.0	445	0	2.0	2.0	0.0	1	left	1.0	1.0	1.0	0	-0.0751471885666	blockFiles/set_47/main_unc/rightBlue\GB_RB_4.xlsx
327	main_unc	True	0.0	445	0	2.0	2.0	0.0	1	left	1.0	0.0	1.0	0	-0.0171540694684	blockFiles/set_47/main_unc/rightBlue\GB_RB_4.xlsx
328	main_unc	True	0.0	445	0	3.0	3.0	1.0	1	right	1.0	1.0	1.0	1	0.0464226214215	blockFiles/set_47/main_unc/leftBlue\GB_LB_6.xlsx
329	main_unc	True	0.0	445	0	3.0	3.0	1.0	1	right	1.0	1.0	1.0	1	0.0289819887653	blockFiles/set_47/main_unc/leftBlue\GB_LB_6.xlsx
330	main_unc	True	0.0	445	0	3.0	3.0	0.0	1	left	2.0	1.0	1.0	0	-0.0497188522853	blockFiles/set_47/main_unc/leftBlue\GB_LB_6.xlsx
331	main_unc	True	0.0	445	0	3.0	3.0	0.0	1	left	2.0	1.0	1.0	0	-0.00369100470096	blockFiles/set_47/main_unc/leftBlue\GB_LB_6.xlsx
332	main_unc	True	0.0	445	0	3.0	3.0	1.0	1	right	1.0	0.0	1.0	1	0.07957275958730001	blockFiles/set_47/main_unc/leftBlue\GB_LB_6.xlsx
333	main_unc	True	0.0	445	0	3.0	3.0	1.0	1	right	1.0	1.0	1.0	1	0.048352486714699994	blockFiles/set_47/main_unc/leftBlue\GB_LB_6.xlsx
334	main_unc	True	0.0	445	0	3.0	3.0	0.0	0	left	2.0	0.0	0.0	1	0.006830755472180001	blockFiles/set_47/main_unc/leftBlue\GB_LB_6.xlsx
335	main_unc	True	0.0	445	0	3.0	3.0	1.0	0	right	1.0	1.0	0.0	0	-0.00839321939275	blockFiles/set_47/main_unc/leftBlue\GB_LB_6.xlsx
336	main_unc	True	0.0	445	0	3.0	3.0	1.0	1	right	1.0	1.0	1.0	1	0.023484488278600002	blockFiles/set_47/main_unc/leftBlue\GB_LB_6.xlsx
337	main_unc	True	0.0	445	0	3.0	3.0	0.0	1	left	2.0	1.0	1.0	0	-0.0796702560596	blockFiles/set_47/main_unc/leftBlue\GB_LB_6.xlsx
338	main_unc	True	0.0	445	0	3.0	3.0	0.0	1	left	2.0	1.0	1.0	0	-0.028284155819599997	blockFiles/set_47/main_unc/leftBlue\GB_LB_6.xlsx
339	main_unc	True	0.0	445	0	3.0	3.0	0.0	1	left	2.0	1.0	1.0	0	-0.0737847164832	blockFiles/set_47/main_unc/leftBlue\GB_LB_6.xlsx
340	main_unc	True	0.0	445	0	3.0	3.0	0.0	1	left	2.0	0.0	1.0	0	-0.026513330359	blockFiles/set_47/main_unc/leftBlue\GB_LB_6.xlsx
341	main_unc	True	0.0	445	0	3.0	3.0	1.0	1	right	1.0	1.0	1.0	1	0.0337247843295	blockFiles/set_47/main_unc/leftBlue\GB_LB_6.xlsx
342	main_unc	True	0.0	445	0	3.0	3.0	1.0	1	right	1.0	0.0	1.0	1	0.0324541335739	blockFiles/set_47/main_unc/leftBlue\GB_LB_6.xlsx
343	main_unc	True	0.0	445	0	3.0	3.0	1.0	1	right	1.0	0.0	1.0	1	0.0332907546684	blockFiles/set_47/main_unc/leftBlue\GB_LB_6.xlsx
344	main_unc	True	0.0	445	0	3.0	3.0	1.0	1	right	1.0	1.0	1.0	1	0.00930423785001	blockFiles/set_47/main_unc/leftBlue\GB_LB_6.xlsx
345	main_unc	True	0.0	445	0	3.0	3.0	0.0	1	left	2.0	1.0	1.0	0	-0.0391011713631	blockFiles/set_47/main_unc/leftBlue\GB_LB_6.xlsx
346	main_unc	True	0.0	445	0	3.0	3.0	0.0	1	left	2.0	1.0	1.0	0	-0.0287106319889	blockFiles/set_47/main_unc/leftBlue\GB_LB_6.xlsx
347	main_unc	True	0.0	445	0	3.0	3.0	0.0	1	left	2.0	1.0	1.0	0	-0.0416444974393	blockFiles/set_47/main_unc/leftBlue\GB_LB_6.xlsx
348	main_unc	True	0.0	445	0	3.0	3.0	0.0	1	left	2.0	0.0	1.0	0	-0.0731322412007	blockFiles/set_47/main_unc/leftBlue\GB_LB_6.xlsx
349	main_unc	True	0.0	445	0	3.0	3.0	1.0	1	right	1.0	1.0	1.0	1	0.0407035216317	blockFiles/set_47/main_unc/leftBlue\GB_LB_6.xlsx
350	main_unc	True	0.0	445	0	3.0	3.0	1.0	1	right	1.0	1.0	1.0	1	0.032096049133700004	blockFiles/set_47/main_unc/leftBlue\GB_LB_6.xlsx
351	main_unc	True	0.0	445	0	3.0	3.0	0.0	1	left	2.0	1.0	1.0	0	-0.028813126943999998	blockFiles/set_47/main_unc/leftBlue\GB_LB_6.xlsx
352	main_unc	True	0.0	445	0	3.0	3.0	1.0	1	right	1.0	1.0	1.0	1	0.049872835185400005	blockFiles/set_47/main_unc/leftBlue\GB_LB_6.xlsx
353	main_unc	True	0.0	445	0	4.0	4.0	1.0	1	right	1.0	1.0	1.0	1	0.0659440805204	blockFiles/set_47/main_unc/leftBlue\GB_LB_3.xlsx
354	main_unc	True	0.0	445	0	4.0	4.0	0.0	1	left	2.0	1.0	1.0	0	-0.0578020400368	blockFiles/set_47/main_unc/leftBlue\GB_LB_3.xlsx
355	main_unc	True	0.0	445	0	4.0	4.0	1.0	1	right	1.0	1.0	1.0	1	0.052366775777199996	blockFiles/set_47/main_unc/leftBlue\GB_LB_3.xlsx
356	main_unc	True	0.0	445	0	4.0	4.0	1.0	1	right	2.0	0.0	0.0	1	0.0108173268288	blockFiles/set_47/main_unc/leftBlue\GB_LB_3.xlsx
357	main_unc	True	0.0	445	0	4.0	4.0	0.0	1	left	2.0	1.0	1.0	0	-0.0475860876963	blockFiles/set_47/main_unc/leftBlue\GB_LB_3.xlsx
358	main_unc	True	0.0	445	0	4.0	4.0	0.0	0	left	1.0	0.0	1.0	1	0.0153384236433	blockFiles/set_47/main_unc/leftBlue\GB_LB_3.xlsx
359	main_unc	True	0.0	445	0	4.0	4.0	1.0	1	right	1.0	1.0	1.0	1	0.0743529631943	blockFiles/set_47/main_unc/leftBlue\GB_LB_3.xlsx
360	main_unc	True	0.0	445	0	4.0	4.0	1.0	1	right	1.0	1.0	1.0	1	0.015124622657899999	blockFiles/set_47/main_unc/leftBlue\GB_LB_3.xlsx
361	main_unc	True	0.0	445	0	4.0	4.0	1.0	1	right	1.0	1.0	1.0	1	0.0707666387595	blockFiles/set_47/main_unc/leftBlue\GB_LB_3.xlsx
362	main_unc	True	0.0	445	0	4.0	4.0	0.0	1	left	2.0	1.0	1.0	0	-0.0462861726619	blockFiles/set_47/main_unc/leftBlue\GB_LB_3.xlsx
363	main_unc	True	0.0	445	0	4.0	4.0	0.0	1	left	2.0	0.0	1.0	0	-0.0131037141383	blockFiles/set_47/main_unc/leftBlue\GB_LB_3.xlsx
364	main_unc	True	0.0	445	0	4.0	4.0	1.0	1	right	1.0	1.0	1.0	1	0.0270107325539	blockFiles/set_47/main_unc/leftBlue\GB_LB_3.xlsx
365	main_unc	True	0.0	445	0	4.0	4.0	1.0	1	right	1.0	0.0	1.0	1	0.047582546323499994	blockFiles/set_47/main_unc/leftBlue\GB_LB_3.xlsx
366	main_unc	True	0.0	445	0	4.0	4.0	1.0	1	right	1.0	1.0	1.0	1	0.035626853928	blockFiles/set_47/main_unc/leftBlue\GB_LB_3.xlsx
367	main_unc	True	0.0	445	0	4.0	4.0	0.0	1	left	2.0	1.0	1.0	0	-0.0353055884689	blockFiles/set_47/main_unc/leftBlue\GB_LB_3.xlsx
368	main_unc	True	0.0	445	0	4.0	4.0	0.0	1	left	2.0	1.0	1.0	0	-0.0336288457923	blockFiles/set_47/main_unc/leftBlue\GB_LB_3.xlsx
369	main_unc	True	0.0	445	0	4.0	4.0	0.0	1	left	2.0	1.0	1.0	0	-0.058325721118599995	blockFiles/set_47/main_unc/leftBlue\GB_LB_3.xlsx
370	main_unc	True	0.0	445	0	4.0	4.0	1.0	1	right	1.0	1.0	1.0	1	0.0693372792378	blockFiles/set_47/main_unc/leftBlue\GB_LB_3.xlsx
371	main_unc	True	0.0	445	0	4.0	4.0	0.0	1	left	2.0	1.0	1.0	0	-0.04005046078940001	blockFiles/set_47/main_unc/leftBlue\GB_LB_3.xlsx
372	main_unc	True	0.0	445	0	4.0	4.0	1.0	1	right	1.0	0.0	1.0	1	0.0320932519808	blockFiles/set_47/main_unc/leftBlue\GB_LB_3.xlsx
373	main_unc	True	0.0	445	0	4.0	4.0	0.0	1	left	2.0	0.0	1.0	0	-0.0070150754228199995	blockFiles/set_47/main_unc/leftBlue\GB_LB_3.xlsx
374	main_unc	True	0.0	445	0	4.0	4.0	1.0	0	right	1.0	0.0	0.0	0	-0.004347003120930001	blockFiles/set_47/main_unc/leftBlue\GB_LB_3.xlsx
375	main_unc	True	0.0	445	0	4.0	4.0	0.0	1	left	2.0	1.0	1.0	0	-0.07898795228450001	blockFiles/set_47/main_unc/leftBlue\GB_LB_3.xlsx
376	main_unc	True	0.0	445	0	4.0	4.0	0.0	1	left	2.0	1.0	1.0	0	-0.00346433164552	blockFiles/set_47/main_unc/leftBlue\GB_LB_3.xlsx
377	main_unc	True	0.0	445	0	4.0	4.0	0.0	0	left	1.0	1.0	1.0	1	0.0609333318286	blockFiles/set_47/main_unc/leftBlue\GB_LB_3.xlsx
378	main_unc	True	0.0	445	0	5.0	5.0	1.0	1	right	2.0	1.0	1.0	1	0.0706891468354	blockFiles/set_47/main_unc/rightBlue\GB_RB_6.xlsx
379	main_unc	True	0.0	445	0	5.0	5.0	0.0	1	left	1.0	1.0	1.0	0	-0.0311248804256	blockFiles/set_47/main_unc/rightBlue\GB_RB_6.xlsx
380	main_unc	True	0.0	445	0	5.0	5.0	0.0	1	left	2.0	1.0	0.0	0	-0.010554339215200001	blockFiles/set_47/main_unc/rightBlue\GB_RB_6.xlsx
381	main_unc	True	0.0	445	0	5.0	5.0	0.0	1	left	1.0	1.0	1.0	0	-0.054700863640800006	blockFiles/set_47/main_unc/rightBlue\GB_RB_6.xlsx
382	main_unc	True	0.0	445	0	5.0	5.0	0.0	1	left	1.0	0.0	1.0	0	-0.009083580151200001	blockFiles/set_47/main_unc/rightBlue\GB_RB_6.xlsx
383	main_unc	True	0.0	445	0	5.0	5.0	1.0	1	right	2.0	1.0	1.0	1	0.0772127510048	blockFiles/set_47/main_unc/rightBlue\GB_RB_6.xlsx
384	main_unc	True	0.0	445	0	5.0	5.0	1.0	1	right	2.0	1.0	1.0	1	0.0652433782071	blockFiles/set_47/main_unc/rightBlue\GB_RB_6.xlsx
385	main_unc	True	0.0	445	0	5.0	5.0	1.0	1	right	2.0	1.0	1.0	1	0.0411852974631	blockFiles/set_47/main_unc/rightBlue\GB_RB_6.xlsx
386	main_unc	True	0.0	445	0	5.0	5.0	1.0	1	right	2.0	1.0	1.0	1	0.0242651597783	blockFiles/set_47/main_unc/rightBlue\GB_RB_6.xlsx
387	main_unc	True	0.0	445	0	5.0	5.0	0.0	1	left	1.0	1.0	1.0	0	-0.012078294977500001	blockFiles/set_47/main_unc/rightBlue\GB_RB_6.xlsx
388	main_unc	True	0.0	445	0	5.0	5.0	0.0	1	left	1.0	1.0	1.0	0	-0.0247626088373	blockFiles/set_47/main_unc/rightBlue\GB_RB_6.xlsx
389	main_unc	True	0.0	445	0	5.0	5.0	1.0	1	right	2.0	1.0	1.0	1	0.0465996301733	blockFiles/set_47/main_unc/rightBlue\GB_RB_6.xlsx
390	main_unc	True	0.0	445	0	5.0	5.0	0.0	1	left	1.0	1.0	1.0	0	-0.0569640435651	blockFiles/set_47/main_unc/rightBlue\GB_RB_6.xlsx
391	main_unc	True	0.0	445	0	5.0	5.0	0.0	0	left	1.0	1.0	0.0	1	0.0126187799498	blockFiles/set_47/main_unc/rightBlue\GB_RB_6.xlsx
392	main_unc	True	0.0	445	0	5.0	5.0	1.0	1	right	2.0	0.0	1.0	1	0.0338108247332	blockFiles/set_47/main_unc/rightBlue\GB_RB_6.xlsx
393	main_unc	True	0.0	445	0	5.0	5.0	0.0	1	left	1.0	1.0	1.0	0	-0.033638048712200004	blockFiles/set_47/main_unc/rightBlue\GB_RB_6.xlsx
394	main_unc	True	0.0	445	0	5.0	5.0	0.0	1	left	1.0	1.0	1.0	0	-0.0684204201773	blockFiles/set_47/main_unc/rightBlue\GB_RB_6.xlsx
395	main_unc	True	0.0	445	0	5.0	5.0	0.0	1	left	1.0	1.0	1.0	0	-0.056581028811599994	blockFiles/set_47/main_unc/rightBlue\GB_RB_6.xlsx
396	main_unc	True	0.0	445	0	5.0	5.0	0.0	1	left	1.0	1.0	1.0	0	-0.0579448122531	blockFiles/set_47/main_unc/rightBlue\GB_RB_6.xlsx
397	main_unc	True	0.0	445	0	5.0	5.0	0.0	1	left	1.0	1.0	1.0	0	-0.009441423844549999	blockFiles/set_47/main_unc/rightBlue\GB_RB_6.xlsx
398	main_unc	True	0.0	445	0	5.0	5.0	1.0	0	right	2.0	0.0	0.0	0	-0.000491054430604	blockFiles/set_47/main_unc/rightBlue\GB_RB_6.xlsx
399	main_unc	True	0.0	445	0	5.0	5.0	1.0	1	right	2.0	1.0	1.0	1	0.0688416494988	blockFiles/set_47/main_unc/rightBlue\GB_RB_6.xlsx
400	main_unc	True	0.0	445	0	5.0	5.0	1.0	1	right	2.0	1.0	1.0	1	0.0455063684471	blockFiles/set_47/main_unc/rightBlue\GB_RB_6.xlsx
401	main_unc	True	0.0	445	0	5.0	5.0	0.0	1	left	1.0	1.0	1.0	0	-0.0528346897848	blockFiles/set_47/main_unc/rightBlue\GB_RB_6.xlsx
402	main_unc	True	0.0	445	0	5.0	5.0	0.0	0	left	2.0	0.0	1.0	1	0.0076033169403699995	blockFiles/set_47/main_unc/rightBlue\GB_RB_6.xlsx
403	main_unc	True	0.0	445	0	6.0	6.0	1.0	1	right	2.0	1.0	1.0	1	0.0217702933028	blockFiles/set_47/main_unc/rightBlue\GB_RB_1.xlsx
404	main_unc	True	0.0	445	0	6.0	6.0	0.0	1	left	1.0	1.0	1.0	0	-0.0337020908482	blockFiles/set_47/main_unc/rightBlue\GB_RB_1.xlsx
405	main_unc	True	0.0	445	0	6.0	6.0	1.0	1	right	2.0	0.0	1.0	1	0.047817373722800004	blockFiles/set_47/main_unc/rightBlue\GB_RB_1.xlsx
406	main_unc	True	0.0	445	0	6.0	6.0	1.0	1	right	2.0	1.0	1.0	1	0.06638134554030001	blockFiles/set_47/main_unc/rightBlue\GB_RB_1.xlsx
407	main_unc	True	0.0	445	0	6.0	6.0	1.0	1	right	2.0	0.0	1.0	1	0.05946787212040001	blockFiles/set_47/main_unc/rightBlue\GB_RB_1.xlsx
408	main_unc	True	0.0	445	0	6.0	6.0	0.0	1	left	1.0	1.0	1.0	0	-0.00688876884058	blockFiles/set_47/main_unc/rightBlue\GB_RB_1.xlsx
409	main_unc	True	0.0	445	0	6.0	6.0	1.0	1	right	2.0	1.0	1.0	1	0.00518720360473	blockFiles/set_47/main_unc/rightBlue\GB_RB_1.xlsx
410	main_unc	True	0.0	445	0	6.0	6.0	0.0	1	left	1.0	1.0	1.0	0	-0.06442133745180001	blockFiles/set_47/main_unc/rightBlue\GB_RB_1.xlsx
411	main_unc	True	0.0	445	0	6.0	6.0	0.0	1	left	1.0	1.0	1.0	0	-0.0174639160186	blockFiles/set_47/main_unc/rightBlue\GB_RB_1.xlsx
412	main_unc	True	0.0	445	0	6.0	6.0	0.0	1	left	1.0	0.0	1.0	0	-0.055702080111999994	blockFiles/set_47/main_unc/rightBlue\GB_RB_1.xlsx
413	main_unc	True	0.0	445	0	6.0	6.0	0.0	1	left	1.0	1.0	1.0	0	-0.00936362557113	blockFiles/set_47/main_unc/rightBlue\GB_RB_1.xlsx
414	main_unc	True	0.0	445	0	6.0	6.0	1.0	1	right	2.0	1.0	1.0	1	0.07538421619680001	blockFiles/set_47/main_unc/rightBlue\GB_RB_1.xlsx
415	main_unc	True	0.0	445	0	6.0	6.0	0.0	1	left	1.0	1.0	1.0	0	-0.0635969719663	blockFiles/set_47/main_unc/rightBlue\GB_RB_1.xlsx
416	main_unc	True	0.0	445	0	6.0	6.0	1.0	1	right	2.0	1.0	1.0	1	0.055795927681	blockFiles/set_47/main_unc/rightBlue\GB_RB_1.xlsx
417	main_unc	True	0.0	445	0	6.0	6.0	1.0	1	right	2.0	0.0	1.0	1	0.038228060491400005	blockFiles/set_47/main_unc/rightBlue\GB_RB_1.xlsx
418	main_unc	True	0.0	445	0	6.0	6.0	1.0	1	right	2.0	1.0	1.0	1	0.0153010118753	blockFiles/set_47/main_unc/rightBlue\GB_RB_1.xlsx
419	main_unc	True	0.0	445	0	6.0	6.0	0.0	1	left	1.0	1.0	1.0	0	-0.0443829606846	blockFiles/set_47/main_unc/rightBlue\GB_RB_1.xlsx
420	main_unc	True	0.0	445	0	6.0	6.0	1.0	0	right	1.0	1.0	1.0	0	-0.0030076956749	blockFiles/set_47/main_unc/rightBlue\GB_RB_1.xlsx
421	main_unc	True	0.0	445	0	6.0	6.0	1.0	1	right	2.0	1.0	1.0	1	0.058276821728800006	blockFiles/set_47/main_unc/rightBlue\GB_RB_1.xlsx
422	main_unc	True	0.0	445	0	6.0	6.0	0.0	1	left	1.0	1.0	1.0	0	-0.06793687155469999	blockFiles/set_47/main_unc/rightBlue\GB_RB_1.xlsx
423	main_unc	True	0.0	445	0	6.0	6.0	0.0	1	left	1.0	1.0	1.0	0	-0.0794125269912	blockFiles/set_47/main_unc/rightBlue\GB_RB_1.xlsx
424	main_unc	True	0.0	445	0	6.0	6.0	1.0	1	right	2.0	1.0	1.0	1	0.056385674402099996	blockFiles/set_47/main_unc/rightBlue\GB_RB_1.xlsx
425	main_unc	True	0.0	445	0	6.0	6.0	0.0	1	left	1.0	1.0	1.0	0	-0.032191964164400004	blockFiles/set_47/main_unc/rightBlue\GB_RB_1.xlsx
426	main_unc	True	0.0	445	0	6.0	6.0	0.0	0	left	1.0	0.0	0.0	1	0.00630313897505	blockFiles/set_47/main_unc/rightBlue\GB_RB_1.xlsx
427	main_unc	True	0.0	445	0	6.0	6.0	1.0	1	right	2.0	1.0	1.0	1	0.0294669820741	blockFiles/set_47/main_unc/rightBlue\GB_RB_1.xlsx
428	main_unc	True	0.0	445	0	7.0	7.0	1.0	1	right	1.0	0.0	0.0	1	0.0656355802529	blockFiles/set_47/main_unc/rightBlue\GB_RB_3.xlsx
429	main_unc	True	0.0	445	0	7.0	7.0	0.0	1	left	2.0	0.0	0.0	0	-0.0746590691246	blockFiles/set_47/main_unc/rightBlue\GB_RB_3.xlsx
430	main_unc	True	0.0	445	0	7.0	7.0	0.0	1	left	2.0	0.0	0.0	0	-0.036112566757900005	blockFiles/set_47/main_unc/rightBlue\GB_RB_3.xlsx
431	main_unc	True	0.0	445	0	7.0	7.0	1.0	0	right	1.0	1.0	1.0	0	-0.013513699620999998	blockFiles/set_47/main_unc/rightBlue\GB_RB_3.xlsx
432	main_unc	True	0.0	445	0	7.0	7.0	1.0	0	right	2.0	0.0	0.0	0	-0.0011719077825499999	blockFiles/set_47/main_unc/rightBlue\GB_RB_3.xlsx
433	main_unc	True	0.0	445	0	7.0	7.0	1.0	1	right	2.0	1.0	1.0	1	0.0710292093083	blockFiles/set_47/main_unc/rightBlue\GB_RB_3.xlsx
434	main_unc	True	0.0	445	0	7.0	7.0	0.0	1	left	1.0	1.0	1.0	0	-0.07995678965	blockFiles/set_47/main_unc/rightBlue\GB_RB_3.xlsx
435	main_unc	True	0.0	445	0	7.0	7.0	0.0	1	left	1.0	0.0	1.0	0	-0.05602939335630001	blockFiles/set_47/main_unc/rightBlue\GB_RB_3.xlsx
436	main_unc	True	0.0	445	0	7.0	7.0	0.0	1	left	1.0	1.0	1.0	0	-0.0451486514322	blockFiles/set_47/main_unc/rightBlue\GB_RB_3.xlsx
437	main_unc	True	0.0	445	0	7.0	7.0	0.0	0	left	2.0	1.0	1.0	1	0.0560973243415	blockFiles/set_47/main_unc/rightBlue\GB_RB_3.xlsx
438	main_unc	True	0.0	445	0	7.0	7.0	1.0	1	right	2.0	1.0	1.0	1	0.0113975998759	blockFiles/set_47/main_unc/rightBlue\GB_RB_3.xlsx
439	main_unc	True	0.0	445	0	7.0	7.0	0.0	0	left	2.0	1.0	1.0	1	0.029103371668599998	blockFiles/set_47/main_unc/rightBlue\GB_RB_3.xlsx
440	main_unc	True	0.0	445	0	7.0	7.0	1.0	1	right	2.0	1.0	1.0	1	0.0358570012823	blockFiles/set_47/main_unc/rightBlue\GB_RB_3.xlsx
441	main_unc	True	0.0	445	0	7.0	7.0	1.0	0	right	1.0	0.0	1.0	0	-0.0263283413276	blockFiles/set_47/main_unc/rightBlue\GB_RB_3.xlsx
442	main_unc	True	0.0	445	0	7.0	7.0	0.0	1	left	1.0	1.0	1.0	0	-0.0705202162452	blockFiles/set_47/main_unc/rightBlue\GB_RB_3.xlsx
443	main_unc	True	0.0	445	0	7.0	7.0	0.0	1	left	1.0	1.0	1.0	0	-0.016579907908999998	blockFiles/set_47/main_unc/rightBlue\GB_RB_3.xlsx
444	main_unc	True	0.0	445	0	7.0	7.0	1.0	1	right	2.0	0.0	1.0	1	0.0795649199188	blockFiles/set_47/main_unc/rightBlue\GB_RB_3.xlsx
445	main_unc	True	0.0	445	0	7.0	7.0	1.0	1	right	2.0	1.0	1.0	1	0.0391426550038	blockFiles/set_47/main_unc/rightBlue\GB_RB_3.xlsx
446	main_unc	True	0.0	445	0	7.0	7.0	1.0	1	right	2.0	1.0	1.0	1	0.013445389457	blockFiles/set_47/main_unc/rightBlue\GB_RB_3.xlsx
447	main_unc	True	0.0	445	0	7.0	7.0	0.0	1	left	1.0	0.0	1.0	0	-0.0733108077385	blockFiles/set_47/main_unc/rightBlue\GB_RB_3.xlsx
448	main_unc	True	0.0	445	0	7.0	7.0	1.0	1	right	2.0	1.0	1.0	1	0.0343121301755	blockFiles/set_47/main_unc/rightBlue\GB_RB_3.xlsx
449	main_unc	True	0.0	445	0	7.0	7.0	1.0	1	right	2.0	1.0	1.0	1	0.055607801191499995	blockFiles/set_47/main_unc/rightBlue\GB_RB_3.xlsx
450	main_unc	True	0.0	445	0	7.0	7.0	0.0	1	left	1.0	0.0	1.0	0	-0.0388755724393	blockFiles/set_47/main_unc/rightBlue\GB_RB_3.xlsx
451	main_unc	True	0.0	445	0	7.0	7.0	0.0	1	left	2.0	1.0	0.0	0	-0.00721195729449	blockFiles/set_47/main_unc/rightBlue\GB_RB_3.xlsx
452	main_unc	True	0.0	445	0	7.0	7.0	1.0	0	right	1.0	1.0	1.0	0	-0.014905519038400001	blockFiles/set_47/main_unc/rightBlue\GB_RB_3.xlsx
453	main_unc	True	0.0	445	0	8.0	8.0	0.0	1	left	2.0	1.0	1.0	0	-0.04916229028250001	blockFiles/set_47/main_unc/leftBlue\GB_LB_1.xlsx
454	main_unc	True	0.0	445	0	8.0	8.0	0.0	1	left	2.0	1.0	1.0	0	-0.0206235413998	blockFiles/set_47/main_unc/leftBlue\GB_LB_1.xlsx
455	main_unc	True	0.0	445	0	8.0	8.0	1.0	0	right	2.0	0.0	1.0	0	-0.0114345622621	blockFiles/set_47/main_unc/leftBlue\GB_LB_1.xlsx
456	main_unc	True	0.0	445	0	8.0	8.0	0.0	1	left	2.0	1.0	1.0	0	-0.0309648296423	blockFiles/set_47/main_unc/leftBlue\GB_LB_1.xlsx
457	main_unc	True	0.0	445	0	8.0	8.0	0.0	1	left	2.0	0.0	1.0	0	-0.0754360405914	blockFiles/set_47/main_unc/leftBlue\GB_LB_1.xlsx
458	main_unc	True	0.0	445	0	8.0	8.0	1.0	1	right	1.0	1.0	1.0	1	0.018300708942099998	blockFiles/set_47/main_unc/leftBlue\GB_LB_1.xlsx
459	main_unc	True	0.0	445	0	8.0	8.0	1.0	1	right	1.0	1.0	1.0	1	0.040654181838	blockFiles/set_47/main_unc/leftBlue\GB_LB_1.xlsx
460	main_unc	True	0.0	445	0	8.0	8.0	1.0	1	right	1.0	1.0	1.0	1	0.0664630784839	blockFiles/set_47/main_unc/leftBlue\GB_LB_1.xlsx
461	main_unc	True	0.0	445	0	8.0	8.0	0.0	1	left	2.0	1.0	1.0	0	-0.030592327825700004	blockFiles/set_47/main_unc/leftBlue\GB_LB_1.xlsx
462	main_unc	True	0.0	445	0	8.0	8.0	1.0	0	right	2.0	1.0	1.0	0	-0.0135820127651	blockFiles/set_47/main_unc/leftBlue\GB_LB_1.xlsx
463	main_unc	True	0.0	445	0	8.0	8.0	1.0	1	right	1.0	1.0	1.0	1	0.030426996406200002	blockFiles/set_47/main_unc/leftBlue\GB_LB_1.xlsx
464	main_unc	True	0.0	445	0	8.0	8.0	0.0	1	left	2.0	1.0	1.0	0	-0.0635134807229	blockFiles/set_47/main_unc/leftBlue\GB_LB_1.xlsx
465	main_unc	True	0.0	445	0	8.0	8.0	1.0	0	right	2.0	1.0	1.0	0	-0.022864858713	blockFiles/set_47/main_unc/leftBlue\GB_LB_1.xlsx
466	main_unc	True	0.0	445	0	8.0	8.0	1.0	1	right	1.0	1.0	1.0	1	0.055019907970000004	blockFiles/set_47/main_unc/leftBlue\GB_LB_1.xlsx
467	main_unc	True	0.0	445	0	8.0	8.0	1.0	1	right	1.0	0.0	1.0	1	0.06694132842119999	blockFiles/set_47/main_unc/leftBlue\GB_LB_1.xlsx
468	main_unc	True	0.0	445	0	8.0	8.0	0.0	1	left	2.0	0.0	1.0	0	-0.07304333871230001	blockFiles/set_47/main_unc/leftBlue\GB_LB_1.xlsx
469	main_unc	True	0.0	445	0	8.0	8.0	0.0	1	left	2.0	1.0	1.0	0	-0.0361263032258	blockFiles/set_47/main_unc/leftBlue\GB_LB_1.xlsx
470	main_unc	True	1.0	445	0	8.0	8.0	n/a	0	None	n/a	0.0	n/a	1	0.0376981687546	blockFiles/set_47/main_unc/leftBlue\GB_LB_1.xlsx
471	main_unc	True	0.0	445	0	8.0	8.0	0.0	0	left	1.0	1.0	1.0	1	0.0012081204540999998	blockFiles/set_47/main_unc/leftBlue\GB_LB_1.xlsx
472	main_unc	True	0.0	445	0	8.0	8.0	0.0	0	left	1.0	0.0	1.0	1	0.014983327575	blockFiles/set_47/main_unc/leftBlue\GB_LB_1.xlsx
473	main_unc	True	0.0	445	0	8.0	8.0	1.0	0	right	2.0	1.0	1.0	0	-0.049427166283099996	blockFiles/set_47/main_unc/leftBlue\GB_LB_1.xlsx
474	main_unc	True	0.0	445	0	8.0	8.0	1.0	0	right	2.0	1.0	1.0	0	-0.0339888630249	blockFiles/set_47/main_unc/leftBlue\GB_LB_1.xlsx
475	main_unc	True	0.0	445	0	8.0	8.0	1.0	1	right	1.0	1.0	1.0	1	0.0796749711595	blockFiles/set_47/main_unc/leftBlue\GB_LB_1.xlsx
476	main_unc	True	0.0	445	0	8.0	8.0	1.0	1	right	1.0	1.0	1.0	1	0.0761983213387	blockFiles/set_47/main_unc/leftBlue\GB_LB_1.xlsx
477	main_unc	True	0.0	445	0	8.0	8.0	0.0	0	left	1.0	1.0	1.0	1	0.0190452128462	blockFiles/set_47/main_unc/leftBlue\GB_LB_1.xlsx
478	main_unc	True	0.0	445	0	8.0	8.0	1.0	1	right	1.0	1.0	1.0	1	0.0376981687546	blockFiles/set_47/main_unc/leftBlue\GB_LB_1.xlsx
479	main_unc	True	0.0	445	0	9.0	9.0	0.0	1	left	2.0	0.0	0.0	0	-0.06937497518960001	blockFiles/set_47/main_unc/rightBlue\GB_RB_5.xlsx
480	main_unc	True	0.0	445	0	9.0	9.0	0.0	1	left	2.0	0.0	0.0	0	-0.0713651995361	blockFiles/set_47/main_unc/rightBlue\GB_RB_5.xlsx
481	main_unc	True	0.0	445	0	9.0	9.0	0.0	0	left	1.0	0.0	0.0	1	0.0040168869122899995	blockFiles/set_47/main_unc/rightBlue\GB_RB_5.xlsx
482	main_unc	True	0.0	445	0	9.0	9.0	1.0	1	right	2.0	1.0	1.0	1	0.0530985643715	blockFiles/set_47/main_unc/rightBlue\GB_RB_5.xlsx
483	main_unc	True	0.0	445	0	9.0	9.0	0.0	1	left	1.0	1.0	1.0	0	-0.0705852953717	blockFiles/set_47/main_unc/rightBlue\GB_RB_5.xlsx
484	main_unc	True	0.0	445	0	9.0	9.0	1.0	1	right	2.0	1.0	1.0	1	0.0598139952309	blockFiles/set_47/main_unc/rightBlue\GB_RB_5.xlsx
485	main_unc	True	0.0	445	0	9.0	9.0	1.0	1	right	2.0	1.0	1.0	1	0.041607510000499996	blockFiles/set_47/main_unc/rightBlue\GB_RB_5.xlsx
486	main_unc	True	0.0	445	0	9.0	9.0	0.0	1	left	1.0	1.0	1.0	0	-0.022853064481200003	blockFiles/set_47/main_unc/rightBlue\GB_RB_5.xlsx
487	main_unc	True	0.0	445	0	9.0	9.0	1.0	1	right	2.0	1.0	1.0	1	0.016356975268600003	blockFiles/set_47/main_unc/rightBlue\GB_RB_5.xlsx
488	main_unc	True	0.0	445	0	9.0	9.0	1.0	1	right	2.0	1.0	1.0	1	0.0490405503474	blockFiles/set_47/main_unc/rightBlue\GB_RB_5.xlsx
489	main_unc	True	0.0	445	0	9.0	9.0	1.0	1	right	2.0	0.0	1.0	1	0.024240736682	blockFiles/set_47/main_unc/rightBlue\GB_RB_5.xlsx
490	main_unc	True	0.0	445	0	9.0	9.0	1.0	1	right	2.0	1.0	1.0	1	0.047543787919	blockFiles/set_47/main_unc/rightBlue\GB_RB_5.xlsx
491	main_unc	True	0.0	445	0	9.0	9.0	0.0	1	left	1.0	1.0	1.0	0	-0.0578455566801	blockFiles/set_47/main_unc/rightBlue\GB_RB_5.xlsx
492	main_unc	True	0.0	445	0	9.0	9.0	0.0	1	left	1.0	1.0	1.0	0	-0.0313335576653	blockFiles/set_47/main_unc/rightBlue\GB_RB_5.xlsx
493	main_unc	True	0.0	445	0	9.0	9.0	1.0	1	right	2.0	0.0	1.0	1	0.0448964301683	blockFiles/set_47/main_unc/rightBlue\GB_RB_5.xlsx
494	main_unc	True	0.0	445	0	9.0	9.0	1.0	1	right	2.0	1.0	1.0	1	0.0573274571449	blockFiles/set_47/main_unc/rightBlue\GB_RB_5.xlsx
495	main_unc	True	0.0	445	0	9.0	9.0	0.0	1	left	1.0	1.0	1.0	0	-0.0370022583008	blockFiles/set_47/main_unc/rightBlue\GB_RB_5.xlsx
496	main_unc	True	0.0	445	0	9.0	9.0	1.0	1	right	2.0	0.0	1.0	1	0.0168140119873	blockFiles/set_47/main_unc/rightBlue\GB_RB_5.xlsx
497	main_unc	True	0.0	445	0	9.0	9.0	0.0	1	left	1.0	1.0	1.0	0	-0.0189471971616	blockFiles/set_47/main_unc/rightBlue\GB_RB_5.xlsx
498	main_unc	True	0.0	445	0	9.0	9.0	1.0	0	right	1.0	1.0	1.0	0	-0.0437790853344	blockFiles/set_47/main_unc/rightBlue\GB_RB_5.xlsx
499	main_unc	True	0.0	445	0	9.0	9.0	1.0	1	right	2.0	1.0	1.0	1	0.0371903230809	blockFiles/set_47/main_unc/rightBlue\GB_RB_5.xlsx
500	main_unc	True	0.0	445	0	9.0	9.0	0.0	1	left	1.0	1.0	1.0	0	-0.0770273540728	blockFiles/set_47/main_unc/rightBlue\GB_RB_5.xlsx
501	main_unc	True	0.0	445	0	9.0	9.0	0.0	1	left	1.0	1.0	1.0	0	-0.0639129563607	blockFiles/set_47/main_unc/rightBlue\GB_RB_5.xlsx
502	main_unc	True	0.0	445	0	9.0	9.0	1.0	0	right	1.0	1.0	1.0	0	-0.0478657605499	blockFiles/set_47/main_unc/rightBlue\GB_RB_5.xlsx
503	main_unc	True	0.0	445	0	9.0	9.0	1.0	0	right	2.0	0.0	0.0	0	-0.021377521641599995	blockFiles/set_47/main_unc/rightBlue\GB_RB_5.xlsx
504	main_unc	True	0.0	445	0	10.0	10.0	1.0	1	right	1.0	1.0	1.0	1	0.0776064045168	blockFiles/set_47/main_unc/leftBlue\GB_LB_4.xlsx
505	main_unc	True	0.0	445	0	10.0	10.0	0.0	1	left	2.0	1.0	1.0	0	-0.007592269461600001	blockFiles/set_47/main_unc/leftBlue\GB_LB_4.xlsx
506	main_unc	True	0.0	445	0	10.0	10.0	1.0	1	right	1.0	0.0	1.0	1	0.0644407579862	blockFiles/set_47/main_unc/leftBlue\GB_LB_4.xlsx
507	main_unc	True	0.0	445	0	10.0	10.0	1.0	0	right	1.0	0.0	0.0	0	-0.0030226803012199997	blockFiles/set_47/main_unc/leftBlue\GB_LB_4.xlsx
508	main_unc	True	0.0	445	0	10.0	10.0	1.0	1	right	1.0	1.0	1.0	1	0.0573570693471	blockFiles/set_47/main_unc/leftBlue\GB_LB_4.xlsx
509	main_unc	True	0.0	445	0	10.0	10.0	1.0	0	right	1.0	0.0	0.0	0	-0.015127146896	blockFiles/set_47/main_unc/leftBlue\GB_LB_4.xlsx
510	main_unc	True	0.0	445	0	10.0	10.0	1.0	1	right	2.0	1.0	0.0	1	0.0216730364785	blockFiles/set_47/main_unc/leftBlue\GB_LB_4.xlsx
511	main_unc	True	0.0	445	0	10.0	10.0	1.0	0	right	1.0	1.0	0.0	0	-0.0318887504749	blockFiles/set_47/main_unc/leftBlue\GB_LB_4.xlsx
512	main_unc	True	0.0	445	0	10.0	10.0	1.0	1	right	2.0	0.0	0.0	1	0.071070251707	blockFiles/set_47/main_unc/leftBlue\GB_LB_4.xlsx
513	main_unc	True	0.0	445	0	10.0	10.0	0.0	1	left	1.0	0.0	0.0	0	-0.0268229350448	blockFiles/set_47/main_unc/leftBlue\GB_LB_4.xlsx
514	main_unc	True	0.0	445	0	10.0	10.0	0.0	1	left	2.0	1.0	1.0	0	-0.07001511620360001	blockFiles/set_47/main_unc/leftBlue\GB_LB_4.xlsx
515	main_unc	True	0.0	445	0	10.0	10.0	0.0	1	left	1.0	0.0	0.0	0	-0.070367799215	blockFiles/set_47/main_unc/leftBlue\GB_LB_4.xlsx
516	main_unc	True	0.0	445	0	10.0	10.0	1.0	1	right	2.0	0.0	0.0	1	0.021958425808700003	blockFiles/set_47/main_unc/leftBlue\GB_LB_4.xlsx
517	main_unc	True	0.0	445	0	10.0	10.0	0.0	1	left	2.0	0.0	1.0	0	-0.060850325226800006	blockFiles/set_47/main_unc/leftBlue\GB_LB_4.xlsx
518	main_unc	True	0.0	445	0	10.0	10.0	1.0	0	right	1.0	0.0	0.0	0	-0.0124118571915	blockFiles/set_47/main_unc/leftBlue\GB_LB_4.xlsx
519	main_unc	True	0.0	445	0	10.0	10.0	1.0	1	right	2.0	0.0	0.0	1	0.0193286547065	blockFiles/set_47/main_unc/leftBlue\GB_LB_4.xlsx
520	main_unc	True	0.0	445	0	10.0	10.0	1.0	1	right	2.0	0.0	0.0	1	0.059384006857900004	blockFiles/set_47/main_unc/leftBlue\GB_LB_4.xlsx
521	main_unc	True	0.0	445	0	10.0	10.0	1.0	0	right	1.0	0.0	0.0	0	-0.050020243674499996	blockFiles/set_47/main_unc/leftBlue\GB_LB_4.xlsx
522	main_unc	True	0.0	445	0	10.0	10.0	1.0	1	right	1.0	1.0	1.0	1	0.041049805302199996	blockFiles/set_47/main_unc/leftBlue\GB_LB_4.xlsx
523	main_unc	True	0.0	445	0	10.0	10.0	0.0	1	left	2.0	1.0	1.0	0	-0.0712562503479	blockFiles/set_47/main_unc/leftBlue\GB_LB_4.xlsx
524	main_unc	True	0.0	445	0	10.0	10.0	1.0	1	right	1.0	0.0	1.0	1	0.038878146242400005	blockFiles/set_47/main_unc/leftBlue\GB_LB_4.xlsx
525	main_unc	True	0.0	445	0	10.0	10.0	1.0	1	right	1.0	1.0	1.0	1	0.00786883337423	blockFiles/set_47/main_unc/leftBlue\GB_LB_4.xlsx
526	main_unc	True	0.0	445	0	10.0	10.0	1.0	0	right	2.0	1.0	1.0	0	-0.0251965694875	blockFiles/set_47/main_unc/leftBlue\GB_LB_4.xlsx
527	main_unc	True	0.0	445	0	10.0	10.0	1.0	1	right	1.0	1.0	1.0	1	0.021351829133900005	blockFiles/set_47/main_unc/leftBlue\GB_LB_4.xlsx
528	main_unc	True	0.0	445	0	10.0	10.0	1.0	0	right	2.0	1.0	1.0	0	-0.044121819362000006	blockFiles/set_47/main_unc/leftBlue\GB_LB_4.xlsx
529	main_unc	True	0.0	445	0	11.0	11.0	0.0	1	left	1.0	1.0	1.0	0	-0.065762140844	blockFiles/set_47/main_unc/rightBlue\GB_RB_2.xlsx
530	main_unc	True	0.0	445	0	11.0	11.0	0.0	1	left	1.0	1.0	1.0	0	-0.0705118284561	blockFiles/set_47/main_unc/rightBlue\GB_RB_2.xlsx
531	main_unc	True	0.0	445	0	11.0	11.0	1.0	1	right	2.0	1.0	1.0	1	0.014171925839	blockFiles/set_47/main_unc/rightBlue\GB_RB_2.xlsx
532	main_unc	True	0.0	445	0	11.0	11.0	0.0	1	left	1.0	1.0	1.0	0	-0.07296644872050001	blockFiles/set_47/main_unc/rightBlue\GB_RB_2.xlsx
533	main_unc	True	0.0	445	0	11.0	11.0	1.0	1	right	2.0	0.0	1.0	1	0.035004664268300005	blockFiles/set_47/main_unc/rightBlue\GB_RB_2.xlsx
534	main_unc	True	0.0	445	0	11.0	11.0	0.0	1	left	1.0	1.0	1.0	0	-0.0540574557148	blockFiles/set_47/main_unc/rightBlue\GB_RB_2.xlsx
535	main_unc	True	0.0	445	0	11.0	11.0	1.0	1	right	2.0	1.0	1.0	1	0.0389086163975	blockFiles/set_47/main_unc/rightBlue\GB_RB_2.xlsx
536	main_unc	True	0.0	445	0	11.0	11.0	0.0	0	left	2.0	1.0	1.0	1	0.018961156010599996	blockFiles/set_47/main_unc/rightBlue\GB_RB_2.xlsx
537	main_unc	True	0.0	445	0	11.0	11.0	1.0	0	right	1.0	1.0	1.0	0	-0.026148776970799998	blockFiles/set_47/main_unc/rightBlue\GB_RB_2.xlsx
538	main_unc	True	0.0	445	0	11.0	11.0	0.0	1	left	1.0	0.0	1.0	0	-0.0171853982285	blockFiles/set_47/main_unc/rightBlue\GB_RB_2.xlsx
539	main_unc	True	0.0	445	0	11.0	11.0	0.0	1	left	1.0	1.0	1.0	0	-0.0640607775562	blockFiles/set_47/main_unc/rightBlue\GB_RB_2.xlsx
540	main_unc	True	0.0	445	0	11.0	11.0	1.0	1	right	2.0	1.0	1.0	1	0.048939768392599996	blockFiles/set_47/main_unc/rightBlue\GB_RB_2.xlsx
541	main_unc	True	0.0	445	0	11.0	11.0	1.0	1	right	2.0	1.0	1.0	1	0.00762906890363	blockFiles/set_47/main_unc/rightBlue\GB_RB_2.xlsx
542	main_unc	True	0.0	445	0	11.0	11.0	1.0	1	right	2.0	1.0	1.0	1	0.0529679683782	blockFiles/set_47/main_unc/rightBlue\GB_RB_2.xlsx
543	main_unc	True	0.0	445	0	11.0	11.0	1.0	1	right	2.0	1.0	1.0	1	0.073436504174	blockFiles/set_47/main_unc/rightBlue\GB_RB_2.xlsx
544	main_unc	True	0.0	445	0	11.0	11.0	0.0	1	left	1.0	1.0	1.0	0	-0.0357413864322	blockFiles/set_47/main_unc/rightBlue\GB_RB_2.xlsx
545	main_unc	True	0.0	445	0	11.0	11.0	1.0	1	right	2.0	0.0	1.0	1	0.05606335192919999	blockFiles/set_47/main_unc/rightBlue\GB_RB_2.xlsx
546	main_unc	True	0.0	445	0	11.0	11.0	1.0	1	right	2.0	0.0	1.0	1	0.00428125159815	blockFiles/set_47/main_unc/rightBlue\GB_RB_2.xlsx
547	main_unc	True	0.0	445	0	11.0	11.0	0.0	1	left	1.0	1.0	1.0	0	-0.0537798684277	blockFiles/set_47/main_unc/rightBlue\GB_RB_2.xlsx
548	main_unc	True	0.0	445	0	11.0	11.0	1.0	1	right	2.0	1.0	1.0	1	0.049896176029000004	blockFiles/set_47/main_unc/rightBlue\GB_RB_2.xlsx
549	main_unc	True	0.0	445	0	11.0	11.0	1.0	0	right	1.0	1.0	1.0	0	-0.008656582701950001	blockFiles/set_47/main_unc/rightBlue\GB_RB_2.xlsx
550	main_unc	True	0.0	445	0	11.0	11.0	1.0	1	right	2.0	1.0	1.0	1	0.030487637911	blockFiles/set_47/main_unc/rightBlue\GB_RB_2.xlsx
551	main_unc	True	0.0	445	0	11.0	11.0	1.0	1	right	2.0	1.0	1.0	1	0.064409875758	blockFiles/set_47/main_unc/rightBlue\GB_RB_2.xlsx
552	main_unc	True	0.0	445	0	11.0	11.0	0.0	1	left	1.0	1.0	1.0	0	-0.0717318560369	blockFiles/set_47/main_unc/rightBlue\GB_RB_2.xlsx
553	main_unc	True	0.0	445	0	11.0	11.0	1.0	1	right	2.0	1.0	1.0	1	0.050277106612900004	blockFiles/set_47/main_unc/rightBlue\GB_RB_2.xlsx
