	trial_type	complete	missIndex	participant	id	blockNumber	b_t	d_t	decision1.corr	decision1.keys	a_t	r_t	decision2.corr	s_t	u_t	block_file
0	main_safe	True	0.0	392	0	0.0	0.0	0.0	1	left	1.0	1.0	1.0	0	-0.08	blockFiles/set_8/main_safe/rightBlue\GB_RB_1.xlsx
1	main_safe	True	0.0	392	0	0.0	0.0	1.0	1	right	2.0	0.0	1.0	1	0.08	blockFiles/set_8/main_safe/rightBlue\GB_RB_1.xlsx
2	main_safe	True	0.0	392	0	0.0	0.0	0.0	1	left	1.0	0.0	1.0	0	-0.08	blockFiles/set_8/main_safe/rightBlue\GB_RB_1.xlsx
3	main_safe	True	0.0	392	0	0.0	0.0	1.0	1	right	2.0	1.0	1.0	1	0.08	blockFiles/set_8/main_safe/rightBlue\GB_RB_1.xlsx
4	main_safe	True	0.0	392	0	0.0	0.0	0.0	1	left	1.0	1.0	1.0	0	-0.08	blockFiles/set_8/main_safe/rightBlue\GB_RB_1.xlsx
5	main_safe	True	0.0	392	0	0.0	0.0	0.0	1	left	1.0	1.0	1.0	0	-0.08	blockFiles/set_8/main_safe/rightBlue\GB_RB_1.xlsx
6	main_safe	True	0.0	392	0	0.0	0.0	1.0	1	right	2.0	1.0	1.0	1	0.08	blockFiles/set_8/main_safe/rightBlue\GB_RB_1.xlsx
7	main_safe	True	0.0	392	0	0.0	0.0	0.0	1	left	1.0	1.0	1.0	0	-0.08	blockFiles/set_8/main_safe/rightBlue\GB_RB_1.xlsx
8	main_safe	True	0.0	392	0	0.0	0.0	0.0	1	left	1.0	1.0	1.0	0	-0.08	blockFiles/set_8/main_safe/rightBlue\GB_RB_1.xlsx
9	main_safe	True	0.0	392	0	0.0	0.0	0.0	1	left	1.0	1.0	1.0	0	-0.08	blockFiles/set_8/main_safe/rightBlue\GB_RB_1.xlsx
10	main_safe	True	0.0	392	0	0.0	0.0	0.0	1	left	1.0	1.0	1.0	0	-0.08	blockFiles/set_8/main_safe/rightBlue\GB_RB_1.xlsx
11	main_safe	True	0.0	392	0	0.0	0.0	1.0	1	right	2.0	1.0	1.0	1	0.08	blockFiles/set_8/main_safe/rightBlue\GB_RB_1.xlsx
12	main_safe	True	0.0	392	0	0.0	0.0	1.0	1	right	2.0	1.0	1.0	1	0.08	blockFiles/set_8/main_safe/rightBlue\GB_RB_1.xlsx
13	main_safe	True	0.0	392	0	0.0	0.0	1.0	1	right	2.0	0.0	1.0	1	0.08	blockFiles/set_8/main_safe/rightBlue\GB_RB_1.xlsx
14	main_safe	True	0.0	392	0	0.0	0.0	1.0	1	right	2.0	1.0	1.0	1	0.08	blockFiles/set_8/main_safe/rightBlue\GB_RB_1.xlsx
15	main_safe	True	0.0	392	0	0.0	0.0	0.0	1	left	1.0	1.0	1.0	0	-0.08	blockFiles/set_8/main_safe/rightBlue\GB_RB_1.xlsx
16	main_safe	True	0.0	392	0	0.0	0.0	1.0	1	right	2.0	1.0	1.0	1	0.08	blockFiles/set_8/main_safe/rightBlue\GB_RB_1.xlsx
17	main_safe	True	0.0	392	0	0.0	0.0	1.0	1	right	2.0	0.0	1.0	1	0.08	blockFiles/set_8/main_safe/rightBlue\GB_RB_1.xlsx
18	main_safe	True	0.0	392	0	0.0	0.0	0.0	1	left	1.0	1.0	1.0	0	-0.08	blockFiles/set_8/main_safe/rightBlue\GB_RB_1.xlsx
19	main_safe	True	0.0	392	0	0.0	0.0	0.0	1	left	1.0	1.0	1.0	0	-0.08	blockFiles/set_8/main_safe/rightBlue\GB_RB_1.xlsx
20	main_safe	True	0.0	392	0	0.0	0.0	1.0	1	right	2.0	1.0	1.0	1	0.08	blockFiles/set_8/main_safe/rightBlue\GB_RB_1.xlsx
21	main_safe	True	0.0	392	0	0.0	0.0	0.0	1	left	1.0	1.0	1.0	0	-0.08	blockFiles/set_8/main_safe/rightBlue\GB_RB_1.xlsx
22	main_safe	True	0.0	392	0	0.0	0.0	1.0	1	right	2.0	1.0	1.0	1	0.08	blockFiles/set_8/main_safe/rightBlue\GB_RB_1.xlsx
23	main_safe	True	0.0	392	0	0.0	0.0	0.0	1	left	1.0	1.0	1.0	0	-0.08	blockFiles/set_8/main_safe/rightBlue\GB_RB_1.xlsx
24	main_safe	True	0.0	392	0	0.0	0.0	1.0	1	right	2.0	1.0	1.0	1	0.08	blockFiles/set_8/main_safe/rightBlue\GB_RB_1.xlsx
25	main_safe	True	1.0	392	0	1.0	1.0	1.0	1	right	n/a	0.0	n/a	1	0.08	blockFiles/set_8/main_safe/leftBlue\GB_LB_3.xlsx
26	main_safe	True	0.0	392	0	1.0	1.0	0.0	1	left	1.0	0.0	0.0	0	-0.08	blockFiles/set_8/main_safe/leftBlue\GB_LB_3.xlsx
27	main_safe	True	0.0	392	0	1.0	1.0	1.0	1	right	2.0	0.0	0.0	1	0.08	blockFiles/set_8/main_safe/leftBlue\GB_LB_3.xlsx
28	main_safe	True	0.0	392	0	1.0	1.0	0.0	1	left	1.0	0.0	0.0	0	-0.08	blockFiles/set_8/main_safe/leftBlue\GB_LB_3.xlsx
29	main_safe	True	0.0	392	0	1.0	1.0	0.0	1	left	1.0	0.0	0.0	0	-0.08	blockFiles/set_8/main_safe/leftBlue\GB_LB_3.xlsx
30	main_safe	True	0.0	392	0	1.0	1.0	1.0	1	right	1.0	1.0	1.0	1	0.08	blockFiles/set_8/main_safe/leftBlue\GB_LB_3.xlsx
31	main_safe	True	0.0	392	0	1.0	1.0	1.0	1	right	1.0	1.0	1.0	1	0.08	blockFiles/set_8/main_safe/leftBlue\GB_LB_3.xlsx
32	main_safe	True	0.0	392	0	1.0	1.0	1.0	1	right	1.0	1.0	1.0	1	0.08	blockFiles/set_8/main_safe/leftBlue\GB_LB_3.xlsx
33	main_safe	True	0.0	392	0	1.0	1.0	0.0	1	left	2.0	1.0	1.0	0	-0.08	blockFiles/set_8/main_safe/leftBlue\GB_LB_3.xlsx
34	main_safe	True	0.0	392	0	1.0	1.0	1.0	1	right	1.0	0.0	1.0	1	0.08	blockFiles/set_8/main_safe/leftBlue\GB_LB_3.xlsx
35	main_safe	True	0.0	392	0	1.0	1.0	0.0	1	left	2.0	0.0	1.0	0	-0.08	blockFiles/set_8/main_safe/leftBlue\GB_LB_3.xlsx
36	main_safe	True	0.0	392	0	1.0	1.0	1.0	1	right	1.0	1.0	1.0	1	0.08	blockFiles/set_8/main_safe/leftBlue\GB_LB_3.xlsx
37	main_safe	True	0.0	392	0	1.0	1.0	1.0	1	right	1.0	0.0	1.0	1	0.08	blockFiles/set_8/main_safe/leftBlue\GB_LB_3.xlsx
38	main_safe	True	0.0	392	0	1.0	1.0	1.0	1	right	1.0	1.0	1.0	1	0.08	blockFiles/set_8/main_safe/leftBlue\GB_LB_3.xlsx
39	main_safe	True	0.0	392	0	1.0	1.0	0.0	1	left	2.0	1.0	1.0	0	-0.08	blockFiles/set_8/main_safe/leftBlue\GB_LB_3.xlsx
40	main_safe	True	0.0	392	0	1.0	1.0	1.0	1	right	1.0	1.0	1.0	1	0.08	blockFiles/set_8/main_safe/leftBlue\GB_LB_3.xlsx
41	main_safe	True	0.0	392	0	1.0	1.0	0.0	1	left	2.0	1.0	1.0	0	-0.08	blockFiles/set_8/main_safe/leftBlue\GB_LB_3.xlsx
42	main_safe	True	0.0	392	0	1.0	1.0	0.0	1	left	2.0	1.0	1.0	0	-0.08	blockFiles/set_8/main_safe/leftBlue\GB_LB_3.xlsx
43	main_safe	True	1.0	392	0	1.0	1.0	0.0	1	left	n/a	0.0	n/a	0	-0.08	blockFiles/set_8/main_safe/leftBlue\GB_LB_3.xlsx
44	main_safe	True	0.0	392	0	1.0	1.0	0.0	1	left	2.0	1.0	1.0	0	-0.08	blockFiles/set_8/main_safe/leftBlue\GB_LB_3.xlsx
45	main_safe	True	0.0	392	0	1.0	1.0	1.0	1	right	1.0	0.0	1.0	1	0.08	blockFiles/set_8/main_safe/leftBlue\GB_LB_3.xlsx
46	main_safe	True	0.0	392	0	1.0	1.0	1.0	1	right	1.0	1.0	1.0	1	0.08	blockFiles/set_8/main_safe/leftBlue\GB_LB_3.xlsx
47	main_safe	True	0.0	392	0	1.0	1.0	0.0	1	left	2.0	1.0	1.0	0	-0.08	blockFiles/set_8/main_safe/leftBlue\GB_LB_3.xlsx
48	main_safe	True	0.0	392	0	1.0	1.0	1.0	1	right	1.0	1.0	1.0	1	0.08	blockFiles/set_8/main_safe/leftBlue\GB_LB_3.xlsx
49	main_safe	True	0.0	392	0	1.0	1.0	0.0	1	left	2.0	0.0	1.0	0	-0.08	blockFiles/set_8/main_safe/leftBlue\GB_LB_3.xlsx
50	main_safe	True	0.0	392	0	1.0	1.0	1.0	1	right	1.0	1.0	1.0	1	0.08	blockFiles/set_8/main_safe/leftBlue\GB_LB_3.xlsx
51	main_safe	True	0.0	392	0	1.0	1.0	0.0	1	left	2.0	0.0	1.0	0	-0.08	blockFiles/set_8/main_safe/leftBlue\GB_LB_3.xlsx
52	main_safe	True	0.0	392	0	2.0	2.0	0.0	1	left	1.0	1.0	1.0	0	-0.08	blockFiles/set_8/main_safe/rightBlue\GB_RB_2.xlsx
53	main_safe	True	0.0	392	0	2.0	2.0	1.0	1	right	2.0	1.0	1.0	1	0.08	blockFiles/set_8/main_safe/rightBlue\GB_RB_2.xlsx
54	main_safe	True	0.0	392	0	2.0	2.0	0.0	1	left	1.0	1.0	1.0	0	-0.08	blockFiles/set_8/main_safe/rightBlue\GB_RB_2.xlsx
55	main_safe	True	0.0	392	0	2.0	2.0	1.0	1	right	2.0	1.0	1.0	1	0.08	blockFiles/set_8/main_safe/rightBlue\GB_RB_2.xlsx
56	main_safe	True	0.0	392	0	2.0	2.0	1.0	1	right	2.0	1.0	1.0	1	0.08	blockFiles/set_8/main_safe/rightBlue\GB_RB_2.xlsx
57	main_safe	True	0.0	392	0	2.0	2.0	1.0	1	right	2.0	0.0	1.0	1	0.08	blockFiles/set_8/main_safe/rightBlue\GB_RB_2.xlsx
58	main_safe	True	0.0	392	0	2.0	2.0	0.0	1	left	1.0	1.0	1.0	0	-0.08	blockFiles/set_8/main_safe/rightBlue\GB_RB_2.xlsx
59	main_safe	True	0.0	392	0	2.0	2.0	1.0	1	right	2.0	1.0	1.0	1	0.08	blockFiles/set_8/main_safe/rightBlue\GB_RB_2.xlsx
60	main_safe	True	0.0	392	0	2.0	2.0	0.0	1	left	1.0	1.0	1.0	0	-0.08	blockFiles/set_8/main_safe/rightBlue\GB_RB_2.xlsx
61	main_safe	True	0.0	392	0	2.0	2.0	0.0	1	left	1.0	1.0	1.0	0	-0.08	blockFiles/set_8/main_safe/rightBlue\GB_RB_2.xlsx
62	main_safe	True	0.0	392	0	2.0	2.0	1.0	1	right	2.0	1.0	1.0	1	0.08	blockFiles/set_8/main_safe/rightBlue\GB_RB_2.xlsx
63	main_safe	True	0.0	392	0	2.0	2.0	0.0	1	left	1.0	1.0	1.0	0	-0.08	blockFiles/set_8/main_safe/rightBlue\GB_RB_2.xlsx
64	main_safe	True	0.0	392	0	2.0	2.0	0.0	1	left	1.0	1.0	1.0	0	-0.08	blockFiles/set_8/main_safe/rightBlue\GB_RB_2.xlsx
65	main_safe	True	0.0	392	0	2.0	2.0	1.0	1	right	2.0	0.0	1.0	1	0.08	blockFiles/set_8/main_safe/rightBlue\GB_RB_2.xlsx
66	main_safe	True	0.0	392	0	2.0	2.0	0.0	1	left	1.0	1.0	1.0	0	-0.08	blockFiles/set_8/main_safe/rightBlue\GB_RB_2.xlsx
67	main_safe	True	0.0	392	0	2.0	2.0	0.0	1	left	1.0	1.0	1.0	0	-0.08	blockFiles/set_8/main_safe/rightBlue\GB_RB_2.xlsx
68	main_safe	True	0.0	392	0	2.0	2.0	1.0	1	right	2.0	1.0	1.0	1	0.08	blockFiles/set_8/main_safe/rightBlue\GB_RB_2.xlsx
69	main_safe	True	0.0	392	0	2.0	2.0	0.0	1	left	1.0	1.0	1.0	0	-0.08	blockFiles/set_8/main_safe/rightBlue\GB_RB_2.xlsx
70	main_safe	True	0.0	392	0	2.0	2.0	1.0	1	right	2.0	1.0	1.0	1	0.08	blockFiles/set_8/main_safe/rightBlue\GB_RB_2.xlsx
71	main_safe	True	0.0	392	0	2.0	2.0	1.0	1	right	2.0	0.0	1.0	1	0.08	blockFiles/set_8/main_safe/rightBlue\GB_RB_2.xlsx
72	main_safe	True	0.0	392	0	2.0	2.0	0.0	1	left	1.0	1.0	1.0	0	-0.08	blockFiles/set_8/main_safe/rightBlue\GB_RB_2.xlsx
73	main_safe	True	0.0	392	0	2.0	2.0	1.0	1	right	2.0	0.0	1.0	1	0.08	blockFiles/set_8/main_safe/rightBlue\GB_RB_2.xlsx
74	main_safe	True	0.0	392	0	2.0	2.0	0.0	1	left	1.0	0.0	1.0	0	-0.08	blockFiles/set_8/main_safe/rightBlue\GB_RB_2.xlsx
75	main_safe	True	0.0	392	0	2.0	2.0	1.0	1	right	2.0	1.0	1.0	1	0.08	blockFiles/set_8/main_safe/rightBlue\GB_RB_2.xlsx
76	main_safe	True	0.0	392	0	2.0	2.0	1.0	1	right	2.0	1.0	1.0	1	0.08	blockFiles/set_8/main_safe/rightBlue\GB_RB_2.xlsx
77	main_safe	True	0.0	392	0	3.0	3.0	1.0	1	right	2.0	1.0	1.0	1	0.08	blockFiles/set_8/main_safe/rightBlue\GB_RB_3.xlsx
78	main_safe	True	0.0	392	0	3.0	3.0	0.0	1	left	1.0	0.0	1.0	0	-0.08	blockFiles/set_8/main_safe/rightBlue\GB_RB_3.xlsx
79	main_safe	True	0.0	392	0	3.0	3.0	1.0	1	right	2.0	1.0	1.0	1	0.08	blockFiles/set_8/main_safe/rightBlue\GB_RB_3.xlsx
80	main_safe	True	0.0	392	0	3.0	3.0	1.0	1	right	2.0	1.0	1.0	1	0.08	blockFiles/set_8/main_safe/rightBlue\GB_RB_3.xlsx
81	main_safe	True	0.0	392	0	3.0	3.0	0.0	1	left	1.0	1.0	1.0	0	-0.08	blockFiles/set_8/main_safe/rightBlue\GB_RB_3.xlsx
82	main_safe	True	0.0	392	0	3.0	3.0	0.0	1	left	1.0	1.0	1.0	0	-0.08	blockFiles/set_8/main_safe/rightBlue\GB_RB_3.xlsx
83	main_safe	True	0.0	392	0	3.0	3.0	0.0	1	left	1.0	0.0	1.0	0	-0.08	blockFiles/set_8/main_safe/rightBlue\GB_RB_3.xlsx
84	main_safe	True	0.0	392	0	3.0	3.0	0.0	1	left	1.0	1.0	1.0	0	-0.08	blockFiles/set_8/main_safe/rightBlue\GB_RB_3.xlsx
85	main_safe	True	0.0	392	0	3.0	3.0	1.0	1	right	2.0	1.0	1.0	1	0.08	blockFiles/set_8/main_safe/rightBlue\GB_RB_3.xlsx
86	main_safe	True	0.0	392	0	3.0	3.0	1.0	1	right	2.0	1.0	1.0	1	0.08	blockFiles/set_8/main_safe/rightBlue\GB_RB_3.xlsx
87	main_safe	True	0.0	392	0	3.0	3.0	1.0	1	right	2.0	0.0	1.0	1	0.08	blockFiles/set_8/main_safe/rightBlue\GB_RB_3.xlsx
88	main_safe	True	0.0	392	0	3.0	3.0	0.0	1	left	1.0	0.0	1.0	0	-0.08	blockFiles/set_8/main_safe/rightBlue\GB_RB_3.xlsx
89	main_safe	True	0.0	392	0	3.0	3.0	1.0	1	right	2.0	1.0	1.0	1	0.08	blockFiles/set_8/main_safe/rightBlue\GB_RB_3.xlsx
90	main_safe	True	0.0	392	0	3.0	3.0	1.0	1	right	2.0	1.0	1.0	1	0.08	blockFiles/set_8/main_safe/rightBlue\GB_RB_3.xlsx
91	main_safe	True	0.0	392	0	3.0	3.0	0.0	1	left	1.0	1.0	1.0	0	-0.08	blockFiles/set_8/main_safe/rightBlue\GB_RB_3.xlsx
92	main_safe	True	0.0	392	0	3.0	3.0	1.0	1	right	2.0	1.0	1.0	1	0.08	blockFiles/set_8/main_safe/rightBlue\GB_RB_3.xlsx
93	main_safe	True	0.0	392	0	3.0	3.0	0.0	1	left	1.0	1.0	1.0	0	-0.08	blockFiles/set_8/main_safe/rightBlue\GB_RB_3.xlsx
94	main_safe	True	0.0	392	0	3.0	3.0	1.0	1	right	2.0	1.0	1.0	1	0.08	blockFiles/set_8/main_safe/rightBlue\GB_RB_3.xlsx
95	main_safe	True	0.0	392	0	3.0	3.0	0.0	1	left	1.0	1.0	1.0	0	-0.08	blockFiles/set_8/main_safe/rightBlue\GB_RB_3.xlsx
96	main_safe	True	0.0	392	0	3.0	3.0	1.0	1	right	2.0	1.0	1.0	1	0.08	blockFiles/set_8/main_safe/rightBlue\GB_RB_3.xlsx
97	main_safe	True	0.0	392	0	3.0	3.0	0.0	1	left	1.0	0.0	1.0	0	-0.08	blockFiles/set_8/main_safe/rightBlue\GB_RB_3.xlsx
98	main_safe	True	0.0	392	0	3.0	3.0	1.0	1	right	2.0	1.0	1.0	1	0.08	blockFiles/set_8/main_safe/rightBlue\GB_RB_3.xlsx
99	main_safe	True	0.0	392	0	3.0	3.0	0.0	1	left	1.0	1.0	1.0	0	-0.08	blockFiles/set_8/main_safe/rightBlue\GB_RB_3.xlsx
100	main_safe	True	0.0	392	0	3.0	3.0	0.0	1	left	2.0	1.0	0.0	0	-0.08	blockFiles/set_8/main_safe/rightBlue\GB_RB_3.xlsx
101	main_safe	True	1.0	392	0	3.0	3.0	1.0	1	right	n/a	0.0	n/a	1	0.08	blockFiles/set_8/main_safe/rightBlue\GB_RB_3.xlsx
102	main_safe	True	0.0	392	0	3.0	3.0	1.0	1	right	2.0	1.0	1.0	1	0.08	blockFiles/set_8/main_safe/rightBlue\GB_RB_3.xlsx
103	main_safe	True	0.0	392	0	4.0	4.0	0.0	1	left	1.0	1.0	0.0	0	-0.08	blockFiles/set_8/main_safe/leftBlue\GB_LB_2.xlsx
104	main_safe	True	0.0	392	0	4.0	4.0	0.0	1	left	1.0	0.0	0.0	0	-0.08	blockFiles/set_8/main_safe/leftBlue\GB_LB_2.xlsx
105	main_safe	True	0.0	392	0	4.0	4.0	0.0	1	left	1.0	0.0	0.0	0	-0.08	blockFiles/set_8/main_safe/leftBlue\GB_LB_2.xlsx
106	main_safe	True	0.0	392	0	4.0	4.0	0.0	1	left	1.0	0.0	0.0	0	-0.08	blockFiles/set_8/main_safe/leftBlue\GB_LB_2.xlsx
107	main_safe	True	0.0	392	0	4.0	4.0	1.0	1	right	1.0	1.0	1.0	1	0.08	blockFiles/set_8/main_safe/leftBlue\GB_LB_2.xlsx
108	main_safe	True	0.0	392	0	4.0	4.0	1.0	1	right	1.0	1.0	1.0	1	0.08	blockFiles/set_8/main_safe/leftBlue\GB_LB_2.xlsx
109	main_safe	True	0.0	392	0	4.0	4.0	0.0	1	left	2.0	0.0	1.0	0	-0.08	blockFiles/set_8/main_safe/leftBlue\GB_LB_2.xlsx
110	main_safe	True	0.0	392	0	4.0	4.0	0.0	1	left	2.0	0.0	1.0	0	-0.08	blockFiles/set_8/main_safe/leftBlue\GB_LB_2.xlsx
111	main_safe	True	0.0	392	0	4.0	4.0	1.0	1	right	1.0	1.0	1.0	1	0.08	blockFiles/set_8/main_safe/leftBlue\GB_LB_2.xlsx
112	main_safe	True	0.0	392	0	4.0	4.0	1.0	1	right	1.0	1.0	1.0	1	0.08	blockFiles/set_8/main_safe/leftBlue\GB_LB_2.xlsx
113	main_safe	True	0.0	392	0	4.0	4.0	0.0	1	left	2.0	0.0	1.0	0	-0.08	blockFiles/set_8/main_safe/leftBlue\GB_LB_2.xlsx
114	main_safe	True	0.0	392	0	4.0	4.0	0.0	1	left	2.0	1.0	1.0	0	-0.08	blockFiles/set_8/main_safe/leftBlue\GB_LB_2.xlsx
115	main_safe	True	0.0	392	0	4.0	4.0	1.0	1	right	1.0	1.0	1.0	1	0.08	blockFiles/set_8/main_safe/leftBlue\GB_LB_2.xlsx
116	main_safe	True	0.0	392	0	4.0	4.0	1.0	1	right	1.0	1.0	1.0	1	0.08	blockFiles/set_8/main_safe/leftBlue\GB_LB_2.xlsx
117	main_safe	True	0.0	392	0	4.0	4.0	1.0	1	right	1.0	1.0	1.0	1	0.08	blockFiles/set_8/main_safe/leftBlue\GB_LB_2.xlsx
118	main_safe	True	0.0	392	0	4.0	4.0	1.0	1	right	1.0	1.0	1.0	1	0.08	blockFiles/set_8/main_safe/leftBlue\GB_LB_2.xlsx
119	main_safe	True	0.0	392	0	4.0	4.0	0.0	1	left	2.0	1.0	1.0	0	-0.08	blockFiles/set_8/main_safe/leftBlue\GB_LB_2.xlsx
120	main_safe	True	0.0	392	0	4.0	4.0	0.0	1	left	2.0	1.0	1.0	0	-0.08	blockFiles/set_8/main_safe/leftBlue\GB_LB_2.xlsx
121	main_safe	True	0.0	392	0	4.0	4.0	1.0	1	right	1.0	1.0	1.0	1	0.08	blockFiles/set_8/main_safe/leftBlue\GB_LB_2.xlsx
122	main_safe	True	0.0	392	0	4.0	4.0	0.0	1	left	2.0	1.0	1.0	0	-0.08	blockFiles/set_8/main_safe/leftBlue\GB_LB_2.xlsx
123	main_safe	True	0.0	392	0	4.0	4.0	0.0	1	left	2.0	0.0	1.0	0	-0.08	blockFiles/set_8/main_safe/leftBlue\GB_LB_2.xlsx
124	main_safe	True	0.0	392	0	4.0	4.0	0.0	1	left	2.0	1.0	1.0	0	-0.08	blockFiles/set_8/main_safe/leftBlue\GB_LB_2.xlsx
125	main_safe	True	0.0	392	0	4.0	4.0	1.0	1	right	1.0	1.0	1.0	1	0.08	blockFiles/set_8/main_safe/leftBlue\GB_LB_2.xlsx
126	main_safe	True	0.0	392	0	4.0	4.0	1.0	1	right	1.0	1.0	1.0	1	0.08	blockFiles/set_8/main_safe/leftBlue\GB_LB_2.xlsx
127	main_safe	True	0.0	392	0	4.0	4.0	0.0	1	left	2.0	0.0	1.0	0	-0.08	blockFiles/set_8/main_safe/leftBlue\GB_LB_2.xlsx
128	main_safe	True	1.0	392	0	5.0	5.0	0.0	1	left	n/a	0.0	n/a	0	-0.08	blockFiles/set_8/main_safe/leftBlue\GB_LB_1.xlsx
129	main_safe	True	0.0	392	0	5.0	5.0	0.0	1	left	1.0	0.0	0.0	0	-0.08	blockFiles/set_8/main_safe/leftBlue\GB_LB_1.xlsx
130	main_safe	True	0.0	392	0	5.0	5.0	1.0	1	right	2.0	0.0	0.0	1	0.08	blockFiles/set_8/main_safe/leftBlue\GB_LB_1.xlsx
131	main_safe	True	0.0	392	0	5.0	5.0	0.0	1	left	1.0	0.0	0.0	0	-0.08	blockFiles/set_8/main_safe/leftBlue\GB_LB_1.xlsx
132	main_safe	True	0.0	392	0	5.0	5.0	0.0	1	left	2.0	1.0	1.0	0	-0.08	blockFiles/set_8/main_safe/leftBlue\GB_LB_1.xlsx
133	main_safe	True	0.0	392	0	5.0	5.0	1.0	1	right	1.0	1.0	1.0	1	0.08	blockFiles/set_8/main_safe/leftBlue\GB_LB_1.xlsx
134	main_safe	True	0.0	392	0	5.0	5.0	0.0	1	left	2.0	0.0	1.0	0	-0.08	blockFiles/set_8/main_safe/leftBlue\GB_LB_1.xlsx
135	main_safe	True	0.0	392	0	5.0	5.0	1.0	1	right	1.0	1.0	1.0	1	0.08	blockFiles/set_8/main_safe/leftBlue\GB_LB_1.xlsx
136	main_safe	True	0.0	392	0	5.0	5.0	0.0	1	left	2.0	1.0	1.0	0	-0.08	blockFiles/set_8/main_safe/leftBlue\GB_LB_1.xlsx
137	main_safe	True	0.0	392	0	5.0	5.0	0.0	1	left	2.0	1.0	1.0	0	-0.08	blockFiles/set_8/main_safe/leftBlue\GB_LB_1.xlsx
138	main_safe	True	0.0	392	0	5.0	5.0	1.0	1	right	1.0	1.0	1.0	1	0.08	blockFiles/set_8/main_safe/leftBlue\GB_LB_1.xlsx
139	main_safe	True	0.0	392	0	5.0	5.0	0.0	1	left	2.0	0.0	1.0	0	-0.08	blockFiles/set_8/main_safe/leftBlue\GB_LB_1.xlsx
140	main_safe	True	0.0	392	0	5.0	5.0	1.0	1	right	1.0	1.0	1.0	1	0.08	blockFiles/set_8/main_safe/leftBlue\GB_LB_1.xlsx
141	main_safe	True	0.0	392	0	5.0	5.0	1.0	1	right	1.0	1.0	1.0	1	0.08	blockFiles/set_8/main_safe/leftBlue\GB_LB_1.xlsx
142	main_safe	True	0.0	392	0	5.0	5.0	0.0	1	left	2.0	1.0	1.0	0	-0.08	blockFiles/set_8/main_safe/leftBlue\GB_LB_1.xlsx
143	main_safe	True	0.0	392	0	5.0	5.0	1.0	1	right	1.0	1.0	1.0	1	0.08	blockFiles/set_8/main_safe/leftBlue\GB_LB_1.xlsx
144	main_safe	True	0.0	392	0	5.0	5.0	1.0	1	right	1.0	1.0	1.0	1	0.08	blockFiles/set_8/main_safe/leftBlue\GB_LB_1.xlsx
145	main_safe	True	0.0	392	0	5.0	5.0	0.0	1	left	1.0	1.0	0.0	0	-0.08	blockFiles/set_8/main_safe/leftBlue\GB_LB_1.xlsx
146	main_safe	True	0.0	392	0	5.0	5.0	1.0	1	right	1.0	1.0	1.0	1	0.08	blockFiles/set_8/main_safe/leftBlue\GB_LB_1.xlsx
147	main_safe	True	0.0	392	0	5.0	5.0	1.0	1	right	1.0	1.0	1.0	1	0.08	blockFiles/set_8/main_safe/leftBlue\GB_LB_1.xlsx
148	main_safe	True	0.0	392	0	5.0	5.0	0.0	1	left	2.0	1.0	1.0	0	-0.08	blockFiles/set_8/main_safe/leftBlue\GB_LB_1.xlsx
149	main_safe	True	0.0	392	0	5.0	5.0	0.0	1	left	2.0	1.0	1.0	0	-0.08	blockFiles/set_8/main_safe/leftBlue\GB_LB_1.xlsx
150	main_safe	True	0.0	392	0	5.0	5.0	1.0	1	right	1.0	1.0	1.0	1	0.08	blockFiles/set_8/main_safe/leftBlue\GB_LB_1.xlsx
151	main_safe	True	0.0	392	0	5.0	5.0	1.0	1	right	1.0	0.0	1.0	1	0.08	blockFiles/set_8/main_safe/leftBlue\GB_LB_1.xlsx
152	main_safe	True	0.0	392	0	5.0	5.0	1.0	1	right	1.0	1.0	1.0	1	0.08	blockFiles/set_8/main_safe/leftBlue\GB_LB_1.xlsx
153	main_safe	True	0.0	392	0	5.0	5.0	0.0	1	left	2.0	0.0	1.0	0	-0.08	blockFiles/set_8/main_safe/leftBlue\GB_LB_1.xlsx
154	patches	True	n/a	392	0	n/a	n/a	1.0	1	right	n/a	n/a	n/a	1	0.0452776707895	blockFiles/set_8/main_PD/GB_runPatches1.xlsx
155	patches	True	n/a	392	0	n/a	n/a	0.0	1	left	n/a	n/a	n/a	0	-0.07979453122239999	blockFiles/set_8/main_PD/GB_runPatches1.xlsx
156	patches	True	n/a	392	0	n/a	n/a	1.0	0	right	n/a	n/a	n/a	0	-0.0181786387973	blockFiles/set_8/main_PD/GB_runPatches1.xlsx
157	patches	True	n/a	392	0	n/a	n/a	1.0	0	right	n/a	n/a	n/a	0	-0.0035465845279399996	blockFiles/set_8/main_PD/GB_runPatches1.xlsx
158	patches	True	n/a	392	0	n/a	n/a	n/a	0	None	n/a	n/a	n/a	0	-0.0203018076718	blockFiles/set_8/main_PD/GB_runPatches1.xlsx
159	patches	True	n/a	392	0	n/a	n/a	0.0	1	left	n/a	n/a	n/a	0	-0.0776273218729	blockFiles/set_8/main_PD/GB_runPatches1.xlsx
160	patches	True	n/a	392	0	n/a	n/a	0.0	1	left	n/a	n/a	n/a	0	-0.0444291298278	blockFiles/set_8/main_PD/GB_runPatches1.xlsx
161	patches	True	n/a	392	0	n/a	n/a	1.0	1	right	n/a	n/a	n/a	1	0.0368906419165	blockFiles/set_8/main_PD/GB_runPatches1.xlsx
162	patches	True	n/a	392	0	n/a	n/a	1.0	1	right	n/a	n/a	n/a	1	0.07844446472819999	blockFiles/set_8/main_PD/GB_runPatches1.xlsx
163	patches	True	n/a	392	0	n/a	n/a	0.0	1	left	n/a	n/a	n/a	0	-0.017549784462900002	blockFiles/set_8/main_PD/GB_runPatches1.xlsx
164	patches	True	n/a	392	0	n/a	n/a	1.0	1	right	n/a	n/a	n/a	1	0.0331316180155	blockFiles/set_8/main_PD/GB_runPatches1.xlsx
165	patches	True	n/a	392	0	n/a	n/a	1.0	1	right	n/a	n/a	n/a	1	0.06569050816819999	blockFiles/set_8/main_PD/GB_runPatches1.xlsx
166	patches	True	n/a	392	0	n/a	n/a	1.0	1	right	n/a	n/a	n/a	1	0.0363467409834	blockFiles/set_8/main_PD/GB_runPatches1.xlsx
167	patches	True	n/a	392	0	n/a	n/a	1.0	0	right	n/a	n/a	n/a	0	-0.011524721551700002	blockFiles/set_8/main_PD/GB_runPatches1.xlsx
168	patches	True	n/a	392	0	n/a	n/a	1.0	1	right	n/a	n/a	n/a	1	0.027011111453200003	blockFiles/set_8/main_PD/GB_runPatches1.xlsx
169	patches	True	n/a	392	0	n/a	n/a	1.0	1	right	n/a	n/a	n/a	1	0.0547614578716	blockFiles/set_8/main_PD/GB_runPatches1.xlsx
170	patches	True	n/a	392	0	n/a	n/a	0.0	1	left	n/a	n/a	n/a	0	-0.0307852505706	blockFiles/set_8/main_PD/GB_runPatches1.xlsx
171	patches	True	n/a	392	0	n/a	n/a	0.0	1	left	n/a	n/a	n/a	0	-0.0309819436632	blockFiles/set_8/main_PD/GB_runPatches1.xlsx
172	patches	True	n/a	392	0	n/a	n/a	1.0	1	right	n/a	n/a	n/a	1	0.0522460263036	blockFiles/set_8/main_PD/GB_runPatches1.xlsx
173	patches	True	n/a	392	0	n/a	n/a	0.0	1	left	n/a	n/a	n/a	0	-0.0707402796857	blockFiles/set_8/main_PD/GB_runPatches1.xlsx
174	patches	True	n/a	392	0	n/a	n/a	0.0	1	left	n/a	n/a	n/a	0	-0.031221413817300002	blockFiles/set_8/main_PD/GB_runPatches1.xlsx
175	patches	True	n/a	392	0	n/a	n/a	1.0	1	right	n/a	n/a	n/a	1	0.0559351412952	blockFiles/set_8/main_PD/GB_runPatches1.xlsx
176	patches	True	n/a	392	0	n/a	n/a	0.0	0	left	n/a	n/a	n/a	1	0.00242282414809	blockFiles/set_8/main_PD/GB_runPatches1.xlsx
177	patches	True	n/a	392	0	n/a	n/a	1.0	1	right	n/a	n/a	n/a	1	0.04473210459580001	blockFiles/set_8/main_PD/GB_runPatches1.xlsx
178	patches	True	n/a	392	0	n/a	n/a	1.0	1	right	n/a	n/a	n/a	1	0.051437653359	blockFiles/set_8/main_PD/GB_runPatches1.xlsx
179	patches	True	n/a	392	0	n/a	n/a	0.0	1	left	n/a	n/a	n/a	0	-0.0782502617687	blockFiles/set_8/main_PD/GB_runPatches1.xlsx
180	patches	True	n/a	392	0	n/a	n/a	1.0	0	right	n/a	n/a	n/a	0	-0.023907040059599996	blockFiles/set_8/main_PD/GB_runPatches1.xlsx
181	patches	True	n/a	392	0	n/a	n/a	1.0	1	right	n/a	n/a	n/a	1	0.053111498113699994	blockFiles/set_8/main_PD/GB_runPatches1.xlsx
182	patches	True	n/a	392	0	n/a	n/a	0.0	1	left	n/a	n/a	n/a	0	-0.0625202405453	blockFiles/set_8/main_PD/GB_runPatches1.xlsx
183	patches	True	n/a	392	0	n/a	n/a	0.0	0	left	n/a	n/a	n/a	1	0.0173838744313	blockFiles/set_8/main_PD/GB_runPatches1.xlsx
184	patches	True	n/a	392	0	n/a	n/a	1.0	1	right	n/a	n/a	n/a	1	0.016809367649299998	blockFiles/set_8/main_PD/GB_runPatches1.xlsx
185	patches	True	n/a	392	0	n/a	n/a	1.0	1	right	n/a	n/a	n/a	1	0.05965404912830001	blockFiles/set_8/main_PD/GB_runPatches1.xlsx
186	patches	True	n/a	392	0	n/a	n/a	1.0	1	right	n/a	n/a	n/a	1	0.00212665488943	blockFiles/set_8/main_PD/GB_runPatches1.xlsx
187	patches	True	n/a	392	0	n/a	n/a	1.0	0	right	n/a	n/a	n/a	0	-0.0147402061522	blockFiles/set_8/main_PD/GB_runPatches1.xlsx
188	patches	True	n/a	392	0	n/a	n/a	1.0	1	right	n/a	n/a	n/a	1	0.036728492211599996	blockFiles/set_8/main_PD/GB_runPatches1.xlsx
189	patches	True	n/a	392	0	n/a	n/a	0.0	1	left	n/a	n/a	n/a	0	-0.05234577696769999	blockFiles/set_8/main_PD/GB_runPatches1.xlsx
190	patches	True	n/a	392	0	n/a	n/a	1.0	1	right	n/a	n/a	n/a	1	0.0563492265157	blockFiles/set_8/main_PD/GB_runPatches1.xlsx
191	patches	True	n/a	392	0	n/a	n/a	1.0	1	right	n/a	n/a	n/a	1	0.023756006266900002	blockFiles/set_8/main_PD/GB_runPatches1.xlsx
192	patches	True	n/a	392	0	n/a	n/a	1.0	0	right	n/a	n/a	n/a	0	-0.015100283715899998	blockFiles/set_8/main_PD/GB_runPatches1.xlsx
193	patches	True	n/a	392	0	n/a	n/a	0.0	1	left	n/a	n/a	n/a	0	-0.053474588859800005	blockFiles/set_8/main_PD/GB_runPatches1.xlsx
194	patches	True	n/a	392	0	n/a	n/a	0.0	0	left	n/a	n/a	n/a	1	0.0450261291862	blockFiles/set_8/main_PD/GB_runPatches1.xlsx
195	patches	True	n/a	392	0	n/a	n/a	1.0	1	right	n/a	n/a	n/a	1	0.04952437719330001	blockFiles/set_8/main_PD/GB_runPatches1.xlsx
196	patches	True	n/a	392	0	n/a	n/a	0.0	1	left	n/a	n/a	n/a	0	-0.0560360314697	blockFiles/set_8/main_PD/GB_runPatches1.xlsx
197	patches	True	n/a	392	0	n/a	n/a	0.0	1	left	n/a	n/a	n/a	0	-0.0626584618725	blockFiles/set_8/main_PD/GB_runPatches1.xlsx
198	patches	True	n/a	392	0	n/a	n/a	1.0	0	right	n/a	n/a	n/a	0	-0.0372517821006	blockFiles/set_8/main_PD/GB_runPatches1.xlsx
199	patches	True	n/a	392	0	n/a	n/a	0.0	1	left	n/a	n/a	n/a	0	-0.031638431586299996	blockFiles/set_8/main_PD/GB_runPatches1.xlsx
200	patches	True	n/a	392	0	n/a	n/a	0.0	1	left	n/a	n/a	n/a	0	-0.054560527745599996	blockFiles/set_8/main_PD/GB_runPatches1.xlsx
201	patches	True	n/a	392	0	n/a	n/a	1.0	1	right	n/a	n/a	n/a	1	0.0378159989044	blockFiles/set_8/main_PD/GB_runPatches1.xlsx
202	patches	True	n/a	392	0	n/a	n/a	1.0	1	right	n/a	n/a	n/a	1	0.04044754743580001	blockFiles/set_8/main_PD/GB_runPatches1.xlsx
203	patches	True	n/a	392	0	n/a	n/a	0.0	1	left	n/a	n/a	n/a	0	-0.0654643191956	blockFiles/set_8/main_PD/GB_runPatches1.xlsx
204	patches	True	n/a	392	0	n/a	n/a	1.0	0	right	n/a	n/a	n/a	0	-0.018619405143	blockFiles/set_8/main_PD/GB_runPatches1.xlsx
205	patches	True	n/a	392	0	n/a	n/a	1.0	1	right	n/a	n/a	n/a	1	0.0470244883932	blockFiles/set_8/main_PD/GB_runPatches1.xlsx
206	patches	True	n/a	392	0	n/a	n/a	1.0	0	right	n/a	n/a	n/a	0	-0.0247765899822	blockFiles/set_8/main_PD/GB_runPatches1.xlsx
207	patches	True	n/a	392	0	n/a	n/a	0.0	1	left	n/a	n/a	n/a	0	-0.0612235561199	blockFiles/set_8/main_PD/GB_runPatches1.xlsx
208	patches	True	n/a	392	0	n/a	n/a	0.0	1	left	n/a	n/a	n/a	0	-0.0109639002755	blockFiles/set_8/main_PD/GB_runPatches1.xlsx
209	patches	True	n/a	392	0	n/a	n/a	1.0	1	right	n/a	n/a	n/a	1	0.0594520438649	blockFiles/set_8/main_PD/GB_runPatches1.xlsx
210	patches	True	n/a	392	0	n/a	n/a	1.0	1	right	n/a	n/a	n/a	1	0.015565889589499999	blockFiles/set_8/main_PD/GB_runPatches1.xlsx
211	patches	True	n/a	392	0	n/a	n/a	1.0	0	right	n/a	n/a	n/a	0	-0.00800900096074	blockFiles/set_8/main_PD/GB_runPatches1.xlsx
212	patches	True	n/a	392	0	n/a	n/a	0.0	1	left	n/a	n/a	n/a	0	-0.0351005744562	blockFiles/set_8/main_PD/GB_runPatches1.xlsx
213	patches	True	n/a	392	0	n/a	n/a	0.0	1	left	n/a	n/a	n/a	0	-0.0403183838353	blockFiles/set_8/main_PD/GB_runPatches1.xlsx
214	patches	True	n/a	392	0	n/a	n/a	1.0	1	right	n/a	n/a	n/a	1	0.07851242756469999	blockFiles/set_8/main_PD/GB_runPatches1.xlsx
215	patches	True	n/a	392	0	n/a	n/a	1.0	1	right	n/a	n/a	n/a	1	0.04900551754980001	blockFiles/set_8/main_PD/GB_runPatches1.xlsx
216	patches	True	n/a	392	0	n/a	n/a	1.0	1	right	n/a	n/a	n/a	1	0.025951622575500002	blockFiles/set_8/main_PD/GB_runPatches1.xlsx
217	patches	True	n/a	392	0	n/a	n/a	1.0	1	right	n/a	n/a	n/a	1	0.034956736117599994	blockFiles/set_8/main_PD/GB_runPatches1.xlsx
218	patches	True	n/a	392	0	n/a	n/a	1.0	1	right	n/a	n/a	n/a	1	0.0271211572364	blockFiles/set_8/main_PD/GB_runPatches1.xlsx
219	patches	True	n/a	392	0	n/a	n/a	0.0	1	left	n/a	n/a	n/a	0	-0.07423276513810001	blockFiles/set_8/main_PD/GB_runPatches1.xlsx
220	patches	True	n/a	392	0	n/a	n/a	1.0	1	right	n/a	n/a	n/a	1	0.0626757945307	blockFiles/set_8/main_PD/GB_runPatches1.xlsx
221	patches	True	n/a	392	0	n/a	n/a	1.0	0	right	n/a	n/a	n/a	0	-0.028031756747499997	blockFiles/set_8/main_PD/GB_runPatches1.xlsx
222	patches	True	n/a	392	0	n/a	n/a	0.0	1	left	n/a	n/a	n/a	0	-0.05703803068030001	blockFiles/set_8/main_PD/GB_runPatches1.xlsx
223	patches	True	n/a	392	0	n/a	n/a	1.0	1	right	n/a	n/a	n/a	1	0.022096999418000002	blockFiles/set_8/main_PD/GB_runPatches1.xlsx
224	patches	True	n/a	392	0	n/a	n/a	0.0	1	left	n/a	n/a	n/a	0	-0.0208156488463	blockFiles/set_8/main_PD/GB_runPatches1.xlsx
225	patches	True	n/a	392	0	n/a	n/a	1.0	1	right	n/a	n/a	n/a	1	0.026338880229700004	blockFiles/set_8/main_PD/GB_runPatches1.xlsx
226	patches	True	n/a	392	0	n/a	n/a	1.0	0	right	n/a	n/a	n/a	0	-0.027118958775	blockFiles/set_8/main_PD/GB_runPatches1.xlsx
227	patches	True	n/a	392	0	n/a	n/a	0.0	1	left	n/a	n/a	n/a	0	-0.0533834659681	blockFiles/set_8/main_PD/GB_runPatches1.xlsx
228	patches	True	n/a	392	0	n/a	n/a	0.0	1	left	n/a	n/a	n/a	0	-0.0572165493295	blockFiles/set_8/main_PD/GB_runPatches1.xlsx
229	patches	True	n/a	392	0	n/a	n/a	1.0	1	right	n/a	n/a	n/a	1	0.0247722423449	blockFiles/set_8/main_PD/GB_runPatches1.xlsx
230	patches	True	n/a	392	0	n/a	n/a	1.0	1	right	n/a	n/a	n/a	1	0.0172479757667	blockFiles/set_8/main_PD/GB_runPatches1.xlsx
231	patches	True	n/a	392	0	n/a	n/a	1.0	1	right	n/a	n/a	n/a	1	0.0422059936821	blockFiles/set_8/main_PD/GB_runPatches1.xlsx
232	patches	True	n/a	392	0	n/a	n/a	1.0	1	right	n/a	n/a	n/a	1	0.0386640489846	blockFiles/set_8/main_PD/GB_runPatches1.xlsx
233	patches	True	n/a	392	0	n/a	n/a	1.0	1	right	n/a	n/a	n/a	1	0.0355214095488	blockFiles/set_8/main_PD/GB_runPatches1.xlsx
234	patches	True	n/a	392	0	n/a	n/a	0.0	1	left	n/a	n/a	n/a	0	-0.0498632700182	blockFiles/set_8/main_PD/GB_runPatches1.xlsx
235	patches	True	n/a	392	0	n/a	n/a	1.0	1	right	n/a	n/a	n/a	1	0.056261462178100005	blockFiles/set_8/main_PD/GB_runPatches1.xlsx
236	patches	True	n/a	392	0	n/a	n/a	1.0	0	right	n/a	n/a	n/a	0	-0.000577160511166	blockFiles/set_8/main_PD/GB_runPatches1.xlsx
237	patches	True	n/a	392	0	n/a	n/a	1.0	1	right	n/a	n/a	n/a	1	0.0690819775127	blockFiles/set_8/main_PD/GB_runPatches1.xlsx
238	patches	True	n/a	392	0	n/a	n/a	1.0	1	right	n/a	n/a	n/a	1	0.07083271920680001	blockFiles/set_8/main_PD/GB_runPatches1.xlsx
239	patches	True	n/a	392	0	n/a	n/a	0.0	1	left	n/a	n/a	n/a	0	-0.0475960179232	blockFiles/set_8/main_PD/GB_runPatches1.xlsx
240	patches	True	n/a	392	0	n/a	n/a	1.0	1	right	n/a	n/a	n/a	1	0.012875877097200002	blockFiles/set_8/main_PD/GB_runPatches1.xlsx
241	patches	True	n/a	392	0	n/a	n/a	0.0	1	left	n/a	n/a	n/a	0	-0.010983414147000001	blockFiles/set_8/main_PD/GB_runPatches1.xlsx
242	patches	True	n/a	392	0	n/a	n/a	0.0	1	left	n/a	n/a	n/a	0	-0.0751541022956	blockFiles/set_8/main_PD/GB_runPatches1.xlsx
243	patches	True	n/a	392	0	n/a	n/a	1.0	1	right	n/a	n/a	n/a	1	0.0459749426506	blockFiles/set_8/main_PD/GB_runPatches1.xlsx
244	patches	True	n/a	392	0	n/a	n/a	1.0	1	right	n/a	n/a	n/a	1	0.051550357695699996	blockFiles/set_8/main_PD/GB_runPatches1.xlsx
245	patches	True	n/a	392	0	n/a	n/a	0.0	1	left	n/a	n/a	n/a	0	-0.0705172488466	blockFiles/set_8/main_PD/GB_runPatches1.xlsx
246	patches	True	n/a	392	0	n/a	n/a	0.0	1	left	n/a	n/a	n/a	0	-0.040388514585800006	blockFiles/set_8/main_PD/GB_runPatches1.xlsx
247	patches	True	n/a	392	0	n/a	n/a	0.0	1	left	n/a	n/a	n/a	0	-0.07163376348089999	blockFiles/set_8/main_PD/GB_runPatches1.xlsx
248	patches	True	n/a	392	0	n/a	n/a	0.0	1	left	n/a	n/a	n/a	0	-0.0162902050093	blockFiles/set_8/main_PD/GB_runPatches1.xlsx
249	patches	True	n/a	392	0	n/a	n/a	0.0	0	left	n/a	n/a	n/a	1	0.00799477603287	blockFiles/set_8/main_PD/GB_runPatches1.xlsx
250	patches	True	n/a	392	0	n/a	n/a	0.0	1	left	n/a	n/a	n/a	0	-0.0735924527422	blockFiles/set_8/main_PD/GB_runPatches1.xlsx
251	patches	True	n/a	392	0	n/a	n/a	1.0	1	right	n/a	n/a	n/a	1	0.0421331768669	blockFiles/set_8/main_PD/GB_runPatches1.xlsx
252	patches	True	n/a	392	0	n/a	n/a	1.0	1	right	n/a	n/a	n/a	1	0.0145013233833	blockFiles/set_8/main_PD/GB_runPatches1.xlsx
253	patches	True	n/a	392	0	n/a	n/a	0.0	1	left	n/a	n/a	n/a	0	-0.0236340625398	blockFiles/set_8/main_PD/GB_runPatches1.xlsx
254	main_unc	True	0.0	392	0	0.0	0.0	1.0	1	right	2.0	0.0	0.0	1	0.04089736068619999	blockFiles/set_8/main_unc/leftBlue\GB_LB_1.xlsx
255	main_unc	True	0.0	392	0	0.0	0.0	1.0	1	right	2.0	0.0	0.0	1	0.0149244557507	blockFiles/set_8/main_unc/leftBlue\GB_LB_1.xlsx
256	main_unc	True	0.0	392	0	0.0	0.0	1.0	1	right	1.0	1.0	1.0	1	0.0645918859355	blockFiles/set_8/main_unc/leftBlue\GB_LB_1.xlsx
257	main_unc	True	0.0	392	0	0.0	0.0	1.0	1	right	1.0	1.0	1.0	1	0.0423529336415	blockFiles/set_8/main_unc/leftBlue\GB_LB_1.xlsx
258	main_unc	True	0.0	392	0	0.0	0.0	1.0	1	right	1.0	0.0	1.0	1	0.0497116295435	blockFiles/set_8/main_unc/leftBlue\GB_LB_1.xlsx
259	main_unc	True	0.0	392	0	0.0	0.0	1.0	1	right	1.0	1.0	1.0	1	0.0360976962373	blockFiles/set_8/main_unc/leftBlue\GB_LB_1.xlsx
260	main_unc	True	0.0	392	0	0.0	0.0	0.0	1	left	2.0	1.0	1.0	0	-0.0282981896214	blockFiles/set_8/main_unc/leftBlue\GB_LB_1.xlsx
261	main_unc	True	0.0	392	0	0.0	0.0	0.0	1	left	2.0	1.0	1.0	0	-0.0715387777798	blockFiles/set_8/main_unc/leftBlue\GB_LB_1.xlsx
262	main_unc	True	0.0	392	0	0.0	0.0	0.0	1	left	2.0	1.0	1.0	0	-0.00685262097046	blockFiles/set_8/main_unc/leftBlue\GB_LB_1.xlsx
263	main_unc	True	0.0	392	0	0.0	0.0	0.0	1	left	2.0	1.0	1.0	0	-0.03480715556069999	blockFiles/set_8/main_unc/leftBlue\GB_LB_1.xlsx
264	main_unc	True	0.0	392	0	0.0	0.0	1.0	1	right	1.0	1.0	1.0	1	0.041885424889599995	blockFiles/set_8/main_unc/leftBlue\GB_LB_1.xlsx
265	main_unc	True	0.0	392	0	0.0	0.0	0.0	1	left	2.0	1.0	1.0	0	-0.0509246980026	blockFiles/set_8/main_unc/leftBlue\GB_LB_1.xlsx
266	main_unc	True	0.0	392	0	0.0	0.0	0.0	1	left	2.0	1.0	1.0	0	-0.0589516283385	blockFiles/set_8/main_unc/leftBlue\GB_LB_1.xlsx
267	main_unc	True	0.0	392	0	0.0	0.0	1.0	1	right	1.0	0.0	1.0	1	0.06911300167439999	blockFiles/set_8/main_unc/leftBlue\GB_LB_1.xlsx
268	main_unc	True	0.0	392	0	0.0	0.0	0.0	1	left	2.0	1.0	1.0	0	-0.027267784867400002	blockFiles/set_8/main_unc/leftBlue\GB_LB_1.xlsx
269	main_unc	True	0.0	392	0	0.0	0.0	1.0	1	right	1.0	0.0	1.0	1	0.043350812084999996	blockFiles/set_8/main_unc/leftBlue\GB_LB_1.xlsx
270	main_unc	True	0.0	392	0	0.0	0.0	0.0	1	left	2.0	1.0	1.0	0	-0.0280648388527	blockFiles/set_8/main_unc/leftBlue\GB_LB_1.xlsx
271	main_unc	True	0.0	392	0	0.0	0.0	0.0	1	left	2.0	0.0	1.0	0	-0.0262314966507	blockFiles/set_8/main_unc/leftBlue\GB_LB_1.xlsx
272	main_unc	True	0.0	392	0	0.0	0.0	0.0	1	left	2.0	1.0	1.0	0	-0.0023905945383000003	blockFiles/set_8/main_unc/leftBlue\GB_LB_1.xlsx
273	main_unc	True	0.0	392	0	0.0	0.0	1.0	1	right	1.0	1.0	1.0	1	0.05953598884869999	blockFiles/set_8/main_unc/leftBlue\GB_LB_1.xlsx
274	main_unc	True	0.0	392	0	0.0	0.0	1.0	1	right	1.0	1.0	1.0	1	0.0759733847715	blockFiles/set_8/main_unc/leftBlue\GB_LB_1.xlsx
275	main_unc	True	0.0	392	0	0.0	0.0	1.0	1	right	1.0	1.0	1.0	1	0.0415455522947	blockFiles/set_8/main_unc/leftBlue\GB_LB_1.xlsx
276	main_unc	True	0.0	392	0	0.0	0.0	0.0	1	left	2.0	1.0	1.0	0	-0.0210901190154	blockFiles/set_8/main_unc/leftBlue\GB_LB_1.xlsx
277	main_unc	True	0.0	392	0	0.0	0.0	0.0	1	left	2.0	1.0	1.0	0	-0.0691755877994	blockFiles/set_8/main_unc/leftBlue\GB_LB_1.xlsx
278	main_unc	True	0.0	392	0	0.0	0.0	0.0	1	left	2.0	0.0	1.0	0	-0.06663120754060001	blockFiles/set_8/main_unc/leftBlue\GB_LB_1.xlsx
279	main_unc	True	0.0	392	0	1.0	1.0	0.0	1	left	1.0	1.0	1.0	0	-0.014480234738399999	blockFiles/set_8/main_unc/rightBlue\GB_RB_3.xlsx
280	main_unc	True	0.0	392	0	1.0	1.0	1.0	1	right	2.0	1.0	1.0	1	0.0550303754583	blockFiles/set_8/main_unc/rightBlue\GB_RB_3.xlsx
281	main_unc	True	0.0	392	0	1.0	1.0	0.0	1	left	1.0	0.0	1.0	0	-0.024762106947599997	blockFiles/set_8/main_unc/rightBlue\GB_RB_3.xlsx
282	main_unc	True	0.0	392	0	1.0	1.0	1.0	1	right	2.0	1.0	1.0	1	0.0144518310763	blockFiles/set_8/main_unc/rightBlue\GB_RB_3.xlsx
283	main_unc	True	0.0	392	0	1.0	1.0	1.0	1	right	2.0	1.0	1.0	1	0.0596045200527	blockFiles/set_8/main_unc/rightBlue\GB_RB_3.xlsx
284	main_unc	True	1.0	392	0	1.0	1.0	n/a	0	None	n/a	0.0	n/a	0	-0.027293411158	blockFiles/set_8/main_unc/rightBlue\GB_RB_3.xlsx
285	main_unc	True	0.0	392	0	1.0	1.0	1.0	1	right	2.0	1.0	1.0	1	0.0517720540799	blockFiles/set_8/main_unc/rightBlue\GB_RB_3.xlsx
286	main_unc	True	0.0	392	0	1.0	1.0	0.0	1	left	1.0	1.0	1.0	0	-0.0727564515918	blockFiles/set_8/main_unc/rightBlue\GB_RB_3.xlsx
287	main_unc	True	0.0	392	0	1.0	1.0	1.0	1	right	2.0	0.0	1.0	1	0.0586157771572	blockFiles/set_8/main_unc/rightBlue\GB_RB_3.xlsx
288	main_unc	True	0.0	392	0	1.0	1.0	0.0	1	left	1.0	1.0	1.0	0	-0.0131168565154	blockFiles/set_8/main_unc/rightBlue\GB_RB_3.xlsx
289	main_unc	True	0.0	392	0	1.0	1.0	1.0	1	right	2.0	0.0	1.0	1	0.0263328545727	blockFiles/set_8/main_unc/rightBlue\GB_RB_3.xlsx
290	main_unc	True	0.0	392	0	1.0	1.0	1.0	1	right	2.0	1.0	1.0	1	0.0348889622651	blockFiles/set_8/main_unc/rightBlue\GB_RB_3.xlsx
291	main_unc	True	0.0	392	0	1.0	1.0	1.0	1	right	2.0	1.0	1.0	1	0.0552600274235	blockFiles/set_8/main_unc/rightBlue\GB_RB_3.xlsx
292	main_unc	True	0.0	392	0	1.0	1.0	0.0	1	left	1.0	1.0	1.0	0	-0.014248015116900001	blockFiles/set_8/main_unc/rightBlue\GB_RB_3.xlsx
293	main_unc	True	0.0	392	0	1.0	1.0	0.0	1	left	1.0	0.0	1.0	0	-0.0102294564992	blockFiles/set_8/main_unc/rightBlue\GB_RB_3.xlsx
294	main_unc	True	0.0	392	0	1.0	1.0	0.0	1	left	1.0	1.0	1.0	0	-0.0566518312879	blockFiles/set_8/main_unc/rightBlue\GB_RB_3.xlsx
295	main_unc	True	0.0	392	0	1.0	1.0	0.0	1	left	1.0	1.0	1.0	0	-0.0792382926494	blockFiles/set_8/main_unc/rightBlue\GB_RB_3.xlsx
296	main_unc	True	0.0	392	0	1.0	1.0	0.0	0	left	2.0	1.0	1.0	1	0.026028545703699998	blockFiles/set_8/main_unc/rightBlue\GB_RB_3.xlsx
297	main_unc	True	0.0	392	0	1.0	1.0	0.0	1	left	1.0	1.0	1.0	0	-0.0322391541675	blockFiles/set_8/main_unc/rightBlue\GB_RB_3.xlsx
298	main_unc	True	0.0	392	0	1.0	1.0	0.0	1	left	1.0	1.0	1.0	0	-0.0639700555243	blockFiles/set_8/main_unc/rightBlue\GB_RB_3.xlsx
299	main_unc	True	0.0	392	0	1.0	1.0	1.0	1	right	2.0	1.0	1.0	1	0.00686698656529	blockFiles/set_8/main_unc/rightBlue\GB_RB_3.xlsx
300	main_unc	True	0.0	392	0	1.0	1.0	0.0	1	left	1.0	1.0	1.0	0	-0.015088277049399999	blockFiles/set_8/main_unc/rightBlue\GB_RB_3.xlsx
301	main_unc	True	0.0	392	0	1.0	1.0	0.0	1	left	1.0	0.0	1.0	0	-0.023323979750299997	blockFiles/set_8/main_unc/rightBlue\GB_RB_3.xlsx
302	main_unc	True	0.0	392	0	1.0	1.0	1.0	1	right	2.0	1.0	1.0	1	0.0477903519943	blockFiles/set_8/main_unc/rightBlue\GB_RB_3.xlsx
303	main_unc	True	0.0	392	0	1.0	1.0	0.0	1	left	1.0	1.0	1.0	0	-0.0394692930207	blockFiles/set_8/main_unc/rightBlue\GB_RB_3.xlsx
304	main_unc	True	0.0	392	0	1.0	1.0	0.0	1	left	1.0	1.0	1.0	0	-0.027293411158	blockFiles/set_8/main_unc/rightBlue\GB_RB_3.xlsx
305	main_unc	True	0.0	392	0	2.0	2.0	1.0	1	right	1.0	0.0	0.0	1	0.0008047690428789999	blockFiles/set_8/main_unc/rightBlue\GB_RB_4.xlsx
306	main_unc	True	1.0	392	0	2.0	2.0	n/a	0	None	n/a	0.0	n/a	1	0.0598379401676	blockFiles/set_8/main_unc/rightBlue\GB_RB_4.xlsx
307	main_unc	True	0.0	392	0	2.0	2.0	1.0	1	right	1.0	0.0	0.0	1	0.0720966461487	blockFiles/set_8/main_unc/rightBlue\GB_RB_4.xlsx
308	main_unc	True	0.0	392	0	2.0	2.0	0.0	1	left	2.0	0.0	0.0	0	-0.034386728461800006	blockFiles/set_8/main_unc/rightBlue\GB_RB_4.xlsx
309	main_unc	True	0.0	392	0	2.0	2.0	1.0	1	right	2.0	1.0	1.0	1	0.0009753861650820001	blockFiles/set_8/main_unc/rightBlue\GB_RB_4.xlsx
310	main_unc	True	0.0	392	0	2.0	2.0	1.0	1	right	2.0	1.0	1.0	1	0.07720386248080001	blockFiles/set_8/main_unc/rightBlue\GB_RB_4.xlsx
311	main_unc	True	0.0	392	0	2.0	2.0	1.0	1	right	2.0	1.0	1.0	1	0.00984807025641	blockFiles/set_8/main_unc/rightBlue\GB_RB_4.xlsx
312	main_unc	True	0.0	392	0	2.0	2.0	1.0	1	right	2.0	1.0	1.0	1	0.026481746211599995	blockFiles/set_8/main_unc/rightBlue\GB_RB_4.xlsx
313	main_unc	True	0.0	392	0	2.0	2.0	0.0	1	left	2.0	0.0	0.0	0	-0.00548589127138	blockFiles/set_8/main_unc/rightBlue\GB_RB_4.xlsx
314	main_unc	True	0.0	392	0	2.0	2.0	1.0	1	right	1.0	1.0	0.0	1	0.044852241128699996	blockFiles/set_8/main_unc/rightBlue\GB_RB_4.xlsx
315	main_unc	True	0.0	392	0	2.0	2.0	0.0	1	left	2.0	0.0	0.0	0	-0.0511526595615	blockFiles/set_8/main_unc/rightBlue\GB_RB_4.xlsx
316	main_unc	True	0.0	392	0	2.0	2.0	0.0	1	left	2.0	1.0	0.0	0	-0.0457962626778	blockFiles/set_8/main_unc/rightBlue\GB_RB_4.xlsx
317	main_unc	True	0.0	392	0	2.0	2.0	0.0	1	left	2.0	1.0	0.0	0	-0.0547827033885	blockFiles/set_8/main_unc/rightBlue\GB_RB_4.xlsx
318	main_unc	True	0.0	392	0	2.0	2.0	1.0	1	right	1.0	0.0	0.0	1	0.07299449006099999	blockFiles/set_8/main_unc/rightBlue\GB_RB_4.xlsx
319	main_unc	True	1.0	392	0	2.0	2.0	n/a	0	None	n/a	0.0	n/a	0	-0.0343974642269	blockFiles/set_8/main_unc/rightBlue\GB_RB_4.xlsx
320	main_unc	True	0.0	392	0	2.0	2.0	1.0	1	right	1.0	0.0	0.0	1	0.024871598873299997	blockFiles/set_8/main_unc/rightBlue\GB_RB_4.xlsx
321	main_unc	True	0.0	392	0	2.0	2.0	1.0	0	right	2.0	1.0	0.0	0	-0.011146382931600002	blockFiles/set_8/main_unc/rightBlue\GB_RB_4.xlsx
322	main_unc	True	0.0	392	0	2.0	2.0	0.0	1	left	2.0	0.0	0.0	0	-0.0668994041719	blockFiles/set_8/main_unc/rightBlue\GB_RB_4.xlsx
323	main_unc	True	0.0	392	0	2.0	2.0	1.0	1	right	1.0	0.0	0.0	1	0.0663845251501	blockFiles/set_8/main_unc/rightBlue\GB_RB_4.xlsx
324	main_unc	True	0.0	392	0	2.0	2.0	1.0	1	right	1.0	0.0	0.0	1	0.0640406417288	blockFiles/set_8/main_unc/rightBlue\GB_RB_4.xlsx
325	main_unc	True	0.0	392	0	2.0	2.0	0.0	1	left	2.0	0.0	0.0	0	-0.048620287925000005	blockFiles/set_8/main_unc/rightBlue\GB_RB_4.xlsx
326	main_unc	True	0.0	392	0	2.0	2.0	0.0	1	left	2.0	1.0	0.0	0	-0.024839077536	blockFiles/set_8/main_unc/rightBlue\GB_RB_4.xlsx
327	main_unc	True	0.0	392	0	2.0	2.0	1.0	1	right	1.0	0.0	0.0	1	0.0207679870538	blockFiles/set_8/main_unc/rightBlue\GB_RB_4.xlsx
328	main_unc	True	0.0	392	0	2.0	2.0	1.0	1	right	2.0	1.0	1.0	1	0.0322273301333	blockFiles/set_8/main_unc/rightBlue\GB_RB_4.xlsx
329	main_unc	True	0.0	392	0	2.0	2.0	0.0	1	left	1.0	1.0	1.0	0	-0.050678091757	blockFiles/set_8/main_unc/rightBlue\GB_RB_4.xlsx
330	main_unc	True	0.0	392	0	2.0	2.0	1.0	1	right	2.0	1.0	1.0	1	0.0598379401676	blockFiles/set_8/main_unc/rightBlue\GB_RB_4.xlsx
331	main_unc	True	0.0	392	0	2.0	2.0	0.0	1	left	1.0	0.0	1.0	0	-0.0343974642269	blockFiles/set_8/main_unc/rightBlue\GB_RB_4.xlsx
332	main_unc	True	0.0	392	0	3.0	3.0	0.0	1	left	1.0	0.0	0.0	0	-0.0251123265736	blockFiles/set_8/main_unc/leftBlue\GB_LB_2.xlsx
333	main_unc	True	0.0	392	0	3.0	3.0	0.0	1	left	1.0	0.0	0.0	0	-0.0099534967728	blockFiles/set_8/main_unc/leftBlue\GB_LB_2.xlsx
334	main_unc	True	0.0	392	0	3.0	3.0	0.0	1	left	2.0	1.0	1.0	0	-0.0290737418458	blockFiles/set_8/main_unc/leftBlue\GB_LB_2.xlsx
335	main_unc	True	0.0	392	0	3.0	3.0	1.0	1	right	1.0	0.0	1.0	1	0.053693031352	blockFiles/set_8/main_unc/leftBlue\GB_LB_2.xlsx
336	main_unc	True	0.0	392	0	3.0	3.0	1.0	1	right	1.0	1.0	1.0	1	0.052991151697899995	blockFiles/set_8/main_unc/leftBlue\GB_LB_2.xlsx
337	main_unc	True	0.0	392	0	3.0	3.0	1.0	1	right	1.0	1.0	1.0	1	0.07431270502510001	blockFiles/set_8/main_unc/leftBlue\GB_LB_2.xlsx
338	main_unc	True	0.0	392	0	3.0	3.0	1.0	1	right	1.0	0.0	1.0	1	0.06911682283510001	blockFiles/set_8/main_unc/leftBlue\GB_LB_2.xlsx
339	main_unc	True	0.0	392	0	3.0	3.0	1.0	1	right	1.0	0.0	1.0	1	0.0246927096136	blockFiles/set_8/main_unc/leftBlue\GB_LB_2.xlsx
340	main_unc	True	0.0	392	0	3.0	3.0	1.0	1	right	1.0	1.0	1.0	1	0.0540895702131	blockFiles/set_8/main_unc/leftBlue\GB_LB_2.xlsx
341	main_unc	True	0.0	392	0	3.0	3.0	1.0	1	right	1.0	0.0	1.0	1	0.00424233715981	blockFiles/set_8/main_unc/leftBlue\GB_LB_2.xlsx
342	main_unc	True	0.0	392	0	3.0	3.0	1.0	1	right	1.0	1.0	1.0	1	0.0313619975373	blockFiles/set_8/main_unc/leftBlue\GB_LB_2.xlsx
343	main_unc	True	0.0	392	0	3.0	3.0	1.0	1	right	1.0	1.0	1.0	1	0.0630900537036	blockFiles/set_8/main_unc/leftBlue\GB_LB_2.xlsx
344	main_unc	True	0.0	392	0	3.0	3.0	0.0	1	left	2.0	1.0	1.0	0	-0.0675686978549	blockFiles/set_8/main_unc/leftBlue\GB_LB_2.xlsx
345	main_unc	True	0.0	392	0	3.0	3.0	1.0	1	right	1.0	1.0	1.0	1	0.039625790529	blockFiles/set_8/main_unc/leftBlue\GB_LB_2.xlsx
346	main_unc	True	0.0	392	0	3.0	3.0	1.0	1	right	1.0	1.0	1.0	1	0.029264179747599997	blockFiles/set_8/main_unc/leftBlue\GB_LB_2.xlsx
347	main_unc	True	0.0	392	0	3.0	3.0	0.0	1	left	2.0	0.0	1.0	0	-0.0227570835128	blockFiles/set_8/main_unc/leftBlue\GB_LB_2.xlsx
348	main_unc	True	0.0	392	0	3.0	3.0	0.0	1	left	2.0	1.0	1.0	0	-0.04492065824569999	blockFiles/set_8/main_unc/leftBlue\GB_LB_2.xlsx
349	main_unc	True	0.0	392	0	3.0	3.0	1.0	1	right	1.0	1.0	1.0	1	0.035133474823099996	blockFiles/set_8/main_unc/leftBlue\GB_LB_2.xlsx
350	main_unc	True	0.0	392	0	3.0	3.0	1.0	1	right	1.0	1.0	1.0	1	0.0767157708853	blockFiles/set_8/main_unc/leftBlue\GB_LB_2.xlsx
351	main_unc	True	0.0	392	0	3.0	3.0	1.0	0	right	2.0	1.0	1.0	0	-0.044057083223000004	blockFiles/set_8/main_unc/leftBlue\GB_LB_2.xlsx
352	main_unc	True	0.0	392	0	3.0	3.0	0.0	1	left	2.0	1.0	1.0	0	-0.0474323301576	blockFiles/set_8/main_unc/leftBlue\GB_LB_2.xlsx
353	main_unc	True	0.0	392	0	3.0	3.0	0.0	1	left	2.0	0.0	1.0	0	-0.0680325956084	blockFiles/set_8/main_unc/leftBlue\GB_LB_2.xlsx
354	main_unc	True	0.0	392	0	3.0	3.0	0.0	0	left	1.0	1.0	1.0	1	0.0244765867479	blockFiles/set_8/main_unc/leftBlue\GB_LB_2.xlsx
355	main_unc	True	0.0	392	0	3.0	3.0	0.0	1	left	2.0	1.0	1.0	0	-0.034529877882500004	blockFiles/set_8/main_unc/leftBlue\GB_LB_2.xlsx
356	main_unc	True	0.0	392	0	3.0	3.0	0.0	1	left	2.0	1.0	1.0	0	-0.0148399568163	blockFiles/set_8/main_unc/leftBlue\GB_LB_2.xlsx
357	main_unc	True	0.0	392	0	4.0	4.0	1.0	1	right	2.0	0.0	0.0	1	0.0492116983794	blockFiles/set_8/main_unc/leftBlue\GB_LB_5.xlsx
358	main_unc	True	0.0	392	0	4.0	4.0	1.0	1	right	2.0	1.0	0.0	1	0.0436302203126	blockFiles/set_8/main_unc/leftBlue\GB_LB_5.xlsx
359	main_unc	True	0.0	392	0	4.0	4.0	0.0	1	left	1.0	0.0	0.0	0	-0.049170301891900005	blockFiles/set_8/main_unc/leftBlue\GB_LB_5.xlsx
360	main_unc	True	0.0	392	0	4.0	4.0	0.0	1	left	1.0	0.0	0.0	0	-0.06309333933519999	blockFiles/set_8/main_unc/leftBlue\GB_LB_5.xlsx
361	main_unc	True	0.0	392	0	4.0	4.0	1.0	1	right	2.0	0.0	0.0	1	0.0328925711662	blockFiles/set_8/main_unc/leftBlue\GB_LB_5.xlsx
362	main_unc	True	0.0	392	0	4.0	4.0	1.0	1	right	1.0	1.0	1.0	1	0.038352313693599996	blockFiles/set_8/main_unc/leftBlue\GB_LB_5.xlsx
363	main_unc	True	0.0	392	0	4.0	4.0	0.0	0	left	1.0	0.0	1.0	1	0.00515236094594	blockFiles/set_8/main_unc/leftBlue\GB_LB_5.xlsx
364	main_unc	True	0.0	392	0	4.0	4.0	0.0	1	left	2.0	1.0	1.0	0	-0.0782573505677	blockFiles/set_8/main_unc/leftBlue\GB_LB_5.xlsx
365	main_unc	True	0.0	392	0	4.0	4.0	1.0	1	right	1.0	1.0	1.0	1	0.0369428431801	blockFiles/set_8/main_unc/leftBlue\GB_LB_5.xlsx
366	main_unc	True	0.0	392	0	4.0	4.0	0.0	1	left	2.0	1.0	1.0	0	-0.06804871881380001	blockFiles/set_8/main_unc/leftBlue\GB_LB_5.xlsx
367	main_unc	True	0.0	392	0	4.0	4.0	0.0	1	left	2.0	1.0	1.0	0	-0.041652096714800003	blockFiles/set_8/main_unc/leftBlue\GB_LB_5.xlsx
368	main_unc	True	0.0	392	0	4.0	4.0	0.0	1	left	2.0	0.0	1.0	0	-0.050017210394099995	blockFiles/set_8/main_unc/leftBlue\GB_LB_5.xlsx
369	main_unc	True	0.0	392	0	4.0	4.0	0.0	0	left	2.0	0.0	0.0	1	0.0035797409154499998	blockFiles/set_8/main_unc/leftBlue\GB_LB_5.xlsx
370	main_unc	True	0.0	392	0	4.0	4.0	0.0	1	left	2.0	1.0	1.0	0	-0.0443088347465	blockFiles/set_8/main_unc/leftBlue\GB_LB_5.xlsx
371	main_unc	True	0.0	392	0	4.0	4.0	0.0	1	left	2.0	1.0	1.0	0	-0.0682940801792	blockFiles/set_8/main_unc/leftBlue\GB_LB_5.xlsx
372	main_unc	True	0.0	392	0	4.0	4.0	0.0	1	left	2.0	1.0	1.0	0	-0.0560716827773	blockFiles/set_8/main_unc/leftBlue\GB_LB_5.xlsx
373	main_unc	True	0.0	392	0	4.0	4.0	0.0	1	left	2.0	1.0	1.0	0	-0.0304941515625	blockFiles/set_8/main_unc/leftBlue\GB_LB_5.xlsx
374	main_unc	True	0.0	392	0	4.0	4.0	0.0	1	left	2.0	1.0	1.0	0	-0.0440406672284	blockFiles/set_8/main_unc/leftBlue\GB_LB_5.xlsx
375	main_unc	True	0.0	392	0	4.0	4.0	1.0	1	right	1.0	1.0	1.0	1	0.059184450041500004	blockFiles/set_8/main_unc/leftBlue\GB_LB_5.xlsx
376	main_unc	True	0.0	392	0	4.0	4.0	0.0	0	left	1.0	0.0	1.0	1	2.52302922308e-05	blockFiles/set_8/main_unc/leftBlue\GB_LB_5.xlsx
377	main_unc	True	0.0	392	0	4.0	4.0	0.0	1	left	2.0	1.0	1.0	0	-0.0258844954148	blockFiles/set_8/main_unc/leftBlue\GB_LB_5.xlsx
378	main_unc	True	0.0	392	0	4.0	4.0	1.0	1	right	1.0	1.0	1.0	1	0.023324670475	blockFiles/set_8/main_unc/leftBlue\GB_LB_5.xlsx
379	main_unc	True	0.0	392	0	4.0	4.0	0.0	1	left	2.0	1.0	1.0	0	-0.018269541822400003	blockFiles/set_8/main_unc/leftBlue\GB_LB_5.xlsx
380	main_unc	True	0.0	392	0	4.0	4.0	1.0	1	right	1.0	1.0	1.0	1	0.0646670774929	blockFiles/set_8/main_unc/leftBlue\GB_LB_5.xlsx
381	main_unc	True	0.0	392	0	4.0	4.0	1.0	1	right	1.0	1.0	1.0	1	0.0250039840862	blockFiles/set_8/main_unc/leftBlue\GB_LB_5.xlsx
382	main_unc	True	0.0	392	0	5.0	5.0	1.0	1	right	2.0	0.0	0.0	1	0.008986934870479999	blockFiles/set_8/main_unc/leftBlue\GB_LB_3.xlsx
383	main_unc	True	0.0	392	0	5.0	5.0	1.0	1	right	2.0	1.0	0.0	1	0.076166948732	blockFiles/set_8/main_unc/leftBlue\GB_LB_3.xlsx
384	main_unc	True	0.0	392	0	5.0	5.0	0.0	1	left	1.0	0.0	0.0	0	-0.0201006408781	blockFiles/set_8/main_unc/leftBlue\GB_LB_3.xlsx
385	main_unc	True	0.0	392	0	5.0	5.0	0.0	1	left	1.0	0.0	0.0	0	-0.0416807346605	blockFiles/set_8/main_unc/leftBlue\GB_LB_3.xlsx
386	main_unc	True	0.0	392	0	5.0	5.0	0.0	1	left	2.0	1.0	1.0	0	-0.07024418793619999	blockFiles/set_8/main_unc/leftBlue\GB_LB_3.xlsx
387	main_unc	True	0.0	392	0	5.0	5.0	1.0	1	right	1.0	1.0	1.0	1	0.0139338820428	blockFiles/set_8/main_unc/leftBlue\GB_LB_3.xlsx
388	main_unc	True	0.0	392	0	5.0	5.0	0.0	1	left	2.0	0.0	1.0	0	-0.029824668113099997	blockFiles/set_8/main_unc/leftBlue\GB_LB_3.xlsx
389	main_unc	True	0.0	392	0	5.0	5.0	0.0	1	left	2.0	0.0	1.0	0	-0.0701176693849	blockFiles/set_8/main_unc/leftBlue\GB_LB_3.xlsx
390	main_unc	True	0.0	392	0	5.0	5.0	1.0	1	right	1.0	1.0	1.0	1	0.0027341947145800003	blockFiles/set_8/main_unc/leftBlue\GB_LB_3.xlsx
391	main_unc	True	0.0	392	0	5.0	5.0	1.0	1	right	1.0	1.0	1.0	1	0.0688124027476	blockFiles/set_8/main_unc/leftBlue\GB_LB_3.xlsx
392	main_unc	True	0.0	392	0	5.0	5.0	0.0	1	left	2.0	1.0	1.0	0	-0.0176246276125	blockFiles/set_8/main_unc/leftBlue\GB_LB_3.xlsx
393	main_unc	True	0.0	392	0	5.0	5.0	0.0	1	left	2.0	1.0	1.0	0	-0.0357544598915	blockFiles/set_8/main_unc/leftBlue\GB_LB_3.xlsx
394	main_unc	True	0.0	392	0	5.0	5.0	1.0	1	right	1.0	0.0	1.0	1	0.0628009562008	blockFiles/set_8/main_unc/leftBlue\GB_LB_3.xlsx
395	main_unc	True	0.0	392	0	5.0	5.0	1.0	1	right	1.0	1.0	1.0	1	0.012847849391399999	blockFiles/set_8/main_unc/leftBlue\GB_LB_3.xlsx
396	main_unc	True	0.0	392	0	5.0	5.0	1.0	1	right	1.0	1.0	1.0	1	0.0288354339078	blockFiles/set_8/main_unc/leftBlue\GB_LB_3.xlsx
397	main_unc	True	0.0	392	0	5.0	5.0	0.0	1	left	1.0	0.0	0.0	0	-0.017875294257	blockFiles/set_8/main_unc/leftBlue\GB_LB_3.xlsx
398	main_unc	True	0.0	392	0	5.0	5.0	1.0	1	right	1.0	0.0	1.0	1	0.0184372165613	blockFiles/set_8/main_unc/leftBlue\GB_LB_3.xlsx
399	main_unc	True	0.0	392	0	5.0	5.0	0.0	1	left	2.0	1.0	1.0	0	-0.072978689	blockFiles/set_8/main_unc/leftBlue\GB_LB_3.xlsx
400	main_unc	True	0.0	392	0	5.0	5.0	0.0	1	left	2.0	1.0	1.0	0	-0.0376302033849	blockFiles/set_8/main_unc/leftBlue\GB_LB_3.xlsx
401	main_unc	True	0.0	392	0	5.0	5.0	1.0	1	right	1.0	1.0	1.0	1	0.028559318426999998	blockFiles/set_8/main_unc/leftBlue\GB_LB_3.xlsx
402	main_unc	True	0.0	392	0	5.0	5.0	1.0	1	right	1.0	1.0	1.0	1	0.06801433429119999	blockFiles/set_8/main_unc/leftBlue\GB_LB_3.xlsx
403	main_unc	True	0.0	392	0	5.0	5.0	0.0	0	left	1.0	1.0	1.0	1	0.0134638481587	blockFiles/set_8/main_unc/leftBlue\GB_LB_3.xlsx
404	main_unc	True	0.0	392	0	5.0	5.0	1.0	1	right	1.0	1.0	1.0	1	0.0556613191776	blockFiles/set_8/main_unc/leftBlue\GB_LB_3.xlsx
405	main_unc	True	0.0	392	0	5.0	5.0	0.0	1	left	2.0	1.0	1.0	0	-0.0416940656491	blockFiles/set_8/main_unc/leftBlue\GB_LB_3.xlsx
406	main_unc	True	0.0	392	0	5.0	5.0	0.0	1	left	2.0	1.0	1.0	0	-0.044810938146	blockFiles/set_8/main_unc/leftBlue\GB_LB_3.xlsx
407	main_unc	True	0.0	392	0	6.0	6.0	1.0	1	right	2.0	1.0	1.0	1	0.044583725146900004	blockFiles/set_8/main_unc/rightBlue\GB_RB_6.xlsx
408	main_unc	True	0.0	392	0	6.0	6.0	1.0	1	right	2.0	1.0	1.0	1	0.020107622575	blockFiles/set_8/main_unc/rightBlue\GB_RB_6.xlsx
409	main_unc	True	0.0	392	0	6.0	6.0	0.0	1	left	1.0	1.0	1.0	0	-0.00816613646224	blockFiles/set_8/main_unc/rightBlue\GB_RB_6.xlsx
410	main_unc	True	0.0	392	0	6.0	6.0	0.0	1	left	1.0	1.0	1.0	0	-0.0156649861112	blockFiles/set_8/main_unc/rightBlue\GB_RB_6.xlsx
411	main_unc	True	0.0	392	0	6.0	6.0	0.0	1	left	1.0	1.0	1.0	0	-0.0655752083845	blockFiles/set_8/main_unc/rightBlue\GB_RB_6.xlsx
412	main_unc	True	0.0	392	0	6.0	6.0	0.0	1	left	1.0	1.0	1.0	0	-0.039586633071300004	blockFiles/set_8/main_unc/rightBlue\GB_RB_6.xlsx
413	main_unc	True	0.0	392	0	6.0	6.0	0.0	1	left	1.0	1.0	1.0	0	-0.0781315138005	blockFiles/set_8/main_unc/rightBlue\GB_RB_6.xlsx
414	main_unc	True	0.0	392	0	6.0	6.0	0.0	1	left	1.0	0.0	1.0	0	-0.0491969207488	blockFiles/set_8/main_unc/rightBlue\GB_RB_6.xlsx
415	main_unc	True	0.0	392	0	6.0	6.0	0.0	1	left	1.0	1.0	1.0	0	-0.007603455781939999	blockFiles/set_8/main_unc/rightBlue\GB_RB_6.xlsx
416	main_unc	True	0.0	392	0	6.0	6.0	0.0	1	left	1.0	1.0	1.0	0	-0.019310157522599996	blockFiles/set_8/main_unc/rightBlue\GB_RB_6.xlsx
417	main_unc	True	0.0	392	0	6.0	6.0	0.0	1	left	1.0	1.0	1.0	0	-0.0548497502878	blockFiles/set_8/main_unc/rightBlue\GB_RB_6.xlsx
418	main_unc	True	0.0	392	0	6.0	6.0	0.0	1	left	1.0	1.0	1.0	0	-0.0176311605982	blockFiles/set_8/main_unc/rightBlue\GB_RB_6.xlsx
419	main_unc	True	0.0	392	0	6.0	6.0	0.0	1	left	1.0	0.0	1.0	0	-0.03391996691	blockFiles/set_8/main_unc/rightBlue\GB_RB_6.xlsx
420	main_unc	True	0.0	392	0	6.0	6.0	1.0	1	right	2.0	1.0	1.0	1	0.0731299143657	blockFiles/set_8/main_unc/rightBlue\GB_RB_6.xlsx
421	main_unc	True	0.0	392	0	6.0	6.0	1.0	1	right	2.0	1.0	1.0	1	0.06866257907819999	blockFiles/set_8/main_unc/rightBlue\GB_RB_6.xlsx
422	main_unc	True	0.0	392	0	6.0	6.0	1.0	1	right	2.0	1.0	1.0	1	0.0338834017888	blockFiles/set_8/main_unc/rightBlue\GB_RB_6.xlsx
423	main_unc	True	0.0	392	0	6.0	6.0	1.0	1	right	2.0	1.0	1.0	1	0.0687982957438	blockFiles/set_8/main_unc/rightBlue\GB_RB_6.xlsx
424	main_unc	True	0.0	392	0	6.0	6.0	1.0	0	right	2.0	0.0	0.0	0	-0.0124814642034	blockFiles/set_8/main_unc/rightBlue\GB_RB_6.xlsx
425	main_unc	True	0.0	392	0	6.0	6.0	1.0	1	right	2.0	1.0	1.0	1	0.035768410675199994	blockFiles/set_8/main_unc/rightBlue\GB_RB_6.xlsx
426	main_unc	True	0.0	392	0	6.0	6.0	0.0	1	left	1.0	0.0	1.0	0	-0.07231352845210001	blockFiles/set_8/main_unc/rightBlue\GB_RB_6.xlsx
427	main_unc	True	0.0	392	0	6.0	6.0	1.0	1	right	2.0	1.0	1.0	1	0.00749414404854	blockFiles/set_8/main_unc/rightBlue\GB_RB_6.xlsx
428	main_unc	True	0.0	392	0	6.0	6.0	1.0	1	right	2.0	1.0	1.0	1	0.0542869774625	blockFiles/set_8/main_unc/rightBlue\GB_RB_6.xlsx
429	main_unc	True	0.0	392	0	6.0	6.0	1.0	1	right	2.0	1.0	1.0	1	0.0667249521427	blockFiles/set_8/main_unc/rightBlue\GB_RB_6.xlsx
430	main_unc	True	0.0	392	0	6.0	6.0	1.0	1	right	2.0	1.0	1.0	1	0.023802511729299997	blockFiles/set_8/main_unc/rightBlue\GB_RB_6.xlsx
431	main_unc	True	0.0	392	0	6.0	6.0	1.0	0	right	1.0	0.0	1.0	0	-0.0320455528796	blockFiles/set_8/main_unc/rightBlue\GB_RB_6.xlsx
432	main_unc	True	1.0	392	0	7.0	7.0	0.0	1	left	n/a	0.0	n/a	0	-0.0273579535447	blockFiles/set_8/main_unc/leftBlue\GB_LB_6.xlsx
433	main_unc	True	0.0	392	0	7.0	7.0	0.0	1	left	1.0	0.0	0.0	0	-0.07869960069660001	blockFiles/set_8/main_unc/leftBlue\GB_LB_6.xlsx
434	main_unc	True	0.0	392	0	7.0	7.0	1.0	1	right	2.0	1.0	0.0	1	0.07847344689069999	blockFiles/set_8/main_unc/leftBlue\GB_LB_6.xlsx
435	main_unc	True	0.0	392	0	7.0	7.0	0.0	1	left	1.0	0.0	0.0	0	-0.027333204038400002	blockFiles/set_8/main_unc/leftBlue\GB_LB_6.xlsx
436	main_unc	True	0.0	392	0	7.0	7.0	0.0	1	left	1.0	1.0	0.0	0	-0.0587907956168	blockFiles/set_8/main_unc/leftBlue\GB_LB_6.xlsx
437	main_unc	True	0.0	392	0	7.0	7.0	1.0	1	right	2.0	0.0	0.0	1	0.024843386896000002	blockFiles/set_8/main_unc/leftBlue\GB_LB_6.xlsx
438	main_unc	True	0.0	392	0	7.0	7.0	1.0	1	right	2.0	0.0	0.0	1	0.00583999639377	blockFiles/set_8/main_unc/leftBlue\GB_LB_6.xlsx
439	main_unc	True	0.0	392	0	7.0	7.0	1.0	1	right	2.0	0.0	0.0	1	0.0105560948886	blockFiles/set_8/main_unc/leftBlue\GB_LB_6.xlsx
440	main_unc	True	0.0	392	0	7.0	7.0	0.0	1	left	2.0	0.0	1.0	0	-0.009813496712600001	blockFiles/set_8/main_unc/leftBlue\GB_LB_6.xlsx
441	main_unc	True	0.0	392	0	7.0	7.0	1.0	1	right	1.0	1.0	1.0	1	0.0787817499973	blockFiles/set_8/main_unc/leftBlue\GB_LB_6.xlsx
442	main_unc	True	0.0	392	0	7.0	7.0	0.0	1	left	2.0	1.0	1.0	0	-0.0435515327752	blockFiles/set_8/main_unc/leftBlue\GB_LB_6.xlsx
443	main_unc	True	0.0	392	0	7.0	7.0	1.0	1	right	1.0	1.0	1.0	1	0.0793999304622	blockFiles/set_8/main_unc/leftBlue\GB_LB_6.xlsx
444	main_unc	True	0.0	392	0	7.0	7.0	1.0	1	right	1.0	1.0	1.0	1	0.0160805426724	blockFiles/set_8/main_unc/leftBlue\GB_LB_6.xlsx
445	main_unc	True	0.0	392	0	7.0	7.0	1.0	1	right	1.0	1.0	1.0	1	0.0070549615472600006	blockFiles/set_8/main_unc/leftBlue\GB_LB_6.xlsx
446	main_unc	True	0.0	392	0	7.0	7.0	1.0	1	right	1.0	0.0	1.0	1	0.0545685514063	blockFiles/set_8/main_unc/leftBlue\GB_LB_6.xlsx
447	main_unc	True	0.0	392	0	7.0	7.0	0.0	1	left	2.0	1.0	1.0	0	-0.0478840905055	blockFiles/set_8/main_unc/leftBlue\GB_LB_6.xlsx
448	main_unc	True	0.0	392	0	7.0	7.0	0.0	1	left	1.0	0.0	0.0	0	-0.0647421613149	blockFiles/set_8/main_unc/leftBlue\GB_LB_6.xlsx
449	main_unc	True	0.0	392	0	7.0	7.0	1.0	1	right	1.0	1.0	1.0	1	0.0519440902025	blockFiles/set_8/main_unc/leftBlue\GB_LB_6.xlsx
450	main_unc	True	0.0	392	0	7.0	7.0	0.0	1	left	2.0	1.0	1.0	0	-0.0397541956417	blockFiles/set_8/main_unc/leftBlue\GB_LB_6.xlsx
451	main_unc	True	0.0	392	0	7.0	7.0	0.0	1	left	2.0	1.0	1.0	0	-0.0498328536563	blockFiles/set_8/main_unc/leftBlue\GB_LB_6.xlsx
452	main_unc	True	0.0	392	0	7.0	7.0	1.0	1	right	1.0	1.0	1.0	1	0.07088387865569999	blockFiles/set_8/main_unc/leftBlue\GB_LB_6.xlsx
453	main_unc	True	0.0	392	0	7.0	7.0	0.0	1	left	2.0	1.0	1.0	0	-0.0144314545952	blockFiles/set_8/main_unc/leftBlue\GB_LB_6.xlsx
454	main_unc	True	0.0	392	0	7.0	7.0	1.0	1	right	1.0	1.0	1.0	1	0.037626918703300004	blockFiles/set_8/main_unc/leftBlue\GB_LB_6.xlsx
455	main_unc	True	0.0	392	0	7.0	7.0	1.0	1	right	1.0	0.0	1.0	1	0.016193000394899997	blockFiles/set_8/main_unc/leftBlue\GB_LB_6.xlsx
456	main_unc	True	0.0	392	0	7.0	7.0	0.0	1	left	2.0	1.0	1.0	0	-0.0428009415045	blockFiles/set_8/main_unc/leftBlue\GB_LB_6.xlsx
457	main_unc	True	0.0	392	0	7.0	7.0	1.0	0	right	2.0	1.0	1.0	0	-0.0273579535447	blockFiles/set_8/main_unc/leftBlue\GB_LB_6.xlsx
458	main_unc	True	1.0	392	0	8.0	8.0	1.0	1	right	n/a	0.0	n/a	1	0.07270453972739999	blockFiles/set_8/main_unc/rightBlue\GB_RB_1.xlsx
459	main_unc	True	0.0	392	0	8.0	8.0	1.0	1	right	2.0	0.0	1.0	1	0.00645120194182	blockFiles/set_8/main_unc/rightBlue\GB_RB_1.xlsx
460	main_unc	True	0.0	392	0	8.0	8.0	1.0	0	right	2.0	1.0	0.0	0	-0.029554248135500002	blockFiles/set_8/main_unc/rightBlue\GB_RB_1.xlsx
461	main_unc	True	0.0	392	0	8.0	8.0	0.0	1	left	1.0	1.0	1.0	0	-0.0337059737928	blockFiles/set_8/main_unc/rightBlue\GB_RB_1.xlsx
462	main_unc	True	0.0	392	0	8.0	8.0	0.0	1	left	1.0	1.0	1.0	0	-0.0739736535773	blockFiles/set_8/main_unc/rightBlue\GB_RB_1.xlsx
463	main_unc	True	0.0	392	0	8.0	8.0	1.0	1	right	2.0	1.0	1.0	1	0.04831613227730001	blockFiles/set_8/main_unc/rightBlue\GB_RB_1.xlsx
464	main_unc	True	0.0	392	0	8.0	8.0	0.0	1	left	2.0	0.0	0.0	0	-0.00451292883605	blockFiles/set_8/main_unc/rightBlue\GB_RB_1.xlsx
465	main_unc	True	0.0	392	0	8.0	8.0	1.0	1	right	2.0	1.0	1.0	1	0.0358381750621	blockFiles/set_8/main_unc/rightBlue\GB_RB_1.xlsx
466	main_unc	True	0.0	392	0	8.0	8.0	1.0	1	right	2.0	1.0	1.0	1	0.0333921664767	blockFiles/set_8/main_unc/rightBlue\GB_RB_1.xlsx
467	main_unc	True	0.0	392	0	8.0	8.0	1.0	1	right	2.0	1.0	1.0	1	0.019039624817700003	blockFiles/set_8/main_unc/rightBlue\GB_RB_1.xlsx
468	main_unc	True	0.0	392	0	8.0	8.0	1.0	1	right	2.0	1.0	1.0	1	0.052877970226099996	blockFiles/set_8/main_unc/rightBlue\GB_RB_1.xlsx
469	main_unc	True	0.0	392	0	8.0	8.0	1.0	1	right	2.0	0.0	1.0	1	0.0609736118838	blockFiles/set_8/main_unc/rightBlue\GB_RB_1.xlsx
470	main_unc	True	0.0	392	0	8.0	8.0	1.0	1	right	2.0	1.0	1.0	1	0.0356453552097	blockFiles/set_8/main_unc/rightBlue\GB_RB_1.xlsx
471	main_unc	True	0.0	392	0	8.0	8.0	1.0	0	right	1.0	1.0	1.0	0	-0.027072139196099996	blockFiles/set_8/main_unc/rightBlue\GB_RB_1.xlsx
472	main_unc	True	0.0	392	0	8.0	8.0	1.0	1	right	2.0	1.0	1.0	1	0.0676483817399	blockFiles/set_8/main_unc/rightBlue\GB_RB_1.xlsx
473	main_unc	True	0.0	392	0	8.0	8.0	1.0	1	right	2.0	1.0	1.0	1	0.0338589434884	blockFiles/set_8/main_unc/rightBlue\GB_RB_1.xlsx
474	main_unc	True	0.0	392	0	8.0	8.0	1.0	0	right	2.0	0.0	0.0	0	-0.00754223998636	blockFiles/set_8/main_unc/rightBlue\GB_RB_1.xlsx
475	main_unc	True	0.0	392	0	8.0	8.0	0.0	1	left	1.0	1.0	1.0	0	-0.028910039831	blockFiles/set_8/main_unc/rightBlue\GB_RB_1.xlsx
476	main_unc	True	0.0	392	0	8.0	8.0	0.0	1	left	1.0	0.0	1.0	0	-0.07465477339919999	blockFiles/set_8/main_unc/rightBlue\GB_RB_1.xlsx
477	main_unc	True	0.0	392	0	8.0	8.0	0.0	1	left	1.0	1.0	1.0	0	-0.0634212448448	blockFiles/set_8/main_unc/rightBlue\GB_RB_1.xlsx
478	main_unc	True	0.0	392	0	8.0	8.0	1.0	1	right	2.0	1.0	1.0	1	0.014341340083600001	blockFiles/set_8/main_unc/rightBlue\GB_RB_1.xlsx
479	main_unc	True	0.0	392	0	8.0	8.0	0.0	1	left	1.0	1.0	1.0	0	-0.050277486257300004	blockFiles/set_8/main_unc/rightBlue\GB_RB_1.xlsx
480	main_unc	True	0.0	392	0	8.0	8.0	0.0	0	left	2.0	1.0	1.0	1	0.0374310657941	blockFiles/set_8/main_unc/rightBlue\GB_RB_1.xlsx
481	main_unc	True	0.0	392	0	8.0	8.0	1.0	0	right	1.0	1.0	1.0	0	-0.0146088306792	blockFiles/set_8/main_unc/rightBlue\GB_RB_1.xlsx
482	main_unc	True	0.0	392	0	8.0	8.0	1.0	1	right	2.0	0.0	1.0	1	0.058541269581800004	blockFiles/set_8/main_unc/rightBlue\GB_RB_1.xlsx
483	main_unc	True	0.0	392	0	8.0	8.0	1.0	1	right	2.0	1.0	1.0	1	0.07270453972739999	blockFiles/set_8/main_unc/rightBlue\GB_RB_1.xlsx
484	main_unc	True	0.0	392	0	9.0	9.0	1.0	1	right	2.0	1.0	1.0	1	0.0674717461318	blockFiles/set_8/main_unc/rightBlue\GB_RB_2.xlsx
485	main_unc	True	0.0	392	0	9.0	9.0	1.0	1	right	2.0	1.0	1.0	1	0.04272773308680001	blockFiles/set_8/main_unc/rightBlue\GB_RB_2.xlsx
486	main_unc	True	0.0	392	0	9.0	9.0	1.0	0	right	2.0	0.0	0.0	0	-0.0040527302213	blockFiles/set_8/main_unc/rightBlue\GB_RB_2.xlsx
487	main_unc	True	0.0	392	0	9.0	9.0	0.0	1	left	1.0	1.0	1.0	0	-0.04606455335390001	blockFiles/set_8/main_unc/rightBlue\GB_RB_2.xlsx
488	main_unc	True	0.0	392	0	9.0	9.0	1.0	1	right	2.0	0.0	1.0	1	0.048692099619699995	blockFiles/set_8/main_unc/rightBlue\GB_RB_2.xlsx
489	main_unc	True	0.0	392	0	9.0	9.0	0.0	1	left	1.0	1.0	1.0	0	-0.00955711787567	blockFiles/set_8/main_unc/rightBlue\GB_RB_2.xlsx
490	main_unc	True	0.0	392	0	9.0	9.0	1.0	1	right	2.0	0.0	1.0	1	0.06369683915749999	blockFiles/set_8/main_unc/rightBlue\GB_RB_2.xlsx
491	main_unc	True	0.0	392	0	9.0	9.0	1.0	1	right	2.0	1.0	1.0	1	0.017911726608900003	blockFiles/set_8/main_unc/rightBlue\GB_RB_2.xlsx
492	main_unc	True	0.0	392	0	9.0	9.0	1.0	1	right	2.0	1.0	1.0	1	0.030166546721	blockFiles/set_8/main_unc/rightBlue\GB_RB_2.xlsx
493	main_unc	True	0.0	392	0	9.0	9.0	0.0	1	left	1.0	0.0	1.0	0	-0.0665029630437	blockFiles/set_8/main_unc/rightBlue\GB_RB_2.xlsx
494	main_unc	True	0.0	392	0	9.0	9.0	1.0	0	right	1.0	1.0	1.0	0	-0.0171196288057	blockFiles/set_8/main_unc/rightBlue\GB_RB_2.xlsx
495	main_unc	True	0.0	392	0	9.0	9.0	0.0	1	left	1.0	1.0	1.0	0	-0.0333175115287	blockFiles/set_8/main_unc/rightBlue\GB_RB_2.xlsx
496	main_unc	True	0.0	392	0	9.0	9.0	1.0	1	right	2.0	0.0	1.0	1	0.06304172512140001	blockFiles/set_8/main_unc/rightBlue\GB_RB_2.xlsx
497	main_unc	True	0.0	392	0	9.0	9.0	1.0	1	right	2.0	1.0	1.0	1	0.046874261777800005	blockFiles/set_8/main_unc/rightBlue\GB_RB_2.xlsx
498	main_unc	True	0.0	392	0	9.0	9.0	1.0	1	right	2.0	1.0	1.0	1	0.03941600866619999	blockFiles/set_8/main_unc/rightBlue\GB_RB_2.xlsx
499	main_unc	True	0.0	392	0	9.0	9.0	0.0	1	left	1.0	1.0	1.0	0	-0.0374169863202	blockFiles/set_8/main_unc/rightBlue\GB_RB_2.xlsx
500	main_unc	True	0.0	392	0	9.0	9.0	0.0	1	left	1.0	1.0	1.0	0	-0.0391425913945	blockFiles/set_8/main_unc/rightBlue\GB_RB_2.xlsx
501	main_unc	True	0.0	392	0	9.0	9.0	0.0	1	left	1.0	1.0	1.0	0	-0.0471593388729	blockFiles/set_8/main_unc/rightBlue\GB_RB_2.xlsx
502	main_unc	True	0.0	392	0	9.0	9.0	0.0	1	left	1.0	1.0	1.0	0	-0.00485721353441	blockFiles/set_8/main_unc/rightBlue\GB_RB_2.xlsx
503	main_unc	True	0.0	392	0	9.0	9.0	0.0	1	left	1.0	0.0	1.0	0	-0.0771034884453	blockFiles/set_8/main_unc/rightBlue\GB_RB_2.xlsx
504	main_unc	True	0.0	392	0	9.0	9.0	0.0	1	left	1.0	0.0	1.0	0	-0.0155847263336	blockFiles/set_8/main_unc/rightBlue\GB_RB_2.xlsx
505	main_unc	True	0.0	392	0	9.0	9.0	1.0	1	right	2.0	1.0	1.0	1	0.0307441892661	blockFiles/set_8/main_unc/rightBlue\GB_RB_2.xlsx
506	main_unc	True	0.0	392	0	9.0	9.0	1.0	1	right	2.0	1.0	1.0	1	0.0798353556171	blockFiles/set_8/main_unc/rightBlue\GB_RB_2.xlsx
507	main_unc	True	0.0	392	0	9.0	9.0	1.0	1	right	2.0	1.0	1.0	1	0.014402566552200001	blockFiles/set_8/main_unc/rightBlue\GB_RB_2.xlsx
508	main_unc	True	0.0	392	0	9.0	9.0	1.0	1	right	2.0	1.0	1.0	1	0.060354688074400004	blockFiles/set_8/main_unc/rightBlue\GB_RB_2.xlsx
509	main_unc	True	0.0	392	0	10.0	10.0	1.0	1	right	1.0	1.0	1.0	1	0.0650272500142	blockFiles/set_8/main_unc/leftBlue\GB_LB_4.xlsx
510	main_unc	True	0.0	392	0	10.0	10.0	0.0	1	left	2.0	1.0	1.0	0	-0.0338286181167	blockFiles/set_8/main_unc/leftBlue\GB_LB_4.xlsx
511	main_unc	True	0.0	392	0	10.0	10.0	1.0	1	right	1.0	1.0	1.0	1	0.018206041902299998	blockFiles/set_8/main_unc/leftBlue\GB_LB_4.xlsx
512	main_unc	True	0.0	392	0	10.0	10.0	1.0	1	right	1.0	1.0	1.0	1	0.0275170046277	blockFiles/set_8/main_unc/leftBlue\GB_LB_4.xlsx
513	main_unc	True	0.0	392	0	10.0	10.0	0.0	1	left	2.0	0.0	1.0	0	-0.0288354877569	blockFiles/set_8/main_unc/leftBlue\GB_LB_4.xlsx
514	main_unc	True	0.0	392	0	10.0	10.0	1.0	1	right	1.0	1.0	1.0	1	0.0633103221096	blockFiles/set_8/main_unc/leftBlue\GB_LB_4.xlsx
515	main_unc	True	0.0	392	0	10.0	10.0	0.0	1	left	2.0	1.0	1.0	0	-0.07040690438819999	blockFiles/set_8/main_unc/leftBlue\GB_LB_4.xlsx
516	main_unc	True	0.0	392	0	10.0	10.0	0.0	1	left	2.0	1.0	1.0	0	-0.0124162459746	blockFiles/set_8/main_unc/leftBlue\GB_LB_4.xlsx
517	main_unc	True	0.0	392	0	10.0	10.0	0.0	1	left	2.0	1.0	1.0	0	-0.0739389933459	blockFiles/set_8/main_unc/leftBlue\GB_LB_4.xlsx
518	main_unc	True	0.0	392	0	10.0	10.0	1.0	1	right	1.0	1.0	1.0	1	0.00832618132234	blockFiles/set_8/main_unc/leftBlue\GB_LB_4.xlsx
519	main_unc	True	0.0	392	0	10.0	10.0	1.0	1	right	1.0	1.0	1.0	1	0.0239679296128	blockFiles/set_8/main_unc/leftBlue\GB_LB_4.xlsx
520	main_unc	True	0.0	392	0	10.0	10.0	1.0	1	right	1.0	1.0	1.0	1	0.0294966725633	blockFiles/set_8/main_unc/leftBlue\GB_LB_4.xlsx
521	main_unc	True	0.0	392	0	10.0	10.0	0.0	1	left	2.0	0.0	1.0	0	-0.0563762645237	blockFiles/set_8/main_unc/leftBlue\GB_LB_4.xlsx
522	main_unc	True	0.0	392	0	10.0	10.0	1.0	1	right	1.0	1.0	1.0	1	0.0648163565248	blockFiles/set_8/main_unc/leftBlue\GB_LB_4.xlsx
523	main_unc	True	0.0	392	0	10.0	10.0	1.0	1	right	1.0	1.0	1.0	1	0.0552108480781	blockFiles/set_8/main_unc/leftBlue\GB_LB_4.xlsx
524	main_unc	True	0.0	392	0	10.0	10.0	0.0	1	left	2.0	1.0	1.0	0	-0.046907444093399996	blockFiles/set_8/main_unc/leftBlue\GB_LB_4.xlsx
525	main_unc	True	0.0	392	0	10.0	10.0	0.0	1	left	2.0	1.0	1.0	0	-0.0661489140429	blockFiles/set_8/main_unc/leftBlue\GB_LB_4.xlsx
526	main_unc	True	0.0	392	0	10.0	10.0	0.0	1	left	2.0	1.0	1.0	0	-0.0113808037527	blockFiles/set_8/main_unc/leftBlue\GB_LB_4.xlsx
527	main_unc	True	0.0	392	0	10.0	10.0	1.0	1	right	1.0	1.0	1.0	1	0.0150052560493	blockFiles/set_8/main_unc/leftBlue\GB_LB_4.xlsx
528	main_unc	True	0.0	392	0	10.0	10.0	0.0	1	left	2.0	0.0	1.0	0	-0.0685480866022	blockFiles/set_8/main_unc/leftBlue\GB_LB_4.xlsx
529	main_unc	True	0.0	392	0	10.0	10.0	0.0	1	left	2.0	0.0	1.0	0	-0.061701240055300005	blockFiles/set_8/main_unc/leftBlue\GB_LB_4.xlsx
530	main_unc	True	0.0	392	0	10.0	10.0	1.0	1	right	1.0	1.0	1.0	1	0.0299767348729	blockFiles/set_8/main_unc/leftBlue\GB_LB_4.xlsx
531	main_unc	True	0.0	392	0	10.0	10.0	1.0	1	right	1.0	1.0	1.0	1	0.010972526110700001	blockFiles/set_8/main_unc/leftBlue\GB_LB_4.xlsx
532	main_unc	True	0.0	392	0	10.0	10.0	1.0	1	right	2.0	1.0	0.0	1	0.0536234416254	blockFiles/set_8/main_unc/leftBlue\GB_LB_4.xlsx
533	main_unc	True	0.0	392	0	10.0	10.0	1.0	0	right	2.0	1.0	1.0	0	-0.0154418623261	blockFiles/set_8/main_unc/leftBlue\GB_LB_4.xlsx
534	main_unc	True	1.0	392	0	11.0	11.0	1.0	0	right	n/a	0.0	n/a	0	-0.006240814365449999	blockFiles/set_8/main_unc/rightBlue\GB_RB_5.xlsx
535	main_unc	True	0.0	392	0	11.0	11.0	0.0	1	left	2.0	0.0	0.0	0	-0.05395985225219999	blockFiles/set_8/main_unc/rightBlue\GB_RB_5.xlsx
536	main_unc	True	0.0	392	0	11.0	11.0	1.0	1	right	1.0	0.0	0.0	1	0.0500148434937	blockFiles/set_8/main_unc/rightBlue\GB_RB_5.xlsx
537	main_unc	True	0.0	392	0	11.0	11.0	0.0	0	left	2.0	0.0	1.0	1	0.00106255961582	blockFiles/set_8/main_unc/rightBlue\GB_RB_5.xlsx
538	main_unc	True	0.0	392	0	11.0	11.0	0.0	1	left	1.0	1.0	1.0	0	-0.062389428894999995	blockFiles/set_8/main_unc/rightBlue\GB_RB_5.xlsx
539	main_unc	True	0.0	392	0	11.0	11.0	1.0	1	right	2.0	0.0	1.0	1	0.0236177767068	blockFiles/set_8/main_unc/rightBlue\GB_RB_5.xlsx
540	main_unc	True	0.0	392	0	11.0	11.0	0.0	1	left	1.0	1.0	1.0	0	-0.0484141074121	blockFiles/set_8/main_unc/rightBlue\GB_RB_5.xlsx
541	main_unc	True	0.0	392	0	11.0	11.0	1.0	1	right	2.0	1.0	1.0	1	0.0246239329875	blockFiles/set_8/main_unc/rightBlue\GB_RB_5.xlsx
542	main_unc	True	0.0	392	0	11.0	11.0	0.0	1	left	1.0	1.0	1.0	0	-0.0586305981502	blockFiles/set_8/main_unc/rightBlue\GB_RB_5.xlsx
543	main_unc	True	0.0	392	0	11.0	11.0	1.0	1	right	2.0	0.0	1.0	1	0.050728593077499995	blockFiles/set_8/main_unc/rightBlue\GB_RB_5.xlsx
544	main_unc	True	0.0	392	0	11.0	11.0	1.0	1	right	2.0	1.0	1.0	1	0.05262907585130001	blockFiles/set_8/main_unc/rightBlue\GB_RB_5.xlsx
545	main_unc	True	0.0	392	0	11.0	11.0	1.0	1	right	2.0	1.0	1.0	1	0.010838010814	blockFiles/set_8/main_unc/rightBlue\GB_RB_5.xlsx
546	main_unc	True	0.0	392	0	11.0	11.0	1.0	1	right	2.0	1.0	1.0	1	0.017170685473799997	blockFiles/set_8/main_unc/rightBlue\GB_RB_5.xlsx
547	main_unc	True	0.0	392	0	11.0	11.0	1.0	1	right	2.0	1.0	1.0	1	0.0557385368645	blockFiles/set_8/main_unc/rightBlue\GB_RB_5.xlsx
548	main_unc	True	0.0	392	0	11.0	11.0	1.0	0	right	2.0	0.0	0.0	0	-0.0143226758949	blockFiles/set_8/main_unc/rightBlue\GB_RB_5.xlsx
549	main_unc	True	0.0	392	0	11.0	11.0	1.0	0	right	1.0	0.0	1.0	0	-0.016572525929700002	blockFiles/set_8/main_unc/rightBlue\GB_RB_5.xlsx
550	main_unc	True	0.0	392	0	11.0	11.0	0.0	1	left	1.0	0.0	1.0	0	-0.0544672049209	blockFiles/set_8/main_unc/rightBlue\GB_RB_5.xlsx
551	main_unc	True	0.0	392	0	11.0	11.0	0.0	1	left	1.0	1.0	1.0	0	-0.0230023478903	blockFiles/set_8/main_unc/rightBlue\GB_RB_5.xlsx
552	main_unc	True	0.0	392	0	11.0	11.0	0.0	1	left	1.0	1.0	1.0	0	-0.0775945583172	blockFiles/set_8/main_unc/rightBlue\GB_RB_5.xlsx
553	main_unc	True	0.0	392	0	11.0	11.0	0.0	1	left	1.0	1.0	1.0	0	-0.027105984315299998	blockFiles/set_8/main_unc/rightBlue\GB_RB_5.xlsx
554	main_unc	True	0.0	392	0	11.0	11.0	0.0	0	left	2.0	1.0	1.0	1	0.0274930627458	blockFiles/set_8/main_unc/rightBlue\GB_RB_5.xlsx
555	main_unc	True	0.0	392	0	11.0	11.0	1.0	1	right	2.0	1.0	1.0	1	0.0735347850993	blockFiles/set_8/main_unc/rightBlue\GB_RB_5.xlsx
556	main_unc	True	0.0	392	0	11.0	11.0	0.0	1	left	2.0	0.0	0.0	0	-0.0433156041242	blockFiles/set_8/main_unc/rightBlue\GB_RB_5.xlsx
557	main_unc	True	0.0	392	0	11.0	11.0	1.0	1	right	2.0	1.0	1.0	1	0.051817532014100005	blockFiles/set_8/main_unc/rightBlue\GB_RB_5.xlsx
558	main_unc	True	0.0	392	0	11.0	11.0	1.0	1	right	2.0	1.0	1.0	1	0.035981988012800004	blockFiles/set_8/main_unc/rightBlue\GB_RB_5.xlsx
559	main_unc	True	0.0	392	0	11.0	11.0	0.0	1	left	2.0	0.0	0.0	0	-0.006240814365449999	blockFiles/set_8/main_unc/rightBlue\GB_RB_5.xlsx
