	trial_type	complete	missIndex	participant	id	blockNumber	b_t	d_t	decision1.corr	decision1.keys	a_t	r_t	decision2.corr	s_t	u_t	block_file
0	main_safe	True	0.0	823	0	0.0	0.0	1.0	1	right	1.0	0.0	0.0	1	0.08	blockFiles/set_12/main_safe/rightBlue\GB_RB_1.xlsx
1	main_safe	True	0.0	823	0	0.0	0.0	0.0	1	left	2.0	0.0	0.0	0	-0.08	blockFiles/set_12/main_safe/rightBlue\GB_RB_1.xlsx
2	main_safe	True	0.0	823	0	0.0	0.0	0.0	1	left	2.0	0.0	0.0	0	-0.08	blockFiles/set_12/main_safe/rightBlue\GB_RB_1.xlsx
3	main_safe	True	0.0	823	0	0.0	0.0	1.0	1	right	2.0	1.0	1.0	1	0.08	blockFiles/set_12/main_safe/rightBlue\GB_RB_1.xlsx
4	main_safe	True	0.0	823	0	0.0	0.0	0.0	1	left	1.0	0.0	1.0	0	-0.08	blockFiles/set_12/main_safe/rightBlue\GB_RB_1.xlsx
5	main_safe	True	0.0	823	0	0.0	0.0	0.0	1	left	1.0	1.0	1.0	0	-0.08	blockFiles/set_12/main_safe/rightBlue\GB_RB_1.xlsx
6	main_safe	True	1.0	823	0	0.0	0.0	0.0	1	left	n/a	0.0	n/a	0	-0.08	blockFiles/set_12/main_safe/rightBlue\GB_RB_1.xlsx
7	main_safe	True	0.0	823	0	0.0	0.0	1.0	1	right	2.0	1.0	1.0	1	0.08	blockFiles/set_12/main_safe/rightBlue\GB_RB_1.xlsx
8	main_safe	True	0.0	823	0	0.0	0.0	1.0	1	right	2.0	1.0	1.0	1	0.08	blockFiles/set_12/main_safe/rightBlue\GB_RB_1.xlsx
9	main_safe	True	0.0	823	0	0.0	0.0	1.0	1	right	2.0	1.0	1.0	1	0.08	blockFiles/set_12/main_safe/rightBlue\GB_RB_1.xlsx
10	main_safe	True	0.0	823	0	0.0	0.0	0.0	1	left	1.0	1.0	1.0	0	-0.08	blockFiles/set_12/main_safe/rightBlue\GB_RB_1.xlsx
11	main_safe	True	0.0	823	0	0.0	0.0	0.0	1	left	1.0	1.0	1.0	0	-0.08	blockFiles/set_12/main_safe/rightBlue\GB_RB_1.xlsx
12	main_safe	True	0.0	823	0	0.0	0.0	0.0	1	left	1.0	1.0	1.0	0	-0.08	blockFiles/set_12/main_safe/rightBlue\GB_RB_1.xlsx
13	main_safe	True	0.0	823	0	0.0	0.0	1.0	1	right	2.0	1.0	1.0	1	0.08	blockFiles/set_12/main_safe/rightBlue\GB_RB_1.xlsx
14	main_safe	True	0.0	823	0	0.0	0.0	1.0	1	right	2.0	1.0	1.0	1	0.08	blockFiles/set_12/main_safe/rightBlue\GB_RB_1.xlsx
15	main_safe	True	0.0	823	0	0.0	0.0	0.0	1	left	1.0	1.0	1.0	0	-0.08	blockFiles/set_12/main_safe/rightBlue\GB_RB_1.xlsx
16	main_safe	True	0.0	823	0	0.0	0.0	1.0	1	right	2.0	1.0	1.0	1	0.08	blockFiles/set_12/main_safe/rightBlue\GB_RB_1.xlsx
17	main_safe	True	0.0	823	0	0.0	0.0	1.0	1	right	2.0	0.0	1.0	1	0.08	blockFiles/set_12/main_safe/rightBlue\GB_RB_1.xlsx
18	main_safe	True	0.0	823	0	0.0	0.0	1.0	1	right	2.0	1.0	1.0	1	0.08	blockFiles/set_12/main_safe/rightBlue\GB_RB_1.xlsx
19	main_safe	True	0.0	823	0	0.0	0.0	0.0	1	left	1.0	1.0	1.0	0	-0.08	blockFiles/set_12/main_safe/rightBlue\GB_RB_1.xlsx
20	main_safe	True	0.0	823	0	0.0	0.0	1.0	1	right	2.0	0.0	1.0	1	0.08	blockFiles/set_12/main_safe/rightBlue\GB_RB_1.xlsx
21	main_safe	True	0.0	823	0	0.0	0.0	0.0	1	left	1.0	0.0	1.0	0	-0.08	blockFiles/set_12/main_safe/rightBlue\GB_RB_1.xlsx
22	main_safe	True	0.0	823	0	0.0	0.0	1.0	1	right	2.0	1.0	1.0	1	0.08	blockFiles/set_12/main_safe/rightBlue\GB_RB_1.xlsx
23	main_safe	True	0.0	823	0	0.0	0.0	0.0	1	left	1.0	1.0	1.0	0	-0.08	blockFiles/set_12/main_safe/rightBlue\GB_RB_1.xlsx
24	main_safe	True	0.0	823	0	0.0	0.0	1.0	1	right	2.0	1.0	1.0	1	0.08	blockFiles/set_12/main_safe/rightBlue\GB_RB_1.xlsx
25	main_safe	True	0.0	823	0	0.0	0.0	0.0	1	left	1.0	1.0	1.0	0	-0.08	blockFiles/set_12/main_safe/rightBlue\GB_RB_1.xlsx
26	main_safe	True	0.0	823	0	1.0	1.0	0.0	1	left	2.0	1.0	1.0	0	-0.08	blockFiles/set_12/main_safe/leftBlue\GB_LB_2.xlsx
27	main_safe	True	0.0	823	0	1.0	1.0	0.0	1	left	2.0	1.0	1.0	0	-0.08	blockFiles/set_12/main_safe/leftBlue\GB_LB_2.xlsx
28	main_safe	True	0.0	823	0	1.0	1.0	1.0	1	right	1.0	0.0	1.0	1	0.08	blockFiles/set_12/main_safe/leftBlue\GB_LB_2.xlsx
29	main_safe	True	0.0	823	0	1.0	1.0	0.0	1	left	1.0	0.0	0.0	0	-0.08	blockFiles/set_12/main_safe/leftBlue\GB_LB_2.xlsx
30	main_safe	True	0.0	823	0	1.0	1.0	1.0	1	right	1.0	1.0	1.0	1	0.08	blockFiles/set_12/main_safe/leftBlue\GB_LB_2.xlsx
31	main_safe	True	0.0	823	0	1.0	1.0	1.0	1	right	1.0	1.0	1.0	1	0.08	blockFiles/set_12/main_safe/leftBlue\GB_LB_2.xlsx
32	main_safe	True	0.0	823	0	1.0	1.0	0.0	1	left	2.0	0.0	1.0	0	-0.08	blockFiles/set_12/main_safe/leftBlue\GB_LB_2.xlsx
33	main_safe	True	0.0	823	0	1.0	1.0	1.0	1	right	1.0	1.0	1.0	1	0.08	blockFiles/set_12/main_safe/leftBlue\GB_LB_2.xlsx
34	main_safe	True	1.0	823	0	1.0	1.0	1.0	1	right	n/a	0.0	n/a	1	0.08	blockFiles/set_12/main_safe/leftBlue\GB_LB_2.xlsx
35	main_safe	True	0.0	823	0	1.0	1.0	0.0	1	left	2.0	1.0	1.0	0	-0.08	blockFiles/set_12/main_safe/leftBlue\GB_LB_2.xlsx
36	main_safe	True	0.0	823	0	1.0	1.0	1.0	1	right	1.0	0.0	1.0	1	0.08	blockFiles/set_12/main_safe/leftBlue\GB_LB_2.xlsx
37	main_safe	True	0.0	823	0	1.0	1.0	1.0	1	right	1.0	1.0	1.0	1	0.08	blockFiles/set_12/main_safe/leftBlue\GB_LB_2.xlsx
38	main_safe	True	0.0	823	0	1.0	1.0	0.0	1	left	2.0	1.0	1.0	0	-0.08	blockFiles/set_12/main_safe/leftBlue\GB_LB_2.xlsx
39	main_safe	True	0.0	823	0	1.0	1.0	1.0	1	right	1.0	1.0	1.0	1	0.08	blockFiles/set_12/main_safe/leftBlue\GB_LB_2.xlsx
40	main_safe	True	0.0	823	0	1.0	1.0	1.0	1	right	1.0	0.0	1.0	1	0.08	blockFiles/set_12/main_safe/leftBlue\GB_LB_2.xlsx
41	main_safe	True	0.0	823	0	1.0	1.0	0.0	1	left	2.0	0.0	1.0	0	-0.08	blockFiles/set_12/main_safe/leftBlue\GB_LB_2.xlsx
42	main_safe	True	0.0	823	0	1.0	1.0	1.0	1	right	1.0	1.0	1.0	1	0.08	blockFiles/set_12/main_safe/leftBlue\GB_LB_2.xlsx
43	main_safe	True	0.0	823	0	1.0	1.0	0.0	1	left	2.0	0.0	1.0	0	-0.08	blockFiles/set_12/main_safe/leftBlue\GB_LB_2.xlsx
44	main_safe	True	0.0	823	0	1.0	1.0	1.0	1	right	1.0	1.0	1.0	1	0.08	blockFiles/set_12/main_safe/leftBlue\GB_LB_2.xlsx
45	main_safe	True	0.0	823	0	1.0	1.0	0.0	1	left	2.0	1.0	1.0	0	-0.08	blockFiles/set_12/main_safe/leftBlue\GB_LB_2.xlsx
46	main_safe	True	0.0	823	0	1.0	1.0	1.0	1	right	1.0	1.0	1.0	1	0.08	blockFiles/set_12/main_safe/leftBlue\GB_LB_2.xlsx
47	main_safe	True	0.0	823	0	1.0	1.0	0.0	1	left	2.0	1.0	1.0	0	-0.08	blockFiles/set_12/main_safe/leftBlue\GB_LB_2.xlsx
48	main_safe	True	0.0	823	0	1.0	1.0	1.0	1	right	1.0	1.0	1.0	1	0.08	blockFiles/set_12/main_safe/leftBlue\GB_LB_2.xlsx
49	main_safe	True	0.0	823	0	1.0	1.0	0.0	1	left	2.0	1.0	1.0	0	-0.08	blockFiles/set_12/main_safe/leftBlue\GB_LB_2.xlsx
50	main_safe	True	0.0	823	0	1.0	1.0	1.0	1	right	1.0	1.0	1.0	1	0.08	blockFiles/set_12/main_safe/leftBlue\GB_LB_2.xlsx
51	main_safe	True	0.0	823	0	1.0	1.0	1.0	1	right	1.0	1.0	1.0	1	0.08	blockFiles/set_12/main_safe/leftBlue\GB_LB_2.xlsx
52	main_safe	True	0.0	823	0	2.0	2.0	0.0	1	left	2.0	0.0	0.0	0	-0.08	blockFiles/set_12/main_safe/rightBlue\GB_RB_2.xlsx
53	main_safe	True	0.0	823	0	2.0	2.0	1.0	1	right	2.0	1.0	1.0	1	0.08	blockFiles/set_12/main_safe/rightBlue\GB_RB_2.xlsx
54	main_safe	True	0.0	823	0	2.0	2.0	0.0	1	left	2.0	0.0	0.0	0	-0.08	blockFiles/set_12/main_safe/rightBlue\GB_RB_2.xlsx
55	main_safe	True	0.0	823	0	2.0	2.0	1.0	1	right	2.0	1.0	1.0	1	0.08	blockFiles/set_12/main_safe/rightBlue\GB_RB_2.xlsx
56	main_safe	True	0.0	823	0	2.0	2.0	1.0	1	right	2.0	1.0	1.0	1	0.08	blockFiles/set_12/main_safe/rightBlue\GB_RB_2.xlsx
57	main_safe	True	0.0	823	0	2.0	2.0	1.0	1	right	2.0	1.0	1.0	1	0.08	blockFiles/set_12/main_safe/rightBlue\GB_RB_2.xlsx
58	main_safe	True	0.0	823	0	2.0	2.0	0.0	1	left	1.0	1.0	1.0	0	-0.08	blockFiles/set_12/main_safe/rightBlue\GB_RB_2.xlsx
59	main_safe	True	0.0	823	0	2.0	2.0	0.0	1	left	1.0	0.0	1.0	0	-0.08	blockFiles/set_12/main_safe/rightBlue\GB_RB_2.xlsx
60	main_safe	True	0.0	823	0	2.0	2.0	1.0	1	right	2.0	1.0	1.0	1	0.08	blockFiles/set_12/main_safe/rightBlue\GB_RB_2.xlsx
61	main_safe	True	0.0	823	0	2.0	2.0	0.0	1	left	1.0	0.0	1.0	0	-0.08	blockFiles/set_12/main_safe/rightBlue\GB_RB_2.xlsx
62	main_safe	True	0.0	823	0	2.0	2.0	0.0	1	left	1.0	1.0	1.0	0	-0.08	blockFiles/set_12/main_safe/rightBlue\GB_RB_2.xlsx
63	main_safe	True	0.0	823	0	2.0	2.0	0.0	1	left	1.0	1.0	1.0	0	-0.08	blockFiles/set_12/main_safe/rightBlue\GB_RB_2.xlsx
64	main_safe	True	0.0	823	0	2.0	2.0	1.0	1	right	2.0	1.0	1.0	1	0.08	blockFiles/set_12/main_safe/rightBlue\GB_RB_2.xlsx
65	main_safe	True	0.0	823	0	2.0	2.0	1.0	1	right	2.0	1.0	1.0	1	0.08	blockFiles/set_12/main_safe/rightBlue\GB_RB_2.xlsx
66	main_safe	True	0.0	823	0	2.0	2.0	1.0	1	right	2.0	1.0	1.0	1	0.08	blockFiles/set_12/main_safe/rightBlue\GB_RB_2.xlsx
67	main_safe	True	0.0	823	0	2.0	2.0	0.0	1	left	1.0	1.0	1.0	0	-0.08	blockFiles/set_12/main_safe/rightBlue\GB_RB_2.xlsx
68	main_safe	True	0.0	823	0	2.0	2.0	0.0	1	left	1.0	1.0	1.0	0	-0.08	blockFiles/set_12/main_safe/rightBlue\GB_RB_2.xlsx
69	main_safe	True	0.0	823	0	2.0	2.0	1.0	1	right	2.0	0.0	1.0	1	0.08	blockFiles/set_12/main_safe/rightBlue\GB_RB_2.xlsx
70	main_safe	True	0.0	823	0	2.0	2.0	0.0	1	left	1.0	1.0	1.0	0	-0.08	blockFiles/set_12/main_safe/rightBlue\GB_RB_2.xlsx
71	main_safe	True	0.0	823	0	2.0	2.0	1.0	1	right	2.0	1.0	1.0	1	0.08	blockFiles/set_12/main_safe/rightBlue\GB_RB_2.xlsx
72	main_safe	True	0.0	823	0	2.0	2.0	0.0	1	left	1.0	1.0	1.0	0	-0.08	blockFiles/set_12/main_safe/rightBlue\GB_RB_2.xlsx
73	main_safe	True	0.0	823	0	2.0	2.0	1.0	1	right	2.0	1.0	1.0	1	0.08	blockFiles/set_12/main_safe/rightBlue\GB_RB_2.xlsx
74	main_safe	True	0.0	823	0	2.0	2.0	0.0	1	left	1.0	1.0	1.0	0	-0.08	blockFiles/set_12/main_safe/rightBlue\GB_RB_2.xlsx
75	main_safe	True	0.0	823	0	2.0	2.0	1.0	1	right	2.0	1.0	1.0	1	0.08	blockFiles/set_12/main_safe/rightBlue\GB_RB_2.xlsx
76	main_safe	True	0.0	823	0	2.0	2.0	0.0	1	left	1.0	1.0	1.0	0	-0.08	blockFiles/set_12/main_safe/rightBlue\GB_RB_2.xlsx
77	main_safe	True	0.0	823	0	3.0	3.0	0.0	1	left	2.0	0.0	0.0	0	-0.08	blockFiles/set_12/main_safe/rightBlue\GB_RB_3.xlsx
78	main_safe	True	0.0	823	0	3.0	3.0	0.0	1	left	1.0	1.0	1.0	0	-0.08	blockFiles/set_12/main_safe/rightBlue\GB_RB_3.xlsx
79	main_safe	True	0.0	823	0	3.0	3.0	1.0	1	right	2.0	1.0	1.0	1	0.08	blockFiles/set_12/main_safe/rightBlue\GB_RB_3.xlsx
80	main_safe	True	0.0	823	0	3.0	3.0	1.0	1	right	2.0	1.0	1.0	1	0.08	blockFiles/set_12/main_safe/rightBlue\GB_RB_3.xlsx
81	main_safe	True	0.0	823	0	3.0	3.0	1.0	1	right	2.0	0.0	1.0	1	0.08	blockFiles/set_12/main_safe/rightBlue\GB_RB_3.xlsx
82	main_safe	True	0.0	823	0	3.0	3.0	0.0	1	left	1.0	1.0	1.0	0	-0.08	blockFiles/set_12/main_safe/rightBlue\GB_RB_3.xlsx
83	main_safe	True	0.0	823	0	3.0	3.0	0.0	1	left	1.0	1.0	1.0	0	-0.08	blockFiles/set_12/main_safe/rightBlue\GB_RB_3.xlsx
84	main_safe	True	0.0	823	0	3.0	3.0	0.0	1	left	1.0	1.0	1.0	0	-0.08	blockFiles/set_12/main_safe/rightBlue\GB_RB_3.xlsx
85	main_safe	True	0.0	823	0	3.0	3.0	0.0	1	left	1.0	1.0	1.0	0	-0.08	blockFiles/set_12/main_safe/rightBlue\GB_RB_3.xlsx
86	main_safe	True	0.0	823	0	3.0	3.0	1.0	1	right	2.0	1.0	1.0	1	0.08	blockFiles/set_12/main_safe/rightBlue\GB_RB_3.xlsx
87	main_safe	True	0.0	823	0	3.0	3.0	0.0	1	left	1.0	1.0	1.0	0	-0.08	blockFiles/set_12/main_safe/rightBlue\GB_RB_3.xlsx
88	main_safe	True	0.0	823	0	3.0	3.0	0.0	1	left	1.0	0.0	1.0	0	-0.08	blockFiles/set_12/main_safe/rightBlue\GB_RB_3.xlsx
89	main_safe	True	0.0	823	0	3.0	3.0	0.0	1	left	1.0	1.0	1.0	0	-0.08	blockFiles/set_12/main_safe/rightBlue\GB_RB_3.xlsx
90	main_safe	True	0.0	823	0	3.0	3.0	1.0	1	right	2.0	0.0	1.0	1	0.08	blockFiles/set_12/main_safe/rightBlue\GB_RB_3.xlsx
91	main_safe	True	0.0	823	0	3.0	3.0	1.0	1	right	2.0	1.0	1.0	1	0.08	blockFiles/set_12/main_safe/rightBlue\GB_RB_3.xlsx
92	main_safe	True	0.0	823	0	3.0	3.0	0.0	1	left	1.0	0.0	1.0	0	-0.08	blockFiles/set_12/main_safe/rightBlue\GB_RB_3.xlsx
93	main_safe	True	0.0	823	0	3.0	3.0	1.0	1	right	2.0	0.0	1.0	1	0.08	blockFiles/set_12/main_safe/rightBlue\GB_RB_3.xlsx
94	main_safe	True	0.0	823	0	3.0	3.0	0.0	1	left	1.0	1.0	1.0	0	-0.08	blockFiles/set_12/main_safe/rightBlue\GB_RB_3.xlsx
95	main_safe	True	0.0	823	0	3.0	3.0	1.0	1	right	2.0	1.0	1.0	1	0.08	blockFiles/set_12/main_safe/rightBlue\GB_RB_3.xlsx
96	main_safe	True	0.0	823	0	3.0	3.0	0.0	1	left	1.0	1.0	1.0	0	-0.08	blockFiles/set_12/main_safe/rightBlue\GB_RB_3.xlsx
97	main_safe	True	0.0	823	0	3.0	3.0	1.0	1	right	2.0	1.0	1.0	1	0.08	blockFiles/set_12/main_safe/rightBlue\GB_RB_3.xlsx
98	main_safe	True	0.0	823	0	3.0	3.0	0.0	1	left	1.0	1.0	1.0	0	-0.08	blockFiles/set_12/main_safe/rightBlue\GB_RB_3.xlsx
99	main_safe	True	0.0	823	0	3.0	3.0	1.0	1	right	2.0	1.0	1.0	1	0.08	blockFiles/set_12/main_safe/rightBlue\GB_RB_3.xlsx
100	main_safe	True	0.0	823	0	3.0	3.0	1.0	1	right	2.0	1.0	1.0	1	0.08	blockFiles/set_12/main_safe/rightBlue\GB_RB_3.xlsx
101	main_safe	True	0.0	823	0	3.0	3.0	1.0	1	right	2.0	1.0	1.0	1	0.08	blockFiles/set_12/main_safe/rightBlue\GB_RB_3.xlsx
102	main_safe	True	0.0	823	0	4.0	4.0	1.0	1	right	2.0	0.0	0.0	1	0.08	blockFiles/set_12/main_safe/leftBlue\GB_LB_1.xlsx
103	main_safe	True	0.0	823	0	4.0	4.0	0.0	1	left	1.0	1.0	0.0	0	-0.08	blockFiles/set_12/main_safe/leftBlue\GB_LB_1.xlsx
104	main_safe	True	0.0	823	0	4.0	4.0	0.0	1	left	1.0	0.0	0.0	0	-0.08	blockFiles/set_12/main_safe/leftBlue\GB_LB_1.xlsx
105	main_safe	True	0.0	823	0	4.0	4.0	0.0	1	left	1.0	0.0	0.0	0	-0.08	blockFiles/set_12/main_safe/leftBlue\GB_LB_1.xlsx
106	main_safe	True	0.0	823	0	4.0	4.0	1.0	1	right	1.0	1.0	1.0	1	0.08	blockFiles/set_12/main_safe/leftBlue\GB_LB_1.xlsx
107	main_safe	True	0.0	823	0	4.0	4.0	0.0	1	left	2.0	1.0	1.0	0	-0.08	blockFiles/set_12/main_safe/leftBlue\GB_LB_1.xlsx
108	main_safe	True	0.0	823	0	4.0	4.0	1.0	1	right	1.0	1.0	1.0	1	0.08	blockFiles/set_12/main_safe/leftBlue\GB_LB_1.xlsx
109	main_safe	True	0.0	823	0	4.0	4.0	0.0	1	left	2.0	1.0	1.0	0	-0.08	blockFiles/set_12/main_safe/leftBlue\GB_LB_1.xlsx
110	main_safe	True	0.0	823	0	4.0	4.0	1.0	1	right	1.0	1.0	1.0	1	0.08	blockFiles/set_12/main_safe/leftBlue\GB_LB_1.xlsx
111	main_safe	True	0.0	823	0	4.0	4.0	1.0	1	right	1.0	1.0	1.0	1	0.08	blockFiles/set_12/main_safe/leftBlue\GB_LB_1.xlsx
112	main_safe	True	0.0	823	0	4.0	4.0	0.0	1	left	2.0	1.0	1.0	0	-0.08	blockFiles/set_12/main_safe/leftBlue\GB_LB_1.xlsx
113	main_safe	True	0.0	823	0	4.0	4.0	1.0	1	right	1.0	0.0	1.0	1	0.08	blockFiles/set_12/main_safe/leftBlue\GB_LB_1.xlsx
114	main_safe	True	0.0	823	0	4.0	4.0	0.0	1	left	2.0	0.0	1.0	0	-0.08	blockFiles/set_12/main_safe/leftBlue\GB_LB_1.xlsx
115	main_safe	True	0.0	823	0	4.0	4.0	1.0	1	right	1.0	1.0	1.0	1	0.08	blockFiles/set_12/main_safe/leftBlue\GB_LB_1.xlsx
116	main_safe	True	0.0	823	0	4.0	4.0	1.0	1	right	1.0	1.0	1.0	1	0.08	blockFiles/set_12/main_safe/leftBlue\GB_LB_1.xlsx
117	main_safe	True	0.0	823	0	4.0	4.0	0.0	1	left	2.0	1.0	1.0	0	-0.08	blockFiles/set_12/main_safe/leftBlue\GB_LB_1.xlsx
118	main_safe	True	0.0	823	0	4.0	4.0	0.0	1	left	2.0	1.0	1.0	0	-0.08	blockFiles/set_12/main_safe/leftBlue\GB_LB_1.xlsx
119	main_safe	True	0.0	823	0	4.0	4.0	0.0	1	left	2.0	0.0	1.0	0	-0.08	blockFiles/set_12/main_safe/leftBlue\GB_LB_1.xlsx
120	main_safe	True	0.0	823	0	4.0	4.0	0.0	1	left	2.0	1.0	1.0	0	-0.08	blockFiles/set_12/main_safe/leftBlue\GB_LB_1.xlsx
121	main_safe	True	0.0	823	0	4.0	4.0	1.0	1	right	1.0	0.0	1.0	1	0.08	blockFiles/set_12/main_safe/leftBlue\GB_LB_1.xlsx
122	main_safe	True	0.0	823	0	4.0	4.0	1.0	1	right	1.0	1.0	1.0	1	0.08	blockFiles/set_12/main_safe/leftBlue\GB_LB_1.xlsx
123	main_safe	True	0.0	823	0	4.0	4.0	0.0	1	left	2.0	1.0	1.0	0	-0.08	blockFiles/set_12/main_safe/leftBlue\GB_LB_1.xlsx
124	main_safe	True	0.0	823	0	4.0	4.0	0.0	1	left	2.0	1.0	1.0	0	-0.08	blockFiles/set_12/main_safe/leftBlue\GB_LB_1.xlsx
125	main_safe	True	0.0	823	0	4.0	4.0	1.0	1	right	1.0	1.0	1.0	1	0.08	blockFiles/set_12/main_safe/leftBlue\GB_LB_1.xlsx
126	main_safe	True	0.0	823	0	4.0	4.0	1.0	1	right	1.0	1.0	1.0	1	0.08	blockFiles/set_12/main_safe/leftBlue\GB_LB_1.xlsx
127	main_safe	True	0.0	823	0	5.0	5.0	0.0	1	left	2.0	1.0	1.0	0	-0.08	blockFiles/set_12/main_safe/leftBlue\GB_LB_3.xlsx
128	main_safe	True	0.0	823	0	5.0	5.0	0.0	1	left	2.0	1.0	1.0	0	-0.08	blockFiles/set_12/main_safe/leftBlue\GB_LB_3.xlsx
129	main_safe	True	0.0	823	0	5.0	5.0	1.0	1	right	1.0	1.0	1.0	1	0.08	blockFiles/set_12/main_safe/leftBlue\GB_LB_3.xlsx
130	main_safe	True	0.0	823	0	5.0	5.0	0.0	1	left	2.0	1.0	1.0	0	-0.08	blockFiles/set_12/main_safe/leftBlue\GB_LB_3.xlsx
131	main_safe	True	0.0	823	0	5.0	5.0	0.0	1	left	2.0	1.0	1.0	0	-0.08	blockFiles/set_12/main_safe/leftBlue\GB_LB_3.xlsx
132	main_safe	True	0.0	823	0	5.0	5.0	1.0	1	right	1.0	1.0	1.0	1	0.08	blockFiles/set_12/main_safe/leftBlue\GB_LB_3.xlsx
133	main_safe	True	0.0	823	0	5.0	5.0	0.0	1	left	2.0	1.0	1.0	0	-0.08	blockFiles/set_12/main_safe/leftBlue\GB_LB_3.xlsx
134	main_safe	True	0.0	823	0	5.0	5.0	0.0	1	left	2.0	0.0	1.0	0	-0.08	blockFiles/set_12/main_safe/leftBlue\GB_LB_3.xlsx
135	main_safe	True	0.0	823	0	5.0	5.0	1.0	1	right	1.0	1.0	1.0	1	0.08	blockFiles/set_12/main_safe/leftBlue\GB_LB_3.xlsx
136	main_safe	True	0.0	823	0	5.0	5.0	0.0	1	left	2.0	1.0	1.0	0	-0.08	blockFiles/set_12/main_safe/leftBlue\GB_LB_3.xlsx
137	main_safe	True	0.0	823	0	5.0	5.0	0.0	1	left	2.0	1.0	1.0	0	-0.08	blockFiles/set_12/main_safe/leftBlue\GB_LB_3.xlsx
138	main_safe	True	0.0	823	0	5.0	5.0	1.0	1	right	1.0	1.0	1.0	1	0.08	blockFiles/set_12/main_safe/leftBlue\GB_LB_3.xlsx
139	main_safe	True	0.0	823	0	5.0	5.0	1.0	1	right	1.0	1.0	1.0	1	0.08	blockFiles/set_12/main_safe/leftBlue\GB_LB_3.xlsx
140	main_safe	True	0.0	823	0	5.0	5.0	1.0	1	right	1.0	1.0	1.0	1	0.08	blockFiles/set_12/main_safe/leftBlue\GB_LB_3.xlsx
141	main_safe	True	0.0	823	0	5.0	5.0	1.0	1	right	1.0	0.0	1.0	1	0.08	blockFiles/set_12/main_safe/leftBlue\GB_LB_3.xlsx
142	main_safe	True	0.0	823	0	5.0	5.0	0.0	1	left	2.0	1.0	1.0	0	-0.08	blockFiles/set_12/main_safe/leftBlue\GB_LB_3.xlsx
143	main_safe	True	0.0	823	0	5.0	5.0	1.0	1	right	1.0	1.0	1.0	1	0.08	blockFiles/set_12/main_safe/leftBlue\GB_LB_3.xlsx
144	main_safe	True	0.0	823	0	5.0	5.0	0.0	1	left	2.0	0.0	1.0	0	-0.08	blockFiles/set_12/main_safe/leftBlue\GB_LB_3.xlsx
145	main_safe	True	0.0	823	0	5.0	5.0	0.0	1	left	2.0	1.0	1.0	0	-0.08	blockFiles/set_12/main_safe/leftBlue\GB_LB_3.xlsx
146	main_safe	True	0.0	823	0	5.0	5.0	0.0	1	left	2.0	1.0	1.0	0	-0.08	blockFiles/set_12/main_safe/leftBlue\GB_LB_3.xlsx
147	main_safe	True	0.0	823	0	5.0	5.0	1.0	1	right	1.0	1.0	1.0	1	0.08	blockFiles/set_12/main_safe/leftBlue\GB_LB_3.xlsx
148	main_safe	True	0.0	823	0	5.0	5.0	1.0	1	right	1.0	0.0	1.0	1	0.08	blockFiles/set_12/main_safe/leftBlue\GB_LB_3.xlsx
149	main_safe	True	0.0	823	0	5.0	5.0	1.0	1	right	1.0	1.0	1.0	1	0.08	blockFiles/set_12/main_safe/leftBlue\GB_LB_3.xlsx
150	main_safe	True	0.0	823	0	5.0	5.0	1.0	1	right	1.0	0.0	1.0	1	0.08	blockFiles/set_12/main_safe/leftBlue\GB_LB_3.xlsx
151	main_safe	True	0.0	823	0	5.0	5.0	1.0	1	right	1.0	0.0	1.0	1	0.08	blockFiles/set_12/main_safe/leftBlue\GB_LB_3.xlsx
152	patches	True	n/a	823	0	n/a	n/a	1.0	1	right	n/a	n/a	n/a	1	0.0143397010863	blockFiles/set_12/main_PD/GB_runPatches1.xlsx
153	patches	True	n/a	823	0	n/a	n/a	n/a	0	None	n/a	n/a	n/a	0	-0.0144556364417	blockFiles/set_12/main_PD/GB_runPatches1.xlsx
154	patches	True	n/a	823	0	n/a	n/a	1.0	1	right	n/a	n/a	n/a	1	0.026961320433799996	blockFiles/set_12/main_PD/GB_runPatches1.xlsx
155	patches	True	n/a	823	0	n/a	n/a	1.0	1	right	n/a	n/a	n/a	1	0.0666306678765	blockFiles/set_12/main_PD/GB_runPatches1.xlsx
156	patches	True	n/a	823	0	n/a	n/a	0.0	1	left	n/a	n/a	n/a	0	-0.0673518482037	blockFiles/set_12/main_PD/GB_runPatches1.xlsx
157	patches	True	n/a	823	0	n/a	n/a	0.0	1	left	n/a	n/a	n/a	0	-0.0106833664142	blockFiles/set_12/main_PD/GB_runPatches1.xlsx
158	patches	True	n/a	823	0	n/a	n/a	1.0	0	right	n/a	n/a	n/a	0	-0.028601675946299997	blockFiles/set_12/main_PD/GB_runPatches1.xlsx
159	patches	True	n/a	823	0	n/a	n/a	0.0	1	left	n/a	n/a	n/a	0	-0.0710861132108	blockFiles/set_12/main_PD/GB_runPatches1.xlsx
160	patches	True	n/a	823	0	n/a	n/a	0.0	1	left	n/a	n/a	n/a	0	-0.00384918129072	blockFiles/set_12/main_PD/GB_runPatches1.xlsx
161	patches	True	n/a	823	0	n/a	n/a	1.0	1	right	n/a	n/a	n/a	1	0.0600614721701	blockFiles/set_12/main_PD/GB_runPatches1.xlsx
162	patches	True	n/a	823	0	n/a	n/a	1.0	1	right	n/a	n/a	n/a	1	0.049138944149000004	blockFiles/set_12/main_PD/GB_runPatches1.xlsx
163	patches	True	n/a	823	0	n/a	n/a	1.0	1	right	n/a	n/a	n/a	1	0.07145716536789999	blockFiles/set_12/main_PD/GB_runPatches1.xlsx
164	patches	True	n/a	823	0	n/a	n/a	1.0	1	right	n/a	n/a	n/a	1	0.06379254968840001	blockFiles/set_12/main_PD/GB_runPatches1.xlsx
165	patches	True	n/a	823	0	n/a	n/a	0.0	1	left	n/a	n/a	n/a	0	-0.0488384098932	blockFiles/set_12/main_PD/GB_runPatches1.xlsx
166	patches	True	n/a	823	0	n/a	n/a	0.0	1	left	n/a	n/a	n/a	0	-0.0157847633772	blockFiles/set_12/main_PD/GB_runPatches1.xlsx
167	patches	True	n/a	823	0	n/a	n/a	0.0	1	left	n/a	n/a	n/a	0	-0.009540078286079999	blockFiles/set_12/main_PD/GB_runPatches1.xlsx
168	patches	True	n/a	823	0	n/a	n/a	1.0	1	right	n/a	n/a	n/a	1	0.057854436729100005	blockFiles/set_12/main_PD/GB_runPatches1.xlsx
169	patches	True	n/a	823	0	n/a	n/a	0.0	1	left	n/a	n/a	n/a	0	-0.0342509151623	blockFiles/set_12/main_PD/GB_runPatches1.xlsx
170	patches	True	n/a	823	0	n/a	n/a	1.0	1	right	n/a	n/a	n/a	1	0.035623953491400004	blockFiles/set_12/main_PD/GB_runPatches1.xlsx
171	patches	True	n/a	823	0	n/a	n/a	0.0	1	left	n/a	n/a	n/a	0	-0.037927780263099994	blockFiles/set_12/main_PD/GB_runPatches1.xlsx
172	patches	True	n/a	823	0	n/a	n/a	1.0	1	right	n/a	n/a	n/a	1	0.0360213036276	blockFiles/set_12/main_PD/GB_runPatches1.xlsx
173	patches	True	n/a	823	0	n/a	n/a	1.0	1	right	n/a	n/a	n/a	1	0.0666500863247	blockFiles/set_12/main_PD/GB_runPatches1.xlsx
174	patches	True	n/a	823	0	n/a	n/a	0.0	0	left	n/a	n/a	n/a	1	0.027500837631500002	blockFiles/set_12/main_PD/GB_runPatches1.xlsx
175	patches	True	n/a	823	0	n/a	n/a	1.0	1	right	n/a	n/a	n/a	1	0.0140350818634	blockFiles/set_12/main_PD/GB_runPatches1.xlsx
176	patches	True	n/a	823	0	n/a	n/a	1.0	0	right	n/a	n/a	n/a	0	-0.0416291003115	blockFiles/set_12/main_PD/GB_runPatches1.xlsx
177	patches	True	n/a	823	0	n/a	n/a	0.0	1	left	n/a	n/a	n/a	0	-0.077243402563	blockFiles/set_12/main_PD/GB_runPatches1.xlsx
178	patches	True	n/a	823	0	n/a	n/a	1.0	1	right	n/a	n/a	n/a	1	0.021159478537699998	blockFiles/set_12/main_PD/GB_runPatches1.xlsx
179	patches	True	n/a	823	0	n/a	n/a	1.0	0	right	n/a	n/a	n/a	0	-0.068095147796	blockFiles/set_12/main_PD/GB_runPatches1.xlsx
180	patches	True	n/a	823	0	n/a	n/a	1.0	1	right	n/a	n/a	n/a	1	0.038356733322099996	blockFiles/set_12/main_PD/GB_runPatches1.xlsx
181	patches	True	n/a	823	0	n/a	n/a	0.0	1	left	n/a	n/a	n/a	0	-0.04249934043740001	blockFiles/set_12/main_PD/GB_runPatches1.xlsx
182	patches	True	n/a	823	0	n/a	n/a	0.0	0	left	n/a	n/a	n/a	1	0.014918333645899999	blockFiles/set_12/main_PD/GB_runPatches1.xlsx
183	patches	True	n/a	823	0	n/a	n/a	0.0	0	left	n/a	n/a	n/a	1	0.025887831337799996	blockFiles/set_12/main_PD/GB_runPatches1.xlsx
184	patches	True	n/a	823	0	n/a	n/a	0.0	1	left	n/a	n/a	n/a	0	-0.0467004829273	blockFiles/set_12/main_PD/GB_runPatches1.xlsx
185	patches	True	n/a	823	0	n/a	n/a	1.0	1	right	n/a	n/a	n/a	1	0.0672350238636	blockFiles/set_12/main_PD/GB_runPatches1.xlsx
186	patches	True	n/a	823	0	n/a	n/a	0.0	0	left	n/a	n/a	n/a	1	0.064482193049	blockFiles/set_12/main_PD/GB_runPatches1.xlsx
187	patches	True	n/a	823	0	n/a	n/a	0.0	1	left	n/a	n/a	n/a	0	-0.0150506467931	blockFiles/set_12/main_PD/GB_runPatches1.xlsx
188	patches	True	n/a	823	0	n/a	n/a	0.0	0	left	n/a	n/a	n/a	1	0.013569982070500001	blockFiles/set_12/main_PD/GB_runPatches1.xlsx
189	patches	True	n/a	823	0	n/a	n/a	0.0	1	left	n/a	n/a	n/a	0	-0.00148514155298	blockFiles/set_12/main_PD/GB_runPatches1.xlsx
190	patches	True	n/a	823	0	n/a	n/a	0.0	1	left	n/a	n/a	n/a	0	-0.0608157703839	blockFiles/set_12/main_PD/GB_runPatches1.xlsx
191	patches	True	n/a	823	0	n/a	n/a	0.0	1	left	n/a	n/a	n/a	0	-0.0612181626074	blockFiles/set_12/main_PD/GB_runPatches1.xlsx
192	patches	True	n/a	823	0	n/a	n/a	1.0	1	right	n/a	n/a	n/a	1	0.07322235183789999	blockFiles/set_12/main_PD/GB_runPatches1.xlsx
193	patches	True	n/a	823	0	n/a	n/a	n/a	0	None	n/a	n/a	n/a	0	-0.0216436229646	blockFiles/set_12/main_PD/GB_runPatches1.xlsx
194	patches	True	n/a	823	0	n/a	n/a	1.0	1	right	n/a	n/a	n/a	1	0.0720011398382	blockFiles/set_12/main_PD/GB_runPatches1.xlsx
195	patches	True	n/a	823	0	n/a	n/a	1.0	1	right	n/a	n/a	n/a	1	0.014413299802700001	blockFiles/set_12/main_PD/GB_runPatches1.xlsx
196	patches	True	n/a	823	0	n/a	n/a	0.0	1	left	n/a	n/a	n/a	0	-0.0565596583858	blockFiles/set_12/main_PD/GB_runPatches1.xlsx
197	patches	True	n/a	823	0	n/a	n/a	0.0	1	left	n/a	n/a	n/a	0	-0.019046288523799998	blockFiles/set_12/main_PD/GB_runPatches1.xlsx
198	patches	True	n/a	823	0	n/a	n/a	0.0	1	left	n/a	n/a	n/a	0	-0.060052235796999996	blockFiles/set_12/main_PD/GB_runPatches1.xlsx
199	patches	True	n/a	823	0	n/a	n/a	1.0	0	right	n/a	n/a	n/a	0	-0.026375405266900003	blockFiles/set_12/main_PD/GB_runPatches1.xlsx
200	patches	True	n/a	823	0	n/a	n/a	0.0	1	left	n/a	n/a	n/a	0	-0.06748777717349999	blockFiles/set_12/main_PD/GB_runPatches1.xlsx
201	patches	True	n/a	823	0	n/a	n/a	0.0	1	left	n/a	n/a	n/a	0	-0.0362747310102	blockFiles/set_12/main_PD/GB_runPatches1.xlsx
202	patches	True	n/a	823	0	n/a	n/a	0.0	0	left	n/a	n/a	n/a	1	0.017890169378400003	blockFiles/set_12/main_PD/GB_runPatches1.xlsx
203	patches	True	n/a	823	0	n/a	n/a	0.0	1	left	n/a	n/a	n/a	0	-0.0196734457463	blockFiles/set_12/main_PD/GB_runPatches1.xlsx
204	patches	True	n/a	823	0	n/a	n/a	0.0	1	left	n/a	n/a	n/a	0	-0.0727816335298	blockFiles/set_12/main_PD/GB_runPatches1.xlsx
205	patches	True	n/a	823	0	n/a	n/a	0.0	1	left	n/a	n/a	n/a	0	-0.0637988653034	blockFiles/set_12/main_PD/GB_runPatches1.xlsx
206	patches	True	n/a	823	0	n/a	n/a	1.0	1	right	n/a	n/a	n/a	1	0.0734237779118	blockFiles/set_12/main_PD/GB_runPatches1.xlsx
207	patches	True	n/a	823	0	n/a	n/a	0.0	0	left	n/a	n/a	n/a	1	0.0261363205127	blockFiles/set_12/main_PD/GB_runPatches1.xlsx
208	patches	True	n/a	823	0	n/a	n/a	0.0	1	left	n/a	n/a	n/a	0	-0.03928584704180001	blockFiles/set_12/main_PD/GB_runPatches1.xlsx
209	patches	True	n/a	823	0	n/a	n/a	1.0	1	right	n/a	n/a	n/a	1	0.00922165216878	blockFiles/set_12/main_PD/GB_runPatches1.xlsx
210	patches	True	n/a	823	0	n/a	n/a	0.0	1	left	n/a	n/a	n/a	0	-0.0762632150017	blockFiles/set_12/main_PD/GB_runPatches1.xlsx
211	patches	True	n/a	823	0	n/a	n/a	0.0	1	left	n/a	n/a	n/a	0	-0.018531153723599997	blockFiles/set_12/main_PD/GB_runPatches1.xlsx
212	patches	True	n/a	823	0	n/a	n/a	1.0	1	right	n/a	n/a	n/a	1	0.0628342086636	blockFiles/set_12/main_PD/GB_runPatches1.xlsx
213	patches	True	n/a	823	0	n/a	n/a	0.0	1	left	n/a	n/a	n/a	0	-0.0200841935538	blockFiles/set_12/main_PD/GB_runPatches1.xlsx
214	patches	True	n/a	823	0	n/a	n/a	1.0	1	right	n/a	n/a	n/a	1	0.0169194746204	blockFiles/set_12/main_PD/GB_runPatches1.xlsx
215	patches	True	n/a	823	0	n/a	n/a	0.0	1	left	n/a	n/a	n/a	0	-0.025877954196200002	blockFiles/set_12/main_PD/GB_runPatches1.xlsx
216	patches	True	n/a	823	0	n/a	n/a	1.0	1	right	n/a	n/a	n/a	1	0.0427386321127	blockFiles/set_12/main_PD/GB_runPatches1.xlsx
217	patches	True	n/a	823	0	n/a	n/a	1.0	1	right	n/a	n/a	n/a	1	0.027731522526599998	blockFiles/set_12/main_PD/GB_runPatches1.xlsx
218	patches	True	n/a	823	0	n/a	n/a	1.0	1	right	n/a	n/a	n/a	1	0.0278919371031	blockFiles/set_12/main_PD/GB_runPatches1.xlsx
219	patches	True	n/a	823	0	n/a	n/a	1.0	1	right	n/a	n/a	n/a	1	0.071534664724	blockFiles/set_12/main_PD/GB_runPatches1.xlsx
220	patches	True	n/a	823	0	n/a	n/a	1.0	1	right	n/a	n/a	n/a	1	0.045056413356200004	blockFiles/set_12/main_PD/GB_runPatches1.xlsx
221	patches	True	n/a	823	0	n/a	n/a	1.0	1	right	n/a	n/a	n/a	1	0.0469845326245	blockFiles/set_12/main_PD/GB_runPatches1.xlsx
222	patches	True	n/a	823	0	n/a	n/a	0.0	1	left	n/a	n/a	n/a	0	-0.055802283007699995	blockFiles/set_12/main_PD/GB_runPatches1.xlsx
223	patches	True	n/a	823	0	n/a	n/a	1.0	1	right	n/a	n/a	n/a	1	0.0603579902835	blockFiles/set_12/main_PD/GB_runPatches1.xlsx
224	patches	True	n/a	823	0	n/a	n/a	1.0	0	right	n/a	n/a	n/a	0	-0.013222229480700001	blockFiles/set_12/main_PD/GB_runPatches1.xlsx
225	patches	True	n/a	823	0	n/a	n/a	0.0	1	left	n/a	n/a	n/a	0	-0.025515272263400002	blockFiles/set_12/main_PD/GB_runPatches1.xlsx
226	patches	True	n/a	823	0	n/a	n/a	0.0	1	left	n/a	n/a	n/a	0	-0.0328058783151	blockFiles/set_12/main_PD/GB_runPatches1.xlsx
227	patches	True	n/a	823	0	n/a	n/a	0.0	1	left	n/a	n/a	n/a	0	-0.00340994402766	blockFiles/set_12/main_PD/GB_runPatches1.xlsx
228	patches	True	n/a	823	0	n/a	n/a	0.0	1	left	n/a	n/a	n/a	0	-0.043215878792099996	blockFiles/set_12/main_PD/GB_runPatches1.xlsx
229	patches	True	n/a	823	0	n/a	n/a	0.0	1	left	n/a	n/a	n/a	0	-0.05917755153030001	blockFiles/set_12/main_PD/GB_runPatches1.xlsx
230	patches	True	n/a	823	0	n/a	n/a	1.0	1	right	n/a	n/a	n/a	1	0.040984939169099996	blockFiles/set_12/main_PD/GB_runPatches1.xlsx
231	patches	True	n/a	823	0	n/a	n/a	1.0	1	right	n/a	n/a	n/a	1	0.05871894778680001	blockFiles/set_12/main_PD/GB_runPatches1.xlsx
232	patches	True	n/a	823	0	n/a	n/a	0.0	1	left	n/a	n/a	n/a	0	-0.0580286292359	blockFiles/set_12/main_PD/GB_runPatches1.xlsx
233	patches	True	n/a	823	0	n/a	n/a	0.0	1	left	n/a	n/a	n/a	0	-0.0166056499071	blockFiles/set_12/main_PD/GB_runPatches1.xlsx
234	patches	True	n/a	823	0	n/a	n/a	0.0	1	left	n/a	n/a	n/a	0	-0.030923986025200002	blockFiles/set_12/main_PD/GB_runPatches1.xlsx
235	patches	True	n/a	823	0	n/a	n/a	0.0	1	left	n/a	n/a	n/a	0	-0.018380295988200002	blockFiles/set_12/main_PD/GB_runPatches1.xlsx
236	patches	True	n/a	823	0	n/a	n/a	0.0	1	left	n/a	n/a	n/a	0	-0.0282335882634	blockFiles/set_12/main_PD/GB_runPatches1.xlsx
237	patches	True	n/a	823	0	n/a	n/a	1.0	1	right	n/a	n/a	n/a	1	0.0563024088927	blockFiles/set_12/main_PD/GB_runPatches1.xlsx
238	patches	True	n/a	823	0	n/a	n/a	1.0	1	right	n/a	n/a	n/a	1	0.029696088079400003	blockFiles/set_12/main_PD/GB_runPatches1.xlsx
239	patches	True	n/a	823	0	n/a	n/a	1.0	1	right	n/a	n/a	n/a	1	0.0631963817216	blockFiles/set_12/main_PD/GB_runPatches1.xlsx
240	patches	True	n/a	823	0	n/a	n/a	1.0	1	right	n/a	n/a	n/a	1	0.023698694054	blockFiles/set_12/main_PD/GB_runPatches1.xlsx
241	patches	True	n/a	823	0	n/a	n/a	0.0	0	left	n/a	n/a	n/a	1	0.0654831381142	blockFiles/set_12/main_PD/GB_runPatches1.xlsx
242	patches	True	n/a	823	0	n/a	n/a	1.0	1	right	n/a	n/a	n/a	1	0.0799461892247	blockFiles/set_12/main_PD/GB_runPatches1.xlsx
243	patches	True	n/a	823	0	n/a	n/a	0.0	1	left	n/a	n/a	n/a	0	-0.0108236625046	blockFiles/set_12/main_PD/GB_runPatches1.xlsx
244	patches	True	n/a	823	0	n/a	n/a	1.0	1	right	n/a	n/a	n/a	1	0.0402581594326	blockFiles/set_12/main_PD/GB_runPatches1.xlsx
245	patches	True	n/a	823	0	n/a	n/a	1.0	1	right	n/a	n/a	n/a	1	0.0519123009779	blockFiles/set_12/main_PD/GB_runPatches1.xlsx
246	patches	True	n/a	823	0	n/a	n/a	0.0	1	left	n/a	n/a	n/a	0	-0.0430653583072	blockFiles/set_12/main_PD/GB_runPatches1.xlsx
247	patches	True	n/a	823	0	n/a	n/a	1.0	1	right	n/a	n/a	n/a	1	0.021785024646700003	blockFiles/set_12/main_PD/GB_runPatches1.xlsx
248	patches	True	n/a	823	0	n/a	n/a	0.0	0	left	n/a	n/a	n/a	1	0.00269692892209	blockFiles/set_12/main_PD/GB_runPatches1.xlsx
249	patches	True	n/a	823	0	n/a	n/a	0.0	1	left	n/a	n/a	n/a	0	-0.0600393494964	blockFiles/set_12/main_PD/GB_runPatches1.xlsx
250	patches	True	n/a	823	0	n/a	n/a	0.0	0	left	n/a	n/a	n/a	1	0.023820911087099998	blockFiles/set_12/main_PD/GB_runPatches1.xlsx
251	patches	True	n/a	823	0	n/a	n/a	n/a	0	None	n/a	n/a	n/a	1	0.012208159752200002	blockFiles/set_12/main_PD/GB_runPatches1.xlsx
252	main_unc	True	0.0	823	0	0.0	0.0	1.0	1	right	2.0	0.0	1.0	1	0.0588438308798	blockFiles/set_12/main_unc/rightBlue\GB_RB_2.xlsx
253	main_unc	True	0.0	823	0	0.0	0.0	0.0	0	left	2.0	1.0	1.0	1	0.0150674352609	blockFiles/set_12/main_unc/rightBlue\GB_RB_2.xlsx
254	main_unc	True	0.0	823	0	0.0	0.0	1.0	1	right	1.0	1.0	0.0	1	0.061655343081800006	blockFiles/set_12/main_unc/rightBlue\GB_RB_2.xlsx
255	main_unc	True	0.0	823	0	0.0	0.0	0.0	1	left	2.0	0.0	0.0	0	-0.0468422710896	blockFiles/set_12/main_unc/rightBlue\GB_RB_2.xlsx
256	main_unc	True	0.0	823	0	0.0	0.0	1.0	1	right	1.0	0.0	0.0	1	0.0612741621956	blockFiles/set_12/main_unc/rightBlue\GB_RB_2.xlsx
257	main_unc	True	0.0	823	0	0.0	0.0	1.0	1	right	1.0	0.0	0.0	1	0.0413569177873	blockFiles/set_12/main_unc/rightBlue\GB_RB_2.xlsx
258	main_unc	True	1.0	823	0	0.0	0.0	n/a	0	None	n/a	0.0	n/a	1	0.010204821284899999	blockFiles/set_12/main_unc/rightBlue\GB_RB_2.xlsx
259	main_unc	True	0.0	823	0	0.0	0.0	1.0	1	right	2.0	1.0	1.0	1	0.00778806667775	blockFiles/set_12/main_unc/rightBlue\GB_RB_2.xlsx
260	main_unc	True	0.0	823	0	0.0	0.0	1.0	1	right	2.0	1.0	1.0	1	0.0552385609597	blockFiles/set_12/main_unc/rightBlue\GB_RB_2.xlsx
261	main_unc	True	0.0	823	0	0.0	0.0	1.0	1	right	1.0	0.0	0.0	1	0.008610825240610001	blockFiles/set_12/main_unc/rightBlue\GB_RB_2.xlsx
262	main_unc	True	0.0	823	0	0.0	0.0	0.0	1	left	1.0	0.0	1.0	0	-0.0633573270217	blockFiles/set_12/main_unc/rightBlue\GB_RB_2.xlsx
263	main_unc	True	1.0	823	0	0.0	0.0	n/a	0	None	n/a	0.0	n/a	0	-0.0113279461302	blockFiles/set_12/main_unc/rightBlue\GB_RB_2.xlsx
264	main_unc	True	0.0	823	0	0.0	0.0	0.0	1	left	1.0	1.0	1.0	0	-0.07916168631989999	blockFiles/set_12/main_unc/rightBlue\GB_RB_2.xlsx
265	main_unc	True	0.0	823	0	0.0	0.0	1.0	1	right	2.0	1.0	1.0	1	0.0484714156948	blockFiles/set_12/main_unc/rightBlue\GB_RB_2.xlsx
266	main_unc	True	0.0	823	0	0.0	0.0	0.0	1	left	1.0	1.0	1.0	0	-0.0170484475791	blockFiles/set_12/main_unc/rightBlue\GB_RB_2.xlsx
267	main_unc	True	0.0	823	0	0.0	0.0	1.0	1	right	2.0	1.0	1.0	1	0.0695579740778	blockFiles/set_12/main_unc/rightBlue\GB_RB_2.xlsx
268	main_unc	True	0.0	823	0	0.0	0.0	0.0	1	left	1.0	1.0	1.0	0	-0.011856153477	blockFiles/set_12/main_unc/rightBlue\GB_RB_2.xlsx
269	main_unc	True	0.0	823	0	0.0	0.0	0.0	1	left	1.0	1.0	1.0	0	-0.0400824284367	blockFiles/set_12/main_unc/rightBlue\GB_RB_2.xlsx
270	main_unc	True	0.0	823	0	0.0	0.0	0.0	1	left	1.0	1.0	1.0	0	-0.026654842141999997	blockFiles/set_12/main_unc/rightBlue\GB_RB_2.xlsx
271	main_unc	True	0.0	823	0	0.0	0.0	0.0	1	left	1.0	0.0	1.0	0	-0.07243005758150001	blockFiles/set_12/main_unc/rightBlue\GB_RB_2.xlsx
272	main_unc	True	0.0	823	0	0.0	0.0	1.0	1	right	2.0	0.0	1.0	1	0.070060504023	blockFiles/set_12/main_unc/rightBlue\GB_RB_2.xlsx
273	main_unc	True	0.0	823	0	0.0	0.0	0.0	1	left	1.0	1.0	1.0	0	-0.0565144944377	blockFiles/set_12/main_unc/rightBlue\GB_RB_2.xlsx
274	main_unc	True	0.0	823	0	0.0	0.0	0.0	1	left	1.0	1.0	1.0	0	-0.040230094902199996	blockFiles/set_12/main_unc/rightBlue\GB_RB_2.xlsx
275	main_unc	True	0.0	823	0	0.0	0.0	1.0	1	right	2.0	1.0	1.0	1	0.0214514616132	blockFiles/set_12/main_unc/rightBlue\GB_RB_2.xlsx
276	main_unc	True	0.0	823	0	0.0	0.0	1.0	1	right	2.0	0.0	1.0	1	0.0399090074375	blockFiles/set_12/main_unc/rightBlue\GB_RB_2.xlsx
277	main_unc	True	0.0	823	0	0.0	0.0	1.0	1	right	2.0	1.0	1.0	1	0.010204821284899999	blockFiles/set_12/main_unc/rightBlue\GB_RB_2.xlsx
278	main_unc	True	0.0	823	0	0.0	0.0	0.0	1	left	1.0	1.0	1.0	0	-0.0113279461302	blockFiles/set_12/main_unc/rightBlue\GB_RB_2.xlsx
279	main_unc	True	0.0	823	0	1.0	1.0	1.0	1	right	2.0	1.0	1.0	1	0.029777973443299997	blockFiles/set_12/main_unc/rightBlue\GB_RB_6.xlsx
280	main_unc	True	0.0	823	0	1.0	1.0	1.0	1	right	2.0	1.0	1.0	1	0.0308738526702	blockFiles/set_12/main_unc/rightBlue\GB_RB_6.xlsx
281	main_unc	True	0.0	823	0	1.0	1.0	0.0	1	left	1.0	0.0	1.0	0	-0.038056334760000005	blockFiles/set_12/main_unc/rightBlue\GB_RB_6.xlsx
282	main_unc	True	0.0	823	0	1.0	1.0	1.0	1	right	2.0	1.0	1.0	1	0.0227011162043	blockFiles/set_12/main_unc/rightBlue\GB_RB_6.xlsx
283	main_unc	True	0.0	823	0	1.0	1.0	0.0	1	left	1.0	1.0	1.0	0	-0.0422827381454	blockFiles/set_12/main_unc/rightBlue\GB_RB_6.xlsx
284	main_unc	True	0.0	823	0	1.0	1.0	0.0	1	left	1.0	1.0	1.0	0	-0.049879155643300005	blockFiles/set_12/main_unc/rightBlue\GB_RB_6.xlsx
285	main_unc	True	0.0	823	0	1.0	1.0	1.0	1	right	2.0	1.0	1.0	1	0.0383220619895	blockFiles/set_12/main_unc/rightBlue\GB_RB_6.xlsx
286	main_unc	True	0.0	823	0	1.0	1.0	0.0	1	left	1.0	1.0	1.0	0	-0.040487599745400005	blockFiles/set_12/main_unc/rightBlue\GB_RB_6.xlsx
287	main_unc	True	0.0	823	0	1.0	1.0	0.0	1	left	1.0	1.0	1.0	0	-0.0561233964376	blockFiles/set_12/main_unc/rightBlue\GB_RB_6.xlsx
288	main_unc	True	0.0	823	0	1.0	1.0	1.0	1	right	2.0	0.0	1.0	1	0.025569088682499998	blockFiles/set_12/main_unc/rightBlue\GB_RB_6.xlsx
289	main_unc	True	0.0	823	0	1.0	1.0	0.0	1	left	1.0	1.0	1.0	0	-0.024996564257900002	blockFiles/set_12/main_unc/rightBlue\GB_RB_6.xlsx
290	main_unc	True	0.0	823	0	1.0	1.0	1.0	1	right	2.0	1.0	1.0	1	0.00743502205238	blockFiles/set_12/main_unc/rightBlue\GB_RB_6.xlsx
291	main_unc	True	0.0	823	0	1.0	1.0	1.0	1	right	2.0	1.0	1.0	1	0.069670744203	blockFiles/set_12/main_unc/rightBlue\GB_RB_6.xlsx
292	main_unc	True	0.0	823	0	1.0	1.0	1.0	0	right	2.0	0.0	0.0	0	-0.0047092525102200005	blockFiles/set_12/main_unc/rightBlue\GB_RB_6.xlsx
293	main_unc	True	0.0	823	0	1.0	1.0	0.0	1	left	1.0	1.0	1.0	0	-0.047286883797500005	blockFiles/set_12/main_unc/rightBlue\GB_RB_6.xlsx
294	main_unc	True	0.0	823	0	1.0	1.0	1.0	1	right	2.0	1.0	1.0	1	0.00664980506524	blockFiles/set_12/main_unc/rightBlue\GB_RB_6.xlsx
295	main_unc	True	0.0	823	0	1.0	1.0	1.0	1	right	2.0	1.0	1.0	1	0.061708913389599995	blockFiles/set_12/main_unc/rightBlue\GB_RB_6.xlsx
296	main_unc	True	0.0	823	0	1.0	1.0	0.0	1	left	1.0	1.0	1.0	0	-0.0716142885387	blockFiles/set_12/main_unc/rightBlue\GB_RB_6.xlsx
297	main_unc	True	0.0	823	0	1.0	1.0	1.0	1	right	2.0	1.0	1.0	1	0.0409976067208	blockFiles/set_12/main_unc/rightBlue\GB_RB_6.xlsx
298	main_unc	True	0.0	823	0	1.0	1.0	1.0	1	right	2.0	1.0	1.0	1	0.0753689533472	blockFiles/set_12/main_unc/rightBlue\GB_RB_6.xlsx
299	main_unc	True	0.0	823	0	1.0	1.0	0.0	1	left	1.0	0.0	1.0	0	-0.0614024324529	blockFiles/set_12/main_unc/rightBlue\GB_RB_6.xlsx
300	main_unc	True	0.0	823	0	1.0	1.0	1.0	0	right	2.0	0.0	0.0	0	-0.0011739380843900002	blockFiles/set_12/main_unc/rightBlue\GB_RB_6.xlsx
301	main_unc	True	0.0	823	0	1.0	1.0	1.0	1	right	2.0	0.0	1.0	1	0.0628202588484	blockFiles/set_12/main_unc/rightBlue\GB_RB_6.xlsx
302	main_unc	True	0.0	823	0	1.0	1.0	1.0	0	right	1.0	1.0	1.0	0	-0.005061479285359999	blockFiles/set_12/main_unc/rightBlue\GB_RB_6.xlsx
303	main_unc	True	0.0	823	0	1.0	1.0	1.0	1	right	2.0	0.0	1.0	1	0.047540321405999994	blockFiles/set_12/main_unc/rightBlue\GB_RB_6.xlsx
304	main_unc	True	0.0	823	0	2.0	2.0	1.0	1	right	1.0	1.0	1.0	1	0.0490699268691	blockFiles/set_12/main_unc/leftBlue\GB_LB_6.xlsx
305	main_unc	True	0.0	823	0	2.0	2.0	0.0	1	left	2.0	1.0	1.0	0	-0.0718244077638	blockFiles/set_12/main_unc/leftBlue\GB_LB_6.xlsx
306	main_unc	True	0.0	823	0	2.0	2.0	1.0	1	right	1.0	1.0	1.0	1	0.0502351201698	blockFiles/set_12/main_unc/leftBlue\GB_LB_6.xlsx
307	main_unc	True	0.0	823	0	2.0	2.0	0.0	1	left	2.0	1.0	1.0	0	-0.00601818060502	blockFiles/set_12/main_unc/leftBlue\GB_LB_6.xlsx
308	main_unc	True	0.0	823	0	2.0	2.0	1.0	1	right	1.0	1.0	1.0	1	0.045987720023800006	blockFiles/set_12/main_unc/leftBlue\GB_LB_6.xlsx
309	main_unc	True	0.0	823	0	2.0	2.0	1.0	1	right	1.0	1.0	1.0	1	0.0367690818384	blockFiles/set_12/main_unc/leftBlue\GB_LB_6.xlsx
310	main_unc	True	0.0	823	0	2.0	2.0	1.0	1	right	1.0	1.0	1.0	1	0.0563944704086	blockFiles/set_12/main_unc/leftBlue\GB_LB_6.xlsx
311	main_unc	True	0.0	823	0	2.0	2.0	1.0	1	right	1.0	0.0	1.0	1	0.0199838428199	blockFiles/set_12/main_unc/leftBlue\GB_LB_6.xlsx
312	main_unc	True	0.0	823	0	2.0	2.0	0.0	1	left	2.0	1.0	1.0	0	-0.0702054301649	blockFiles/set_12/main_unc/leftBlue\GB_LB_6.xlsx
313	main_unc	True	1.0	823	0	2.0	2.0	n/a	0	None	n/a	0.0	n/a	1	0.0321238089353	blockFiles/set_12/main_unc/leftBlue\GB_LB_6.xlsx
314	main_unc	True	1.0	823	0	2.0	2.0	n/a	0	None	n/a	0.0	n/a	1	0.0172486772202	blockFiles/set_12/main_unc/leftBlue\GB_LB_6.xlsx
315	main_unc	True	0.0	823	0	2.0	2.0	1.0	1	right	2.0	0.0	0.0	1	0.0171781998686	blockFiles/set_12/main_unc/leftBlue\GB_LB_6.xlsx
316	main_unc	True	0.0	823	0	2.0	2.0	1.0	1	right	1.0	1.0	1.0	1	0.041944919377600004	blockFiles/set_12/main_unc/leftBlue\GB_LB_6.xlsx
317	main_unc	True	0.0	823	0	2.0	2.0	0.0	1	left	2.0	0.0	1.0	0	-0.06904326427730001	blockFiles/set_12/main_unc/leftBlue\GB_LB_6.xlsx
318	main_unc	True	0.0	823	0	2.0	2.0	1.0	1	right	1.0	1.0	1.0	1	0.0669067867473	blockFiles/set_12/main_unc/leftBlue\GB_LB_6.xlsx
319	main_unc	True	0.0	823	0	2.0	2.0	1.0	1	right	1.0	1.0	1.0	1	0.06901191096749999	blockFiles/set_12/main_unc/leftBlue\GB_LB_6.xlsx
320	main_unc	True	0.0	823	0	2.0	2.0	0.0	1	left	2.0	1.0	1.0	0	-0.0580470990948	blockFiles/set_12/main_unc/leftBlue\GB_LB_6.xlsx
321	main_unc	True	0.0	823	0	2.0	2.0	0.0	1	left	2.0	0.0	1.0	0	-0.006227875687180001	blockFiles/set_12/main_unc/leftBlue\GB_LB_6.xlsx
322	main_unc	True	0.0	823	0	2.0	2.0	0.0	1	left	2.0	1.0	1.0	0	-0.0580689613521	blockFiles/set_12/main_unc/leftBlue\GB_LB_6.xlsx
323	main_unc	True	0.0	823	0	2.0	2.0	0.0	1	left	2.0	1.0	1.0	0	-0.0280557343364	blockFiles/set_12/main_unc/leftBlue\GB_LB_6.xlsx
324	main_unc	True	0.0	823	0	2.0	2.0	1.0	1	right	1.0	1.0	1.0	1	0.0296162594855	blockFiles/set_12/main_unc/leftBlue\GB_LB_6.xlsx
325	main_unc	True	0.0	823	0	2.0	2.0	1.0	1	right	1.0	1.0	1.0	1	0.0472021437995	blockFiles/set_12/main_unc/leftBlue\GB_LB_6.xlsx
326	main_unc	True	0.0	823	0	2.0	2.0	0.0	1	left	2.0	1.0	1.0	0	-0.012007762286799999	blockFiles/set_12/main_unc/leftBlue\GB_LB_6.xlsx
327	main_unc	True	0.0	823	0	2.0	2.0	0.0	1	left	2.0	1.0	1.0	0	-0.018889859542300002	blockFiles/set_12/main_unc/leftBlue\GB_LB_6.xlsx
328	main_unc	True	0.0	823	0	2.0	2.0	0.0	1	left	2.0	0.0	1.0	0	-0.0574038092978	blockFiles/set_12/main_unc/leftBlue\GB_LB_6.xlsx
329	main_unc	True	0.0	823	0	2.0	2.0	1.0	1	right	1.0	0.0	1.0	1	0.0321238089353	blockFiles/set_12/main_unc/leftBlue\GB_LB_6.xlsx
330	main_unc	True	0.0	823	0	2.0	2.0	1.0	1	right	1.0	1.0	1.0	1	0.0172486772202	blockFiles/set_12/main_unc/leftBlue\GB_LB_6.xlsx
331	main_unc	True	0.0	823	0	3.0	3.0	1.0	1	right	1.0	0.0	0.0	1	0.063167586755	blockFiles/set_12/main_unc/rightBlue\GB_RB_5.xlsx
332	main_unc	True	0.0	823	0	3.0	3.0	0.0	1	left	1.0	1.0	1.0	0	-0.0688049997017	blockFiles/set_12/main_unc/rightBlue\GB_RB_5.xlsx
333	main_unc	True	0.0	823	0	3.0	3.0	0.0	1	left	1.0	1.0	1.0	0	-0.034595875702800004	blockFiles/set_12/main_unc/rightBlue\GB_RB_5.xlsx
334	main_unc	True	0.0	823	0	3.0	3.0	0.0	1	left	1.0	1.0	1.0	0	-0.060078654456900006	blockFiles/set_12/main_unc/rightBlue\GB_RB_5.xlsx
335	main_unc	True	0.0	823	0	3.0	3.0	1.0	1	right	2.0	1.0	1.0	1	0.0413814084977	blockFiles/set_12/main_unc/rightBlue\GB_RB_5.xlsx
336	main_unc	True	0.0	823	0	3.0	3.0	0.0	0	left	2.0	0.0	1.0	1	0.0156692416035	blockFiles/set_12/main_unc/rightBlue\GB_RB_5.xlsx
337	main_unc	True	0.0	823	0	3.0	3.0	1.0	1	right	2.0	1.0	1.0	1	0.0308696810342	blockFiles/set_12/main_unc/rightBlue\GB_RB_5.xlsx
338	main_unc	True	1.0	823	0	3.0	3.0	n/a	0	None	n/a	0.0	n/a	1	0.0260524347052	blockFiles/set_12/main_unc/rightBlue\GB_RB_5.xlsx
339	main_unc	True	0.0	823	0	3.0	3.0	0.0	1	left	1.0	1.0	1.0	0	-0.062128894589800004	blockFiles/set_12/main_unc/rightBlue\GB_RB_5.xlsx
340	main_unc	True	0.0	823	0	3.0	3.0	1.0	1	right	2.0	1.0	1.0	1	0.015088305864500001	blockFiles/set_12/main_unc/rightBlue\GB_RB_5.xlsx
341	main_unc	True	0.0	823	0	3.0	3.0	0.0	1	left	1.0	0.0	1.0	0	-0.06234573464840001	blockFiles/set_12/main_unc/rightBlue\GB_RB_5.xlsx
342	main_unc	True	1.0	823	0	3.0	3.0	1.0	1	right	n/a	0.0	n/a	1	0.013361208438899999	blockFiles/set_12/main_unc/rightBlue\GB_RB_5.xlsx
343	main_unc	True	0.0	823	0	3.0	3.0	0.0	1	left	1.0	1.0	1.0	0	-0.0677031631209	blockFiles/set_12/main_unc/rightBlue\GB_RB_5.xlsx
344	main_unc	True	0.0	823	0	3.0	3.0	1.0	1	right	2.0	0.0	1.0	1	0.0463182640821	blockFiles/set_12/main_unc/rightBlue\GB_RB_5.xlsx
345	main_unc	True	0.0	823	0	3.0	3.0	1.0	1	right	2.0	1.0	1.0	1	0.06961726218460002	blockFiles/set_12/main_unc/rightBlue\GB_RB_5.xlsx
346	main_unc	True	1.0	823	0	3.0	3.0	0.0	1	left	n/a	0.0	n/a	0	-0.0140937760845	blockFiles/set_12/main_unc/rightBlue\GB_RB_5.xlsx
347	main_unc	True	0.0	823	0	3.0	3.0	1.0	1	right	2.0	1.0	1.0	1	0.0658437887765	blockFiles/set_12/main_unc/rightBlue\GB_RB_5.xlsx
348	main_unc	True	0.0	823	0	3.0	3.0	0.0	1	left	1.0	0.0	1.0	0	-0.0215427083336	blockFiles/set_12/main_unc/rightBlue\GB_RB_5.xlsx
349	main_unc	True	0.0	823	0	3.0	3.0	0.0	1	left	1.0	0.0	1.0	0	-0.0280161468498	blockFiles/set_12/main_unc/rightBlue\GB_RB_5.xlsx
350	main_unc	True	0.0	823	0	3.0	3.0	1.0	1	right	2.0	1.0	1.0	1	0.047417556271	blockFiles/set_12/main_unc/rightBlue\GB_RB_5.xlsx
351	main_unc	True	0.0	823	0	3.0	3.0	0.0	1	left	1.0	1.0	1.0	0	-0.04969680350269999	blockFiles/set_12/main_unc/rightBlue\GB_RB_5.xlsx
352	main_unc	True	0.0	823	0	3.0	3.0	1.0	1	right	2.0	0.0	1.0	1	0.0590022571012	blockFiles/set_12/main_unc/rightBlue\GB_RB_5.xlsx
353	main_unc	True	0.0	823	0	3.0	3.0	1.0	1	right	2.0	1.0	1.0	1	0.047917728964200004	blockFiles/set_12/main_unc/rightBlue\GB_RB_5.xlsx
354	main_unc	True	0.0	823	0	3.0	3.0	0.0	1	left	1.0	1.0	1.0	0	-0.0672605992667	blockFiles/set_12/main_unc/rightBlue\GB_RB_5.xlsx
355	main_unc	True	1.0	823	0	3.0	3.0	n/a	0	None	n/a	0.0	n/a	0	-0.00039544329047199996	blockFiles/set_12/main_unc/rightBlue\GB_RB_5.xlsx
356	main_unc	True	0.0	823	0	3.0	3.0	1.0	1	right	2.0	1.0	1.0	1	0.0260524347052	blockFiles/set_12/main_unc/rightBlue\GB_RB_5.xlsx
357	main_unc	True	0.0	823	0	3.0	3.0	1.0	1	right	2.0	1.0	1.0	1	0.013361208438899999	blockFiles/set_12/main_unc/rightBlue\GB_RB_5.xlsx
358	main_unc	True	0.0	823	0	3.0	3.0	0.0	1	left	1.0	1.0	1.0	0	-0.0140937760845	blockFiles/set_12/main_unc/rightBlue\GB_RB_5.xlsx
359	main_unc	True	0.0	823	0	3.0	3.0	1.0	0	right	2.0	0.0	0.0	0	-0.00039544329047199996	blockFiles/set_12/main_unc/rightBlue\GB_RB_5.xlsx
360	main_unc	True	0.0	823	0	4.0	4.0	0.0	0	left	1.0	1.0	1.0	1	0.0342210977338	blockFiles/set_12/main_unc/leftBlue\GB_LB_4.xlsx
361	main_unc	True	0.0	823	0	4.0	4.0	0.0	1	left	2.0	1.0	1.0	0	-0.0032498114742300003	blockFiles/set_12/main_unc/leftBlue\GB_LB_4.xlsx
362	main_unc	True	0.0	823	0	4.0	4.0	1.0	1	right	2.0	1.0	0.0	1	0.0346874341555	blockFiles/set_12/main_unc/leftBlue\GB_LB_4.xlsx
363	main_unc	True	0.0	823	0	4.0	4.0	0.0	1	left	1.0	1.0	0.0	0	-0.0691387248971	blockFiles/set_12/main_unc/leftBlue\GB_LB_4.xlsx
364	main_unc	True	0.0	823	0	4.0	4.0	1.0	1	right	2.0	0.0	0.0	1	0.0237216507643	blockFiles/set_12/main_unc/leftBlue\GB_LB_4.xlsx
365	main_unc	True	0.0	823	0	4.0	4.0	0.0	1	left	1.0	0.0	0.0	0	-0.024180691614700003	blockFiles/set_12/main_unc/leftBlue\GB_LB_4.xlsx
366	main_unc	True	0.0	823	0	4.0	4.0	0.0	0	left	1.0	1.0	1.0	1	0.00921329556033	blockFiles/set_12/main_unc/leftBlue\GB_LB_4.xlsx
367	main_unc	True	0.0	823	0	4.0	4.0	1.0	1	right	2.0	0.0	0.0	1	0.0750591578521	blockFiles/set_12/main_unc/leftBlue\GB_LB_4.xlsx
368	main_unc	True	0.0	823	0	4.0	4.0	0.0	1	left	1.0	0.0	0.0	0	-0.0277180864476	blockFiles/set_12/main_unc/leftBlue\GB_LB_4.xlsx
369	main_unc	True	0.0	823	0	4.0	4.0	1.0	1	right	2.0	0.0	0.0	1	0.07761938465760002	blockFiles/set_12/main_unc/leftBlue\GB_LB_4.xlsx
370	main_unc	True	0.0	823	0	4.0	4.0	0.0	1	left	1.0	0.0	0.0	0	-0.0741950439662	blockFiles/set_12/main_unc/leftBlue\GB_LB_4.xlsx
371	main_unc	True	0.0	823	0	4.0	4.0	1.0	1	right	1.0	1.0	1.0	1	0.0421085694991	blockFiles/set_12/main_unc/leftBlue\GB_LB_4.xlsx
372	main_unc	True	0.0	823	0	4.0	4.0	0.0	0	left	1.0	0.0	1.0	1	0.013477994483000001	blockFiles/set_12/main_unc/leftBlue\GB_LB_4.xlsx
373	main_unc	True	0.0	823	0	4.0	4.0	1.0	1	right	1.0	1.0	1.0	1	0.0146468441747	blockFiles/set_12/main_unc/leftBlue\GB_LB_4.xlsx
374	main_unc	True	0.0	823	0	4.0	4.0	1.0	1	right	1.0	1.0	1.0	1	0.0504087841325	blockFiles/set_12/main_unc/leftBlue\GB_LB_4.xlsx
375	main_unc	True	0.0	823	0	4.0	4.0	0.0	1	left	2.0	1.0	1.0	0	-0.05058273099359999	blockFiles/set_12/main_unc/leftBlue\GB_LB_4.xlsx
376	main_unc	True	0.0	823	0	4.0	4.0	0.0	1	left	2.0	1.0	1.0	0	-0.0762789493613	blockFiles/set_12/main_unc/leftBlue\GB_LB_4.xlsx
377	main_unc	True	0.0	823	0	4.0	4.0	0.0	1	left	2.0	1.0	1.0	0	-0.027951185386600002	blockFiles/set_12/main_unc/leftBlue\GB_LB_4.xlsx
378	main_unc	True	0.0	823	0	4.0	4.0	0.0	1	left	2.0	1.0	1.0	0	-0.0658631183766	blockFiles/set_12/main_unc/leftBlue\GB_LB_4.xlsx
379	main_unc	True	0.0	823	0	4.0	4.0	0.0	1	left	2.0	1.0	1.0	0	-0.006098399870100001	blockFiles/set_12/main_unc/leftBlue\GB_LB_4.xlsx
380	main_unc	True	0.0	823	0	4.0	4.0	0.0	1	left	2.0	1.0	1.0	0	-0.0346527017839	blockFiles/set_12/main_unc/leftBlue\GB_LB_4.xlsx
381	main_unc	True	0.0	823	0	4.0	4.0	1.0	1	right	1.0	0.0	1.0	1	0.0691856186464	blockFiles/set_12/main_unc/leftBlue\GB_LB_4.xlsx
382	main_unc	True	0.0	823	0	4.0	4.0	1.0	1	right	1.0	1.0	1.0	1	0.0461455031298	blockFiles/set_12/main_unc/leftBlue\GB_LB_4.xlsx
383	main_unc	True	0.0	823	0	4.0	4.0	1.0	0	right	1.0	0.0	0.0	0	-0.00495594952255	blockFiles/set_12/main_unc/leftBlue\GB_LB_4.xlsx
384	main_unc	True	0.0	823	0	4.0	4.0	0.0	1	left	2.0	1.0	1.0	0	-0.07087658984589999	blockFiles/set_12/main_unc/leftBlue\GB_LB_4.xlsx
385	main_unc	True	0.0	823	0	5.0	5.0	0.0	1	left	2.0	1.0	0.0	0	-0.0784247744456	blockFiles/set_12/main_unc/rightBlue\GB_RB_4.xlsx
386	main_unc	True	0.0	823	0	5.0	5.0	0.0	0	left	2.0	1.0	1.0	1	0.010386611092799999	blockFiles/set_12/main_unc/rightBlue\GB_RB_4.xlsx
387	main_unc	True	0.0	823	0	5.0	5.0	0.0	1	left	2.0	1.0	0.0	0	-0.0582926651277	blockFiles/set_12/main_unc/rightBlue\GB_RB_4.xlsx
388	main_unc	True	0.0	823	0	5.0	5.0	0.0	1	left	2.0	0.0	0.0	0	-0.0667989767902	blockFiles/set_12/main_unc/rightBlue\GB_RB_4.xlsx
389	main_unc	True	0.0	823	0	5.0	5.0	0.0	0	left	1.0	1.0	0.0	1	0.018298825155900002	blockFiles/set_12/main_unc/rightBlue\GB_RB_4.xlsx
390	main_unc	True	0.0	823	0	5.0	5.0	0.0	1	left	2.0	0.0	0.0	0	-0.0628411079384	blockFiles/set_12/main_unc/rightBlue\GB_RB_4.xlsx
391	main_unc	True	1.0	823	0	5.0	5.0	n/a	0	None	n/a	0.0	n/a	0	-0.0130560120009	blockFiles/set_12/main_unc/rightBlue\GB_RB_4.xlsx
392	main_unc	True	0.0	823	0	5.0	5.0	0.0	1	left	2.0	0.0	0.0	0	-0.045021188147400006	blockFiles/set_12/main_unc/rightBlue\GB_RB_4.xlsx
393	main_unc	True	0.0	823	0	5.0	5.0	1.0	1	right	1.0	1.0	0.0	1	0.0667936519161	blockFiles/set_12/main_unc/rightBlue\GB_RB_4.xlsx
394	main_unc	True	1.0	823	0	5.0	5.0	n/a	0	None	n/a	0.0	n/a	1	0.047513519544199995	blockFiles/set_12/main_unc/rightBlue\GB_RB_4.xlsx
395	main_unc	True	0.0	823	0	5.0	5.0	1.0	1	right	1.0	0.0	0.0	1	0.0740364977717	blockFiles/set_12/main_unc/rightBlue\GB_RB_4.xlsx
396	main_unc	True	0.0	823	0	5.0	5.0	0.0	1	left	2.0	0.0	0.0	0	-0.059275406990199994	blockFiles/set_12/main_unc/rightBlue\GB_RB_4.xlsx
397	main_unc	True	0.0	823	0	5.0	5.0	0.0	0	left	2.0	1.0	1.0	1	0.009568893313410001	blockFiles/set_12/main_unc/rightBlue\GB_RB_4.xlsx
398	main_unc	True	0.0	823	0	5.0	5.0	1.0	1	right	1.0	0.0	0.0	1	0.06076648788530001	blockFiles/set_12/main_unc/rightBlue\GB_RB_4.xlsx
399	main_unc	True	0.0	823	0	5.0	5.0	0.0	1	left	2.0	0.0	0.0	0	-0.0327440338582	blockFiles/set_12/main_unc/rightBlue\GB_RB_4.xlsx
400	main_unc	True	1.0	823	0	5.0	5.0	n/a	0	None	n/a	0.0	n/a	1	0.0120227710903	blockFiles/set_12/main_unc/rightBlue\GB_RB_4.xlsx
401	main_unc	True	0.0	823	0	5.0	5.0	0.0	1	left	1.0	1.0	1.0	0	-0.020314143113799997	blockFiles/set_12/main_unc/rightBlue\GB_RB_4.xlsx
402	main_unc	True	0.0	823	0	5.0	5.0	1.0	1	right	1.0	0.0	0.0	1	0.076911830958	blockFiles/set_12/main_unc/rightBlue\GB_RB_4.xlsx
403	main_unc	True	0.0	823	0	5.0	5.0	0.0	1	left	1.0	1.0	1.0	0	-0.0405557747558	blockFiles/set_12/main_unc/rightBlue\GB_RB_4.xlsx
404	main_unc	True	0.0	823	0	5.0	5.0	0.0	1	left	1.0	1.0	1.0	0	-0.00752600003034	blockFiles/set_12/main_unc/rightBlue\GB_RB_4.xlsx
405	main_unc	True	0.0	823	0	5.0	5.0	1.0	1	right	2.0	1.0	1.0	1	0.0123041420802	blockFiles/set_12/main_unc/rightBlue\GB_RB_4.xlsx
406	main_unc	True	0.0	823	0	5.0	5.0	0.0	1	left	1.0	1.0	1.0	0	-0.0416286770441	blockFiles/set_12/main_unc/rightBlue\GB_RB_4.xlsx
407	main_unc	True	0.0	823	0	5.0	5.0	0.0	1	left	1.0	1.0	1.0	0	-0.0441878174804	blockFiles/set_12/main_unc/rightBlue\GB_RB_4.xlsx
408	main_unc	True	0.0	823	0	5.0	5.0	1.0	1	right	2.0	1.0	1.0	1	0.0629009671696	blockFiles/set_12/main_unc/rightBlue\GB_RB_4.xlsx
409	main_unc	True	0.0	823	0	5.0	5.0	1.0	1	right	2.0	1.0	1.0	1	0.046755500081900006	blockFiles/set_12/main_unc/rightBlue\GB_RB_4.xlsx
410	main_unc	True	0.0	823	0	5.0	5.0	n/a	0	None	n/a	0.0	n/a	0	-0.0130560120009	blockFiles/set_12/main_unc/rightBlue\GB_RB_4.xlsx
411	main_unc	True	0.0	823	0	5.0	5.0	0.0	1	left	1.0	1.0	1.0	0	-0.0130560120009	blockFiles/set_12/main_unc/rightBlue\GB_RB_4.xlsx
412	main_unc	True	0.0	823	0	5.0	5.0	1.0	1	right	2.0	0.0	1.0	1	0.047513519544199995	blockFiles/set_12/main_unc/rightBlue\GB_RB_4.xlsx
413	main_unc	True	0.0	823	0	5.0	5.0	0.0	0	left	1.0	1.0	0.0	1	0.0120227710903	blockFiles/set_12/main_unc/rightBlue\GB_RB_4.xlsx
414	main_unc	True	0.0	823	0	6.0	6.0	0.0	1	left	2.0	0.0	1.0	0	-0.035562390089	blockFiles/set_12/main_unc/leftBlue\GB_LB_2.xlsx
415	main_unc	True	0.0	823	0	6.0	6.0	0.0	1	left	1.0	0.0	0.0	0	-0.055022364519499996	blockFiles/set_12/main_unc/leftBlue\GB_LB_2.xlsx
416	main_unc	True	0.0	823	0	6.0	6.0	1.0	1	right	2.0	0.0	0.0	1	0.0382660191134	blockFiles/set_12/main_unc/leftBlue\GB_LB_2.xlsx
417	main_unc	True	0.0	823	0	6.0	6.0	0.0	1	left	1.0	0.0	0.0	0	-0.0778169691004	blockFiles/set_12/main_unc/leftBlue\GB_LB_2.xlsx
418	main_unc	True	1.0	823	0	6.0	6.0	1.0	1	right	n/a	0.0	n/a	1	0.0473095321655	blockFiles/set_12/main_unc/leftBlue\GB_LB_2.xlsx
419	main_unc	True	0.0	823	0	6.0	6.0	1.0	1	right	2.0	1.0	0.0	1	0.0284949997254	blockFiles/set_12/main_unc/leftBlue\GB_LB_2.xlsx
420	main_unc	True	0.0	823	0	6.0	6.0	0.0	1	left	1.0	0.0	0.0	0	-0.0487577621825	blockFiles/set_12/main_unc/leftBlue\GB_LB_2.xlsx
421	main_unc	True	0.0	823	0	6.0	6.0	1.0	1	right	2.0	0.0	0.0	1	0.0174055962265	blockFiles/set_12/main_unc/leftBlue\GB_LB_2.xlsx
422	main_unc	True	0.0	823	0	6.0	6.0	0.0	1	left	2.0	1.0	1.0	0	-0.0349969968945	blockFiles/set_12/main_unc/leftBlue\GB_LB_2.xlsx
423	main_unc	True	0.0	823	0	6.0	6.0	0.0	1	left	2.0	1.0	1.0	0	-0.0724801529571	blockFiles/set_12/main_unc/leftBlue\GB_LB_2.xlsx
424	main_unc	True	0.0	823	0	6.0	6.0	0.0	1	left	2.0	1.0	1.0	0	-0.056728233397000005	blockFiles/set_12/main_unc/leftBlue\GB_LB_2.xlsx
425	main_unc	True	0.0	823	0	6.0	6.0	1.0	1	right	1.0	1.0	1.0	1	0.00500759523362	blockFiles/set_12/main_unc/leftBlue\GB_LB_2.xlsx
426	main_unc	True	0.0	823	0	6.0	6.0	1.0	1	right	1.0	1.0	1.0	1	0.0289910557307	blockFiles/set_12/main_unc/leftBlue\GB_LB_2.xlsx
427	main_unc	True	0.0	823	0	6.0	6.0	1.0	1	right	1.0	0.0	1.0	1	0.0477042596787	blockFiles/set_12/main_unc/leftBlue\GB_LB_2.xlsx
428	main_unc	True	0.0	823	0	6.0	6.0	1.0	1	right	1.0	1.0	1.0	1	0.0205383858085	blockFiles/set_12/main_unc/leftBlue\GB_LB_2.xlsx
429	main_unc	True	0.0	823	0	6.0	6.0	1.0	1	right	1.0	1.0	1.0	1	0.049270427152500004	blockFiles/set_12/main_unc/leftBlue\GB_LB_2.xlsx
430	main_unc	True	0.0	823	0	6.0	6.0	0.0	1	left	2.0	1.0	1.0	0	-0.0509888898768	blockFiles/set_12/main_unc/leftBlue\GB_LB_2.xlsx
431	main_unc	True	0.0	823	0	6.0	6.0	1.0	1	right	1.0	1.0	1.0	1	0.0537188716978	blockFiles/set_12/main_unc/leftBlue\GB_LB_2.xlsx
432	main_unc	True	0.0	823	0	6.0	6.0	0.0	1	left	2.0	1.0	1.0	0	-0.0176003263146	blockFiles/set_12/main_unc/leftBlue\GB_LB_2.xlsx
433	main_unc	True	0.0	823	0	6.0	6.0	1.0	0	right	1.0	0.0	0.0	0	-0.0073530362919	blockFiles/set_12/main_unc/leftBlue\GB_LB_2.xlsx
434	main_unc	True	0.0	823	0	6.0	6.0	0.0	1	left	2.0	0.0	1.0	0	-0.0685730408132	blockFiles/set_12/main_unc/leftBlue\GB_LB_2.xlsx
435	main_unc	True	0.0	823	0	6.0	6.0	0.0	0	left	2.0	0.0	0.0	1	0.0113303275406	blockFiles/set_12/main_unc/leftBlue\GB_LB_2.xlsx
436	main_unc	True	0.0	823	0	6.0	6.0	1.0	1	right	1.0	1.0	1.0	1	0.0641456890665	blockFiles/set_12/main_unc/leftBlue\GB_LB_2.xlsx
437	main_unc	True	0.0	823	0	6.0	6.0	0.0	1	left	2.0	1.0	1.0	0	-0.0621584341861	blockFiles/set_12/main_unc/leftBlue\GB_LB_2.xlsx
438	main_unc	True	0.0	823	0	6.0	6.0	0.0	1	left	2.0	1.0	1.0	0	-0.0278971949592	blockFiles/set_12/main_unc/leftBlue\GB_LB_2.xlsx
439	main_unc	True	0.0	823	0	6.0	6.0	1.0	1	right	1.0	1.0	1.0	1	0.0473095321655	blockFiles/set_12/main_unc/leftBlue\GB_LB_2.xlsx
440	main_unc	True	0.0	823	0	7.0	7.0	0.0	1	left	2.0	1.0	1.0	0	-0.0257137701474	blockFiles/set_12/main_unc/leftBlue\GB_LB_1.xlsx
441	main_unc	True	0.0	823	0	7.0	7.0	0.0	0	left	1.0	1.0	1.0	1	0.00224548619241	blockFiles/set_12/main_unc/leftBlue\GB_LB_1.xlsx
442	main_unc	True	0.0	823	0	7.0	7.0	1.0	1	right	1.0	1.0	1.0	1	0.0496747384779	blockFiles/set_12/main_unc/leftBlue\GB_LB_1.xlsx
443	main_unc	True	0.0	823	0	7.0	7.0	1.0	1	right	1.0	1.0	1.0	1	0.037967176307	blockFiles/set_12/main_unc/leftBlue\GB_LB_1.xlsx
444	main_unc	True	0.0	823	0	7.0	7.0	1.0	0	right	2.0	1.0	1.0	0	-0.00364516157657	blockFiles/set_12/main_unc/leftBlue\GB_LB_1.xlsx
445	main_unc	True	0.0	823	0	7.0	7.0	0.0	1	left	2.0	1.0	1.0	0	-0.0744367161393	blockFiles/set_12/main_unc/leftBlue\GB_LB_1.xlsx
446	main_unc	True	0.0	823	0	7.0	7.0	0.0	1	left	2.0	0.0	1.0	0	-0.039426930565400004	blockFiles/set_12/main_unc/leftBlue\GB_LB_1.xlsx
447	main_unc	True	0.0	823	0	7.0	7.0	1.0	1	right	1.0	1.0	1.0	1	0.0328232817724	blockFiles/set_12/main_unc/leftBlue\GB_LB_1.xlsx
448	main_unc	True	0.0	823	0	7.0	7.0	1.0	0	right	2.0	1.0	1.0	0	-0.012493997514200002	blockFiles/set_12/main_unc/leftBlue\GB_LB_1.xlsx
449	main_unc	True	0.0	823	0	7.0	7.0	0.0	1	left	2.0	0.0	1.0	0	-0.0634814772569	blockFiles/set_12/main_unc/leftBlue\GB_LB_1.xlsx
450	main_unc	True	0.0	823	0	7.0	7.0	1.0	1	right	1.0	1.0	1.0	1	0.0627099199593	blockFiles/set_12/main_unc/leftBlue\GB_LB_1.xlsx
451	main_unc	True	0.0	823	0	7.0	7.0	1.0	1	right	1.0	1.0	1.0	1	0.058922145012800006	blockFiles/set_12/main_unc/leftBlue\GB_LB_1.xlsx
452	main_unc	True	0.0	823	0	7.0	7.0	1.0	1	right	1.0	1.0	1.0	1	0.009404010232540002	blockFiles/set_12/main_unc/leftBlue\GB_LB_1.xlsx
453	main_unc	True	0.0	823	0	7.0	7.0	0.0	1	left	2.0	1.0	1.0	0	-0.0513274895959	blockFiles/set_12/main_unc/leftBlue\GB_LB_1.xlsx
454	main_unc	True	0.0	823	0	7.0	7.0	0.0	1	left	2.0	1.0	1.0	0	-0.0445441465639	blockFiles/set_12/main_unc/leftBlue\GB_LB_1.xlsx
455	main_unc	True	0.0	823	0	7.0	7.0	0.0	1	left	2.0	0.0	1.0	0	-0.0333143719845	blockFiles/set_12/main_unc/leftBlue\GB_LB_1.xlsx
456	main_unc	True	0.0	823	0	7.0	7.0	1.0	1	right	1.0	1.0	1.0	1	0.06708762414750001	blockFiles/set_12/main_unc/leftBlue\GB_LB_1.xlsx
457	main_unc	True	0.0	823	0	7.0	7.0	0.0	1	left	2.0	1.0	1.0	0	-0.0004962940886619999	blockFiles/set_12/main_unc/leftBlue\GB_LB_1.xlsx
458	main_unc	True	0.0	823	0	7.0	7.0	1.0	1	right	1.0	0.0	1.0	1	0.024345941245599998	blockFiles/set_12/main_unc/leftBlue\GB_LB_1.xlsx
459	main_unc	True	0.0	823	0	7.0	7.0	0.0	1	left	2.0	1.0	1.0	0	-0.07969368975610001	blockFiles/set_12/main_unc/leftBlue\GB_LB_1.xlsx
460	main_unc	True	0.0	823	0	7.0	7.0	1.0	1	right	1.0	1.0	1.0	1	0.041205605343	blockFiles/set_12/main_unc/leftBlue\GB_LB_1.xlsx
461	main_unc	True	0.0	823	0	7.0	7.0	1.0	1	right	1.0	1.0	1.0	1	0.0638344724849	blockFiles/set_12/main_unc/leftBlue\GB_LB_1.xlsx
462	main_unc	True	0.0	823	0	7.0	7.0	1.0	1	right	1.0	0.0	1.0	1	0.037108109481599996	blockFiles/set_12/main_unc/leftBlue\GB_LB_1.xlsx
463	main_unc	True	0.0	823	0	7.0	7.0	0.0	1	left	2.0	0.0	1.0	0	-0.053650693483699996	blockFiles/set_12/main_unc/leftBlue\GB_LB_1.xlsx
464	main_unc	True	0.0	823	0	7.0	7.0	0.0	1	left	2.0	1.0	1.0	0	-0.0185019073077	blockFiles/set_12/main_unc/leftBlue\GB_LB_1.xlsx
465	main_unc	True	1.0	823	0	8.0	8.0	n/a	0	None	n/a	0.0	n/a	1	0.021720626428700002	blockFiles/set_12/main_unc/rightBlue\GB_RB_1.xlsx
466	main_unc	True	0.0	823	0	8.0	8.0	1.0	1	right	2.0	1.0	1.0	1	0.0315628797747	blockFiles/set_12/main_unc/rightBlue\GB_RB_1.xlsx
467	main_unc	True	0.0	823	0	8.0	8.0	0.0	1	left	1.0	1.0	1.0	0	-0.0687067216076	blockFiles/set_12/main_unc/rightBlue\GB_RB_1.xlsx
468	main_unc	True	0.0	823	0	8.0	8.0	0.0	1	left	1.0	0.0	1.0	0	-0.0670897217095	blockFiles/set_12/main_unc/rightBlue\GB_RB_1.xlsx
469	main_unc	True	0.0	823	0	8.0	8.0	0.0	1	left	1.0	1.0	1.0	0	-0.034680304080199995	blockFiles/set_12/main_unc/rightBlue\GB_RB_1.xlsx
470	main_unc	True	0.0	823	0	8.0	8.0	1.0	1	right	2.0	1.0	1.0	1	0.0634540493414	blockFiles/set_12/main_unc/rightBlue\GB_RB_1.xlsx
471	main_unc	True	1.0	823	0	8.0	8.0	n/a	0	None	n/a	0.0	n/a	1	0.0024083760194499996	blockFiles/set_12/main_unc/rightBlue\GB_RB_1.xlsx
472	main_unc	True	0.0	823	0	8.0	8.0	1.0	1	right	2.0	1.0	1.0	1	0.00151013385504	blockFiles/set_12/main_unc/rightBlue\GB_RB_1.xlsx
473	main_unc	True	0.0	823	0	8.0	8.0	1.0	1	right	2.0	1.0	1.0	1	0.0495227566548	blockFiles/set_12/main_unc/rightBlue\GB_RB_1.xlsx
474	main_unc	True	0.0	823	0	8.0	8.0	0.0	1	left	1.0	1.0	1.0	0	-0.07191273581239999	blockFiles/set_12/main_unc/rightBlue\GB_RB_1.xlsx
475	main_unc	True	0.0	823	0	8.0	8.0	1.0	0	right	2.0	0.0	0.0	0	-0.0144276985154	blockFiles/set_12/main_unc/rightBlue\GB_RB_1.xlsx
476	main_unc	True	0.0	823	0	8.0	8.0	0.0	1	left	1.0	1.0	1.0	0	-0.03621665334330001	blockFiles/set_12/main_unc/rightBlue\GB_RB_1.xlsx
477	main_unc	True	0.0	823	0	8.0	8.0	1.0	1	right	2.0	0.0	1.0	1	0.0324087138288	blockFiles/set_12/main_unc/rightBlue\GB_RB_1.xlsx
478	main_unc	True	0.0	823	0	8.0	8.0	0.0	1	left	1.0	1.0	1.0	0	-0.035655971132199996	blockFiles/set_12/main_unc/rightBlue\GB_RB_1.xlsx
479	main_unc	True	0.0	823	0	8.0	8.0	0.0	1	left	1.0	1.0	1.0	0	-0.04640013081949999	blockFiles/set_12/main_unc/rightBlue\GB_RB_1.xlsx
480	main_unc	True	0.0	823	0	8.0	8.0	1.0	1	right	2.0	1.0	1.0	1	0.024342189971400002	blockFiles/set_12/main_unc/rightBlue\GB_RB_1.xlsx
481	main_unc	True	0.0	823	0	8.0	8.0	1.0	1	right	2.0	1.0	1.0	1	0.060592382215	blockFiles/set_12/main_unc/rightBlue\GB_RB_1.xlsx
482	main_unc	True	1.0	823	0	8.0	8.0	n/a	0	None	n/a	0.0	n/a	0	-0.025282165780700003	blockFiles/set_12/main_unc/rightBlue\GB_RB_1.xlsx
483	main_unc	True	0.0	823	0	8.0	8.0	1.0	1	right	1.0	0.0	0.0	1	0.00352817440405	blockFiles/set_12/main_unc/rightBlue\GB_RB_1.xlsx
484	main_unc	True	0.0	823	0	8.0	8.0	0.0	1	left	1.0	1.0	1.0	0	-0.0746253240481	blockFiles/set_12/main_unc/rightBlue\GB_RB_1.xlsx
485	main_unc	True	0.0	823	0	8.0	8.0	1.0	1	right	2.0	0.0	1.0	1	0.0448068854026	blockFiles/set_12/main_unc/rightBlue\GB_RB_1.xlsx
486	main_unc	True	0.0	823	0	8.0	8.0	1.0	1	right	2.0	1.0	1.0	1	0.023792110048199998	blockFiles/set_12/main_unc/rightBlue\GB_RB_1.xlsx
487	main_unc	True	0.0	823	0	8.0	8.0	1.0	1	right	2.0	1.0	1.0	1	0.0640170679428	blockFiles/set_12/main_unc/rightBlue\GB_RB_1.xlsx
488	main_unc	True	0.0	823	0	8.0	8.0	1.0	1	right	2.0	1.0	1.0	1	0.0408489491604	blockFiles/set_12/main_unc/rightBlue\GB_RB_1.xlsx
489	main_unc	True	0.0	823	0	8.0	8.0	0.0	1	left	1.0	1.0	1.0	0	-0.053357616365	blockFiles/set_12/main_unc/rightBlue\GB_RB_1.xlsx
490	main_unc	True	0.0	823	0	8.0	8.0	1.0	1	right	2.0	1.0	1.0	1	0.021720626428700002	blockFiles/set_12/main_unc/rightBlue\GB_RB_1.xlsx
491	main_unc	True	0.0	823	0	8.0	8.0	0.0	0	left	1.0	0.0	0.0	1	0.0024083760194499996	blockFiles/set_12/main_unc/rightBlue\GB_RB_1.xlsx
492	main_unc	True	0.0	823	0	8.0	8.0	0.0	1	left	1.0	0.0	1.0	0	-0.025282165780700003	blockFiles/set_12/main_unc/rightBlue\GB_RB_1.xlsx
493	main_unc	True	0.0	823	0	9.0	9.0	1.0	1	right	2.0	0.0	0.0	1	0.01941041952	blockFiles/set_12/main_unc/leftBlue\GB_LB_3.xlsx
494	main_unc	True	1.0	823	0	9.0	9.0	n/a	0	None	n/a	0.0	n/a	1	0.024827495850599998	blockFiles/set_12/main_unc/leftBlue\GB_LB_3.xlsx
495	main_unc	True	1.0	823	0	9.0	9.0	n/a	0	None	n/a	0.0	n/a	0	-0.015245569627700002	blockFiles/set_12/main_unc/leftBlue\GB_LB_3.xlsx
496	main_unc	True	0.0	823	0	9.0	9.0	1.0	1	right	1.0	1.0	1.0	1	0.024004490673500002	blockFiles/set_12/main_unc/leftBlue\GB_LB_3.xlsx
497	main_unc	True	0.0	823	0	9.0	9.0	1.0	1	right	1.0	1.0	1.0	1	0.0520119534619	blockFiles/set_12/main_unc/leftBlue\GB_LB_3.xlsx
498	main_unc	True	0.0	823	0	9.0	9.0	0.0	1	left	2.0	1.0	1.0	0	-0.0737528519146	blockFiles/set_12/main_unc/leftBlue\GB_LB_3.xlsx
499	main_unc	True	0.0	823	0	9.0	9.0	0.0	1	left	2.0	1.0	1.0	0	-0.015870578549799997	blockFiles/set_12/main_unc/leftBlue\GB_LB_3.xlsx
500	main_unc	True	0.0	823	0	9.0	9.0	1.0	1	right	2.0	0.0	0.0	1	0.015572589114299998	blockFiles/set_12/main_unc/leftBlue\GB_LB_3.xlsx
501	main_unc	True	0.0	823	0	9.0	9.0	0.0	1	left	2.0	1.0	1.0	0	-0.0361354294419	blockFiles/set_12/main_unc/leftBlue\GB_LB_3.xlsx
502	main_unc	True	0.0	823	0	9.0	9.0	1.0	1	right	1.0	1.0	1.0	1	0.0638691287115	blockFiles/set_12/main_unc/leftBlue\GB_LB_3.xlsx
503	main_unc	True	0.0	823	0	9.0	9.0	1.0	1	right	1.0	1.0	1.0	1	0.0519821812026	blockFiles/set_12/main_unc/leftBlue\GB_LB_3.xlsx
504	main_unc	True	0.0	823	0	9.0	9.0	0.0	1	left	2.0	1.0	1.0	0	-0.0641980688646	blockFiles/set_12/main_unc/leftBlue\GB_LB_3.xlsx
505	main_unc	True	0.0	823	0	9.0	9.0	1.0	1	right	1.0	1.0	1.0	1	0.0438942357153	blockFiles/set_12/main_unc/leftBlue\GB_LB_3.xlsx
506	main_unc	True	0.0	823	0	9.0	9.0	0.0	1	left	1.0	0.0	0.0	0	-0.0546976762637	blockFiles/set_12/main_unc/leftBlue\GB_LB_3.xlsx
507	main_unc	True	0.0	823	0	9.0	9.0	1.0	1	right	1.0	0.0	1.0	1	0.0237899367325	blockFiles/set_12/main_unc/leftBlue\GB_LB_3.xlsx
508	main_unc	True	0.0	823	0	9.0	9.0	1.0	1	right	1.0	1.0	1.0	1	0.00362861571833	blockFiles/set_12/main_unc/leftBlue\GB_LB_3.xlsx
509	main_unc	True	0.0	823	0	9.0	9.0	1.0	0	right	2.0	1.0	1.0	0	-0.00319838145748	blockFiles/set_12/main_unc/leftBlue\GB_LB_3.xlsx
510	main_unc	True	0.0	823	0	9.0	9.0	0.0	1	left	2.0	1.0	1.0	0	-0.036723508779000005	blockFiles/set_12/main_unc/leftBlue\GB_LB_3.xlsx
511	main_unc	True	0.0	823	0	9.0	9.0	1.0	1	right	1.0	1.0	1.0	1	0.0511084169336	blockFiles/set_12/main_unc/leftBlue\GB_LB_3.xlsx
512	main_unc	True	0.0	823	0	9.0	9.0	1.0	1	right	1.0	1.0	1.0	1	0.0746397901699	blockFiles/set_12/main_unc/leftBlue\GB_LB_3.xlsx
513	main_unc	True	0.0	823	0	9.0	9.0	1.0	0	right	2.0	0.0	1.0	0	-0.00456847513095	blockFiles/set_12/main_unc/leftBlue\GB_LB_3.xlsx
514	main_unc	True	0.0	823	0	9.0	9.0	0.0	1	left	2.0	1.0	1.0	0	-0.0593080238439	blockFiles/set_12/main_unc/leftBlue\GB_LB_3.xlsx
515	main_unc	True	0.0	823	0	9.0	9.0	0.0	1	left	2.0	0.0	1.0	0	-0.018626892026500003	blockFiles/set_12/main_unc/leftBlue\GB_LB_3.xlsx
516	main_unc	True	0.0	823	0	9.0	9.0	1.0	0	right	2.0	0.0	1.0	0	-0.00969774913043	blockFiles/set_12/main_unc/leftBlue\GB_LB_3.xlsx
517	main_unc	True	0.0	823	0	9.0	9.0	1.0	1	right	1.0	1.0	1.0	1	0.07454832995310001	blockFiles/set_12/main_unc/leftBlue\GB_LB_3.xlsx
518	main_unc	True	0.0	823	0	9.0	9.0	1.0	1	right	1.0	0.0	1.0	1	0.024827495850599998	blockFiles/set_12/main_unc/leftBlue\GB_LB_3.xlsx
519	main_unc	True	0.0	823	0	9.0	9.0	0.0	1	left	2.0	1.0	1.0	0	-0.015245569627700002	blockFiles/set_12/main_unc/leftBlue\GB_LB_3.xlsx
520	main_unc	True	0.0	823	0	10.0	10.0	1.0	1	right	1.0	1.0	1.0	1	0.0441517969966	blockFiles/set_12/main_unc/leftBlue\GB_LB_5.xlsx
521	main_unc	True	0.0	823	0	10.0	10.0	0.0	1	left	2.0	1.0	1.0	0	-0.0510618688539	blockFiles/set_12/main_unc/leftBlue\GB_LB_5.xlsx
522	main_unc	True	0.0	823	0	10.0	10.0	0.0	0	left	1.0	1.0	1.0	1	0.023294411432	blockFiles/set_12/main_unc/leftBlue\GB_LB_5.xlsx
523	main_unc	True	0.0	823	0	10.0	10.0	0.0	1	left	2.0	1.0	1.0	0	-0.0123183553293	blockFiles/set_12/main_unc/leftBlue\GB_LB_5.xlsx
524	main_unc	True	0.0	823	0	10.0	10.0	1.0	1	right	1.0	1.0	1.0	1	0.046116146519800005	blockFiles/set_12/main_unc/leftBlue\GB_LB_5.xlsx
525	main_unc	True	0.0	823	0	10.0	10.0	0.0	1	left	2.0	0.0	1.0	0	-0.0769457367808	blockFiles/set_12/main_unc/leftBlue\GB_LB_5.xlsx
526	main_unc	True	0.0	823	0	10.0	10.0	0.0	0	left	2.0	0.0	0.0	1	0.0133929328062	blockFiles/set_12/main_unc/leftBlue\GB_LB_5.xlsx
527	main_unc	True	0.0	823	0	10.0	10.0	1.0	1	right	1.0	1.0	1.0	1	0.0264063818008	blockFiles/set_12/main_unc/leftBlue\GB_LB_5.xlsx
528	main_unc	True	0.0	823	0	10.0	10.0	0.0	1	left	2.0	1.0	1.0	0	-0.026945109013499998	blockFiles/set_12/main_unc/leftBlue\GB_LB_5.xlsx
529	main_unc	True	0.0	823	0	10.0	10.0	1.0	1	right	2.0	0.0	0.0	1	0.0398796382546	blockFiles/set_12/main_unc/leftBlue\GB_LB_5.xlsx
530	main_unc	True	0.0	823	0	10.0	10.0	0.0	0	left	2.0	0.0	0.0	1	0.00138146212324	blockFiles/set_12/main_unc/leftBlue\GB_LB_5.xlsx
531	main_unc	True	0.0	823	0	10.0	10.0	1.0	1	right	1.0	0.0	1.0	1	0.0252212546393	blockFiles/set_12/main_unc/leftBlue\GB_LB_5.xlsx
532	main_unc	True	0.0	823	0	10.0	10.0	1.0	1	right	1.0	0.0	1.0	1	0.0646411905438	blockFiles/set_12/main_unc/leftBlue\GB_LB_5.xlsx
533	main_unc	True	0.0	823	0	10.0	10.0	0.0	1	left	2.0	1.0	1.0	0	-0.0676008958928	blockFiles/set_12/main_unc/leftBlue\GB_LB_5.xlsx
534	main_unc	True	0.0	823	0	10.0	10.0	0.0	1	left	2.0	0.0	1.0	0	-0.0404290802032	blockFiles/set_12/main_unc/leftBlue\GB_LB_5.xlsx
535	main_unc	True	0.0	823	0	10.0	10.0	1.0	1	right	1.0	1.0	1.0	1	0.021725602354900002	blockFiles/set_12/main_unc/leftBlue\GB_LB_5.xlsx
536	main_unc	True	0.0	823	0	10.0	10.0	0.0	1	left	2.0	0.0	1.0	0	-0.00905126038939	blockFiles/set_12/main_unc/leftBlue\GB_LB_5.xlsx
537	main_unc	True	0.0	823	0	10.0	10.0	1.0	1	right	1.0	1.0	1.0	1	0.0433006555401	blockFiles/set_12/main_unc/leftBlue\GB_LB_5.xlsx
538	main_unc	True	0.0	823	0	10.0	10.0	0.0	1	left	2.0	1.0	1.0	0	-0.06747558580709999	blockFiles/set_12/main_unc/leftBlue\GB_LB_5.xlsx
539	main_unc	True	0.0	823	0	10.0	10.0	0.0	1	left	2.0	1.0	1.0	0	-0.00476731324568	blockFiles/set_12/main_unc/leftBlue\GB_LB_5.xlsx
540	main_unc	True	0.0	823	0	10.0	10.0	1.0	1	right	1.0	1.0	1.0	1	0.0185972559825	blockFiles/set_12/main_unc/leftBlue\GB_LB_5.xlsx
541	main_unc	True	0.0	823	0	10.0	10.0	0.0	1	left	2.0	0.0	1.0	0	-0.0390396805108	blockFiles/set_12/main_unc/leftBlue\GB_LB_5.xlsx
542	main_unc	True	0.0	823	0	10.0	10.0	0.0	1	left	2.0	1.0	1.0	0	-0.0752816873603	blockFiles/set_12/main_unc/leftBlue\GB_LB_5.xlsx
543	main_unc	True	0.0	823	0	10.0	10.0	0.0	1	left	2.0	1.0	1.0	0	-0.0147673647851	blockFiles/set_12/main_unc/leftBlue\GB_LB_5.xlsx
544	main_unc	True	0.0	823	0	10.0	10.0	0.0	1	left	2.0	1.0	1.0	0	-0.0381123889983	blockFiles/set_12/main_unc/leftBlue\GB_LB_5.xlsx
545	main_unc	True	1.0	823	0	11.0	11.0	n/a	0	None	n/a	0.0	n/a	0	-0.0034465793520200004	blockFiles/set_12/main_unc/rightBlue\GB_RB_3.xlsx
546	main_unc	True	0.0	823	0	11.0	11.0	0.0	0	left	2.0	1.0	1.0	1	0.007486600689590001	blockFiles/set_12/main_unc/rightBlue\GB_RB_3.xlsx
547	main_unc	True	1.0	823	0	11.0	11.0	n/a	0	None	n/a	0.0	n/a	1	0.00823728874326	blockFiles/set_12/main_unc/rightBlue\GB_RB_3.xlsx
548	main_unc	True	0.0	823	0	11.0	11.0	0.0	1	left	2.0	1.0	0.0	0	-0.06673692436890001	blockFiles/set_12/main_unc/rightBlue\GB_RB_3.xlsx
549	main_unc	True	1.0	823	0	11.0	11.0	0.0	0	left	n/a	0.0	n/a	1	0.016356367915900002	blockFiles/set_12/main_unc/rightBlue\GB_RB_3.xlsx
550	main_unc	True	0.0	823	0	11.0	11.0	0.0	1	left	2.0	0.0	0.0	0	-0.0496418985911	blockFiles/set_12/main_unc/rightBlue\GB_RB_3.xlsx
551	main_unc	True	0.0	823	0	11.0	11.0	1.0	1	right	1.0	0.0	0.0	1	0.0675057486258	blockFiles/set_12/main_unc/rightBlue\GB_RB_3.xlsx
552	main_unc	True	0.0	823	0	11.0	11.0	0.0	1	left	2.0	1.0	0.0	0	-0.053511054907	blockFiles/set_12/main_unc/rightBlue\GB_RB_3.xlsx
553	main_unc	True	1.0	823	0	11.0	11.0	0.0	0	left	n/a	0.0	n/a	1	0.00498332345858	blockFiles/set_12/main_unc/rightBlue\GB_RB_3.xlsx
554	main_unc	True	0.0	823	0	11.0	11.0	0.0	1	left	2.0	0.0	0.0	0	-0.060933010615400005	blockFiles/set_12/main_unc/rightBlue\GB_RB_3.xlsx
555	main_unc	True	0.0	823	0	11.0	11.0	0.0	1	left	2.0	0.0	0.0	0	-0.00847073277459	blockFiles/set_12/main_unc/rightBlue\GB_RB_3.xlsx
556	main_unc	True	0.0	823	0	11.0	11.0	0.0	1	left	2.0	0.0	0.0	0	-0.042505072616	blockFiles/set_12/main_unc/rightBlue\GB_RB_3.xlsx
557	main_unc	True	0.0	823	0	11.0	11.0	1.0	1	right	1.0	0.0	0.0	1	0.047251886278400004	blockFiles/set_12/main_unc/rightBlue\GB_RB_3.xlsx
558	main_unc	True	0.0	823	0	11.0	11.0	1.0	1	right	2.0	1.0	1.0	1	0.06388862097640001	blockFiles/set_12/main_unc/rightBlue\GB_RB_3.xlsx
559	main_unc	True	0.0	823	0	11.0	11.0	1.0	1	right	2.0	1.0	1.0	1	0.014697491973600001	blockFiles/set_12/main_unc/rightBlue\GB_RB_3.xlsx
560	main_unc	True	0.0	823	0	11.0	11.0	0.0	1	left	1.0	1.0	1.0	0	-0.01845418185	blockFiles/set_12/main_unc/rightBlue\GB_RB_3.xlsx
561	main_unc	True	0.0	823	0	11.0	11.0	0.0	1	left	1.0	1.0	1.0	0	-0.06107784347609999	blockFiles/set_12/main_unc/rightBlue\GB_RB_3.xlsx
562	main_unc	True	0.0	823	0	11.0	11.0	0.0	1	left	1.0	1.0	1.0	0	-0.0656832221337	blockFiles/set_12/main_unc/rightBlue\GB_RB_3.xlsx
563	main_unc	True	0.0	823	0	11.0	11.0	0.0	0	left	1.0	1.0	0.0	1	0.00915406005457	blockFiles/set_12/main_unc/rightBlue\GB_RB_3.xlsx
564	main_unc	True	0.0	823	0	11.0	11.0	0.0	1	left	1.0	1.0	1.0	0	-0.028961836267300003	blockFiles/set_12/main_unc/rightBlue\GB_RB_3.xlsx
565	main_unc	True	0.0	823	0	11.0	11.0	0.0	1	left	1.0	1.0	1.0	0	-0.0739512293227	blockFiles/set_12/main_unc/rightBlue\GB_RB_3.xlsx
566	main_unc	True	1.0	823	0	11.0	11.0	0.0	0	left	n/a	0.0	n/a	1	0.029622571077200004	blockFiles/set_12/main_unc/rightBlue\GB_RB_3.xlsx
567	main_unc	True	0.0	823	0	11.0	11.0	1.0	1	right	2.0	0.0	1.0	1	0.0556023628823	blockFiles/set_12/main_unc/rightBlue\GB_RB_3.xlsx
568	main_unc	True	0.0	823	0	11.0	11.0	0.0	0	left	2.0	1.0	1.0	1	0.0021796154603400003	blockFiles/set_12/main_unc/rightBlue\GB_RB_3.xlsx
569	main_unc	True	0.0	823	0	11.0	11.0	1.0	1	right	2.0	1.0	1.0	1	0.0312655202858	blockFiles/set_12/main_unc/rightBlue\GB_RB_3.xlsx
570	main_unc	True	0.0	823	0	11.0	11.0	0.0	1	left	1.0	1.0	1.0	0	-0.0034465793520200004	blockFiles/set_12/main_unc/rightBlue\GB_RB_3.xlsx
571	main_unc	True	0.0	823	0	11.0	11.0	1.0	1	right	1.0	0.0	0.0	1	0.00823728874326	blockFiles/set_12/main_unc/rightBlue\GB_RB_3.xlsx
572	main_unc	True	0.0	823	0	11.0	11.0	0.0	0	left	2.0	0.0	1.0	1	0.016356367915900002	blockFiles/set_12/main_unc/rightBlue\GB_RB_3.xlsx
573	main_unc	True	0.0	823	0	11.0	11.0	0.0	0	left	1.0	0.0	0.0	1	0.00498332345858	blockFiles/set_12/main_unc/rightBlue\GB_RB_3.xlsx
574	main_unc	True	0.0	823	0	11.0	11.0	1.0	1	right	2.0	1.0	1.0	1	0.029622571077200004	blockFiles/set_12/main_unc/rightBlue\GB_RB_3.xlsx
