	trial_type	complete	missIndex	participant	id	blockNumber	b_t	d_t	decision1.corr	decision1.keys	a_t	r_t	decision2.corr	s_t	u_t	block_file
0	main_safe	True	0.0	795	0	0.0	0.0	1.0	1	right	1.0	0.0	0.0	1	0.08	blockFiles/set_19/main_safe/rightBlue\GB_RB_3.xlsx
1	main_safe	True	0.0	795	0	0.0	0.0	0.0	1	left	1.0	1.0	1.0	0	-0.08	blockFiles/set_19/main_safe/rightBlue\GB_RB_3.xlsx
2	main_safe	True	0.0	795	0	0.0	0.0	0.0	1	left	1.0	1.0	1.0	0	-0.08	blockFiles/set_19/main_safe/rightBlue\GB_RB_3.xlsx
3	main_safe	True	0.0	795	0	0.0	0.0	0.0	1	left	1.0	1.0	1.0	0	-0.08	blockFiles/set_19/main_safe/rightBlue\GB_RB_3.xlsx
4	main_safe	True	0.0	795	0	0.0	0.0	0.0	1	left	1.0	1.0	1.0	0	-0.08	blockFiles/set_19/main_safe/rightBlue\GB_RB_3.xlsx
5	main_safe	True	0.0	795	0	0.0	0.0	1.0	1	right	2.0	1.0	1.0	1	0.08	blockFiles/set_19/main_safe/rightBlue\GB_RB_3.xlsx
6	main_safe	True	0.0	795	0	0.0	0.0	0.0	1	left	1.0	1.0	1.0	0	-0.08	blockFiles/set_19/main_safe/rightBlue\GB_RB_3.xlsx
7	main_safe	True	0.0	795	0	0.0	0.0	1.0	1	right	2.0	1.0	1.0	1	0.08	blockFiles/set_19/main_safe/rightBlue\GB_RB_3.xlsx
8	main_safe	True	0.0	795	0	0.0	0.0	0.0	1	left	1.0	1.0	1.0	0	-0.08	blockFiles/set_19/main_safe/rightBlue\GB_RB_3.xlsx
9	main_safe	True	0.0	795	0	0.0	0.0	0.0	1	left	1.0	1.0	1.0	0	-0.08	blockFiles/set_19/main_safe/rightBlue\GB_RB_3.xlsx
10	main_safe	True	0.0	795	0	0.0	0.0	1.0	1	right	2.0	1.0	1.0	1	0.08	blockFiles/set_19/main_safe/rightBlue\GB_RB_3.xlsx
11	main_safe	True	0.0	795	0	0.0	0.0	1.0	1	right	2.0	1.0	1.0	1	0.08	blockFiles/set_19/main_safe/rightBlue\GB_RB_3.xlsx
12	main_safe	True	0.0	795	0	0.0	0.0	0.0	1	left	1.0	1.0	1.0	0	-0.08	blockFiles/set_19/main_safe/rightBlue\GB_RB_3.xlsx
13	main_safe	True	0.0	795	0	0.0	0.0	1.0	1	right	2.0	1.0	1.0	1	0.08	blockFiles/set_19/main_safe/rightBlue\GB_RB_3.xlsx
14	main_safe	True	0.0	795	0	0.0	0.0	1.0	1	right	2.0	1.0	1.0	1	0.08	blockFiles/set_19/main_safe/rightBlue\GB_RB_3.xlsx
15	main_safe	True	0.0	795	0	0.0	0.0	0.0	1	left	1.0	1.0	1.0	0	-0.08	blockFiles/set_19/main_safe/rightBlue\GB_RB_3.xlsx
16	main_safe	True	0.0	795	0	0.0	0.0	0.0	1	left	1.0	1.0	1.0	0	-0.08	blockFiles/set_19/main_safe/rightBlue\GB_RB_3.xlsx
17	main_safe	True	0.0	795	0	0.0	0.0	1.0	1	right	2.0	0.0	1.0	1	0.08	blockFiles/set_19/main_safe/rightBlue\GB_RB_3.xlsx
18	main_safe	True	0.0	795	0	0.0	0.0	1.0	1	right	2.0	1.0	1.0	1	0.08	blockFiles/set_19/main_safe/rightBlue\GB_RB_3.xlsx
19	main_safe	True	0.0	795	0	0.0	0.0	1.0	1	right	2.0	0.0	1.0	1	0.08	blockFiles/set_19/main_safe/rightBlue\GB_RB_3.xlsx
20	main_safe	True	0.0	795	0	0.0	0.0	0.0	1	left	1.0	0.0	1.0	0	-0.08	blockFiles/set_19/main_safe/rightBlue\GB_RB_3.xlsx
21	main_safe	True	0.0	795	0	0.0	0.0	0.0	1	left	1.0	1.0	1.0	0	-0.08	blockFiles/set_19/main_safe/rightBlue\GB_RB_3.xlsx
22	main_safe	True	0.0	795	0	0.0	0.0	1.0	1	right	2.0	0.0	1.0	1	0.08	blockFiles/set_19/main_safe/rightBlue\GB_RB_3.xlsx
23	main_safe	True	0.0	795	0	0.0	0.0	1.0	1	right	1.0	0.0	0.0	1	0.08	blockFiles/set_19/main_safe/rightBlue\GB_RB_3.xlsx
24	main_safe	True	0.0	795	0	0.0	0.0	1.0	1	right	2.0	1.0	1.0	1	0.08	blockFiles/set_19/main_safe/rightBlue\GB_RB_3.xlsx
25	main_safe	True	0.0	795	0	1.0	1.0	0.0	1	left	1.0	1.0	1.0	0	-0.08	blockFiles/set_19/main_safe/rightBlue\GB_RB_2.xlsx
26	main_safe	True	0.0	795	0	1.0	1.0	0.0	1	left	1.0	1.0	1.0	0	-0.08	blockFiles/set_19/main_safe/rightBlue\GB_RB_2.xlsx
27	main_safe	True	0.0	795	0	1.0	1.0	1.0	1	right	2.0	1.0	1.0	1	0.08	blockFiles/set_19/main_safe/rightBlue\GB_RB_2.xlsx
28	main_safe	True	0.0	795	0	1.0	1.0	1.0	1	right	2.0	1.0	1.0	1	0.08	blockFiles/set_19/main_safe/rightBlue\GB_RB_2.xlsx
29	main_safe	True	0.0	795	0	1.0	1.0	0.0	1	left	1.0	0.0	1.0	0	-0.08	blockFiles/set_19/main_safe/rightBlue\GB_RB_2.xlsx
30	main_safe	True	0.0	795	0	1.0	1.0	1.0	1	right	2.0	1.0	1.0	1	0.08	blockFiles/set_19/main_safe/rightBlue\GB_RB_2.xlsx
31	main_safe	True	0.0	795	0	1.0	1.0	1.0	1	right	2.0	1.0	1.0	1	0.08	blockFiles/set_19/main_safe/rightBlue\GB_RB_2.xlsx
32	main_safe	True	0.0	795	0	1.0	1.0	1.0	1	right	2.0	1.0	1.0	1	0.08	blockFiles/set_19/main_safe/rightBlue\GB_RB_2.xlsx
33	main_safe	True	0.0	795	0	1.0	1.0	0.0	1	left	1.0	1.0	1.0	0	-0.08	blockFiles/set_19/main_safe/rightBlue\GB_RB_2.xlsx
34	main_safe	True	0.0	795	0	1.0	1.0	0.0	1	left	1.0	1.0	1.0	0	-0.08	blockFiles/set_19/main_safe/rightBlue\GB_RB_2.xlsx
35	main_safe	True	0.0	795	0	1.0	1.0	1.0	1	right	2.0	1.0	1.0	1	0.08	blockFiles/set_19/main_safe/rightBlue\GB_RB_2.xlsx
36	main_safe	True	0.0	795	0	1.0	1.0	1.0	1	right	2.0	1.0	1.0	1	0.08	blockFiles/set_19/main_safe/rightBlue\GB_RB_2.xlsx
37	main_safe	True	0.0	795	0	1.0	1.0	0.0	1	left	1.0	1.0	1.0	0	-0.08	blockFiles/set_19/main_safe/rightBlue\GB_RB_2.xlsx
38	main_safe	True	0.0	795	0	1.0	1.0	1.0	1	right	2.0	0.0	1.0	1	0.08	blockFiles/set_19/main_safe/rightBlue\GB_RB_2.xlsx
39	main_safe	True	0.0	795	0	1.0	1.0	1.0	1	right	2.0	1.0	1.0	1	0.08	blockFiles/set_19/main_safe/rightBlue\GB_RB_2.xlsx
40	main_safe	True	0.0	795	0	1.0	1.0	0.0	1	left	1.0	1.0	1.0	0	-0.08	blockFiles/set_19/main_safe/rightBlue\GB_RB_2.xlsx
41	main_safe	True	0.0	795	0	1.0	1.0	1.0	1	right	2.0	1.0	1.0	1	0.08	blockFiles/set_19/main_safe/rightBlue\GB_RB_2.xlsx
42	main_safe	True	0.0	795	0	1.0	1.0	1.0	1	right	2.0	1.0	1.0	1	0.08	blockFiles/set_19/main_safe/rightBlue\GB_RB_2.xlsx
43	main_safe	True	0.0	795	0	1.0	1.0	0.0	1	left	1.0	0.0	1.0	0	-0.08	blockFiles/set_19/main_safe/rightBlue\GB_RB_2.xlsx
44	main_safe	True	0.0	795	0	1.0	1.0	1.0	1	right	2.0	1.0	1.0	1	0.08	blockFiles/set_19/main_safe/rightBlue\GB_RB_2.xlsx
45	main_safe	True	0.0	795	0	1.0	1.0	0.0	1	left	1.0	1.0	1.0	0	-0.08	blockFiles/set_19/main_safe/rightBlue\GB_RB_2.xlsx
46	main_safe	True	0.0	795	0	1.0	1.0	0.0	1	left	1.0	1.0	1.0	0	-0.08	blockFiles/set_19/main_safe/rightBlue\GB_RB_2.xlsx
47	main_safe	True	0.0	795	0	1.0	1.0	1.0	1	right	2.0	1.0	1.0	1	0.08	blockFiles/set_19/main_safe/rightBlue\GB_RB_2.xlsx
48	main_safe	True	0.0	795	0	1.0	1.0	1.0	1	right	2.0	0.0	1.0	1	0.08	blockFiles/set_19/main_safe/rightBlue\GB_RB_2.xlsx
49	main_safe	True	0.0	795	0	1.0	1.0	0.0	1	left	1.0	0.0	1.0	0	-0.08	blockFiles/set_19/main_safe/rightBlue\GB_RB_2.xlsx
50	main_safe	True	0.0	795	0	2.0	2.0	0.0	1	left	1.0	0.0	1.0	0	-0.08	blockFiles/set_19/main_safe/rightBlue\GB_RB_1.xlsx
51	main_safe	True	0.0	795	0	2.0	2.0	0.0	1	left	2.0	0.0	0.0	0	-0.08	blockFiles/set_19/main_safe/rightBlue\GB_RB_1.xlsx
52	main_safe	True	0.0	795	0	2.0	2.0	1.0	1	right	1.0	0.0	0.0	1	0.08	blockFiles/set_19/main_safe/rightBlue\GB_RB_1.xlsx
53	main_safe	True	0.0	795	0	2.0	2.0	0.0	1	left	1.0	1.0	1.0	0	-0.08	blockFiles/set_19/main_safe/rightBlue\GB_RB_1.xlsx
54	main_safe	True	0.0	795	0	2.0	2.0	0.0	1	left	1.0	1.0	1.0	0	-0.08	blockFiles/set_19/main_safe/rightBlue\GB_RB_1.xlsx
55	main_safe	True	0.0	795	0	2.0	2.0	0.0	1	left	1.0	1.0	1.0	0	-0.08	blockFiles/set_19/main_safe/rightBlue\GB_RB_1.xlsx
56	main_safe	True	0.0	795	0	2.0	2.0	1.0	1	right	2.0	1.0	1.0	1	0.08	blockFiles/set_19/main_safe/rightBlue\GB_RB_1.xlsx
57	main_safe	True	0.0	795	0	2.0	2.0	0.0	1	left	1.0	0.0	1.0	0	-0.08	blockFiles/set_19/main_safe/rightBlue\GB_RB_1.xlsx
58	main_safe	True	0.0	795	0	2.0	2.0	1.0	1	right	2.0	1.0	1.0	1	0.08	blockFiles/set_19/main_safe/rightBlue\GB_RB_1.xlsx
59	main_safe	True	0.0	795	0	2.0	2.0	0.0	1	left	1.0	1.0	1.0	0	-0.08	blockFiles/set_19/main_safe/rightBlue\GB_RB_1.xlsx
60	main_safe	True	0.0	795	0	2.0	2.0	1.0	1	right	2.0	1.0	1.0	1	0.08	blockFiles/set_19/main_safe/rightBlue\GB_RB_1.xlsx
61	main_safe	True	0.0	795	0	2.0	2.0	0.0	1	left	1.0	1.0	1.0	0	-0.08	blockFiles/set_19/main_safe/rightBlue\GB_RB_1.xlsx
62	main_safe	True	0.0	795	0	2.0	2.0	1.0	1	right	2.0	0.0	1.0	1	0.08	blockFiles/set_19/main_safe/rightBlue\GB_RB_1.xlsx
63	main_safe	True	0.0	795	0	2.0	2.0	0.0	1	left	1.0	1.0	1.0	0	-0.08	blockFiles/set_19/main_safe/rightBlue\GB_RB_1.xlsx
64	main_safe	True	0.0	795	0	2.0	2.0	1.0	1	right	2.0	1.0	1.0	1	0.08	blockFiles/set_19/main_safe/rightBlue\GB_RB_1.xlsx
65	main_safe	True	0.0	795	0	2.0	2.0	0.0	1	left	1.0	1.0	1.0	0	-0.08	blockFiles/set_19/main_safe/rightBlue\GB_RB_1.xlsx
66	main_safe	True	0.0	795	0	2.0	2.0	1.0	1	right	2.0	1.0	1.0	1	0.08	blockFiles/set_19/main_safe/rightBlue\GB_RB_1.xlsx
67	main_safe	True	0.0	795	0	2.0	2.0	0.0	1	left	1.0	1.0	1.0	0	-0.08	blockFiles/set_19/main_safe/rightBlue\GB_RB_1.xlsx
68	main_safe	True	0.0	795	0	2.0	2.0	0.0	1	left	1.0	0.0	1.0	0	-0.08	blockFiles/set_19/main_safe/rightBlue\GB_RB_1.xlsx
69	main_safe	True	0.0	795	0	2.0	2.0	1.0	1	right	2.0	0.0	1.0	1	0.08	blockFiles/set_19/main_safe/rightBlue\GB_RB_1.xlsx
70	main_safe	True	0.0	795	0	2.0	2.0	1.0	1	right	2.0	1.0	1.0	1	0.08	blockFiles/set_19/main_safe/rightBlue\GB_RB_1.xlsx
71	main_safe	True	0.0	795	0	2.0	2.0	0.0	1	left	1.0	1.0	1.0	0	-0.08	blockFiles/set_19/main_safe/rightBlue\GB_RB_1.xlsx
72	main_safe	True	0.0	795	0	2.0	2.0	1.0	1	right	2.0	1.0	1.0	1	0.08	blockFiles/set_19/main_safe/rightBlue\GB_RB_1.xlsx
73	main_safe	True	0.0	795	0	2.0	2.0	1.0	1	right	2.0	0.0	1.0	1	0.08	blockFiles/set_19/main_safe/rightBlue\GB_RB_1.xlsx
74	main_safe	True	0.0	795	0	2.0	2.0	1.0	1	right	2.0	1.0	1.0	1	0.08	blockFiles/set_19/main_safe/rightBlue\GB_RB_1.xlsx
75	main_safe	True	0.0	795	0	3.0	3.0	0.0	1	left	1.0	0.0	0.0	0	-0.08	blockFiles/set_19/main_safe/leftBlue\GB_LB_1.xlsx
76	main_safe	True	0.0	795	0	3.0	3.0	1.0	1	right	1.0	0.0	1.0	1	0.08	blockFiles/set_19/main_safe/leftBlue\GB_LB_1.xlsx
77	main_safe	True	0.0	795	0	3.0	3.0	1.0	1	right	2.0	1.0	0.0	1	0.08	blockFiles/set_19/main_safe/leftBlue\GB_LB_1.xlsx
78	main_safe	True	0.0	795	0	3.0	3.0	1.0	1	right	2.0	0.0	0.0	1	0.08	blockFiles/set_19/main_safe/leftBlue\GB_LB_1.xlsx
79	main_safe	True	0.0	795	0	3.0	3.0	1.0	1	right	2.0	1.0	0.0	1	0.08	blockFiles/set_19/main_safe/leftBlue\GB_LB_1.xlsx
80	main_safe	True	0.0	795	0	3.0	3.0	1.0	1	right	2.0	0.0	0.0	1	0.08	blockFiles/set_19/main_safe/leftBlue\GB_LB_1.xlsx
81	main_safe	True	0.0	795	0	3.0	3.0	0.0	1	left	1.0	0.0	0.0	0	-0.08	blockFiles/set_19/main_safe/leftBlue\GB_LB_1.xlsx
82	main_safe	True	0.0	795	0	3.0	3.0	0.0	1	left	1.0	0.0	0.0	0	-0.08	blockFiles/set_19/main_safe/leftBlue\GB_LB_1.xlsx
83	main_safe	True	0.0	795	0	3.0	3.0	0.0	1	left	2.0	1.0	1.0	0	-0.08	blockFiles/set_19/main_safe/leftBlue\GB_LB_1.xlsx
84	main_safe	True	0.0	795	0	3.0	3.0	1.0	1	right	1.0	0.0	1.0	1	0.08	blockFiles/set_19/main_safe/leftBlue\GB_LB_1.xlsx
85	main_safe	True	0.0	795	0	3.0	3.0	0.0	1	left	2.0	1.0	1.0	0	-0.08	blockFiles/set_19/main_safe/leftBlue\GB_LB_1.xlsx
86	main_safe	True	0.0	795	0	3.0	3.0	0.0	1	left	2.0	1.0	1.0	0	-0.08	blockFiles/set_19/main_safe/leftBlue\GB_LB_1.xlsx
87	main_safe	True	0.0	795	0	3.0	3.0	0.0	1	left	2.0	1.0	1.0	0	-0.08	blockFiles/set_19/main_safe/leftBlue\GB_LB_1.xlsx
88	main_safe	True	0.0	795	0	3.0	3.0	0.0	1	left	2.0	1.0	1.0	0	-0.08	blockFiles/set_19/main_safe/leftBlue\GB_LB_1.xlsx
89	main_safe	True	0.0	795	0	3.0	3.0	0.0	1	left	2.0	1.0	1.0	0	-0.08	blockFiles/set_19/main_safe/leftBlue\GB_LB_1.xlsx
90	main_safe	True	0.0	795	0	3.0	3.0	0.0	1	left	2.0	1.0	1.0	0	-0.08	blockFiles/set_19/main_safe/leftBlue\GB_LB_1.xlsx
91	main_safe	True	0.0	795	0	3.0	3.0	1.0	1	right	1.0	1.0	1.0	1	0.08	blockFiles/set_19/main_safe/leftBlue\GB_LB_1.xlsx
92	main_safe	True	0.0	795	0	3.0	3.0	1.0	1	right	1.0	1.0	1.0	1	0.08	blockFiles/set_19/main_safe/leftBlue\GB_LB_1.xlsx
93	main_safe	True	0.0	795	0	3.0	3.0	1.0	1	right	1.0	0.0	1.0	1	0.08	blockFiles/set_19/main_safe/leftBlue\GB_LB_1.xlsx
94	main_safe	True	0.0	795	0	3.0	3.0	1.0	1	right	1.0	1.0	1.0	1	0.08	blockFiles/set_19/main_safe/leftBlue\GB_LB_1.xlsx
95	main_safe	True	0.0	795	0	3.0	3.0	0.0	1	left	2.0	1.0	1.0	0	-0.08	blockFiles/set_19/main_safe/leftBlue\GB_LB_1.xlsx
96	main_safe	True	0.0	795	0	3.0	3.0	0.0	1	left	2.0	1.0	1.0	0	-0.08	blockFiles/set_19/main_safe/leftBlue\GB_LB_1.xlsx
97	main_safe	True	0.0	795	0	3.0	3.0	0.0	1	left	2.0	0.0	1.0	0	-0.08	blockFiles/set_19/main_safe/leftBlue\GB_LB_1.xlsx
98	main_safe	True	0.0	795	0	3.0	3.0	1.0	1	right	1.0	1.0	1.0	1	0.08	blockFiles/set_19/main_safe/leftBlue\GB_LB_1.xlsx
99	main_safe	True	0.0	795	0	3.0	3.0	1.0	1	right	1.0	1.0	1.0	1	0.08	blockFiles/set_19/main_safe/leftBlue\GB_LB_1.xlsx
100	main_safe	True	1.0	795	0	4.0	4.0	1.0	1	right	n/a	0.0	n/a	1	0.08	blockFiles/set_19/main_safe/leftBlue\GB_LB_3.xlsx
101	main_safe	True	0.0	795	0	4.0	4.0	1.0	1	right	1.0	0.0	1.0	1	0.08	blockFiles/set_19/main_safe/leftBlue\GB_LB_3.xlsx
102	main_safe	True	0.0	795	0	4.0	4.0	0.0	1	left	1.0	0.0	0.0	0	-0.08	blockFiles/set_19/main_safe/leftBlue\GB_LB_3.xlsx
103	main_safe	True	0.0	795	0	4.0	4.0	1.0	1	right	2.0	0.0	0.0	1	0.08	blockFiles/set_19/main_safe/leftBlue\GB_LB_3.xlsx
104	main_safe	True	0.0	795	0	4.0	4.0	0.0	1	left	2.0	1.0	1.0	0	-0.08	blockFiles/set_19/main_safe/leftBlue\GB_LB_3.xlsx
105	main_safe	True	0.0	795	0	4.0	4.0	0.0	1	left	2.0	0.0	1.0	0	-0.08	blockFiles/set_19/main_safe/leftBlue\GB_LB_3.xlsx
106	main_safe	True	0.0	795	0	4.0	4.0	0.0	1	left	2.0	1.0	1.0	0	-0.08	blockFiles/set_19/main_safe/leftBlue\GB_LB_3.xlsx
107	main_safe	True	0.0	795	0	4.0	4.0	0.0	1	left	2.0	0.0	1.0	0	-0.08	blockFiles/set_19/main_safe/leftBlue\GB_LB_3.xlsx
108	main_safe	True	0.0	795	0	4.0	4.0	0.0	1	left	2.0	1.0	1.0	0	-0.08	blockFiles/set_19/main_safe/leftBlue\GB_LB_3.xlsx
109	main_safe	True	0.0	795	0	4.0	4.0	1.0	1	right	1.0	0.0	1.0	1	0.08	blockFiles/set_19/main_safe/leftBlue\GB_LB_3.xlsx
110	main_safe	True	0.0	795	0	4.0	4.0	0.0	1	left	2.0	0.0	1.0	0	-0.08	blockFiles/set_19/main_safe/leftBlue\GB_LB_3.xlsx
111	main_safe	True	0.0	795	0	4.0	4.0	0.0	1	left	2.0	1.0	1.0	0	-0.08	blockFiles/set_19/main_safe/leftBlue\GB_LB_3.xlsx
112	main_safe	True	0.0	795	0	4.0	4.0	1.0	1	right	1.0	1.0	1.0	1	0.08	blockFiles/set_19/main_safe/leftBlue\GB_LB_3.xlsx
113	main_safe	True	0.0	795	0	4.0	4.0	1.0	1	right	1.0	1.0	1.0	1	0.08	blockFiles/set_19/main_safe/leftBlue\GB_LB_3.xlsx
114	main_safe	True	0.0	795	0	4.0	4.0	1.0	1	right	1.0	1.0	1.0	1	0.08	blockFiles/set_19/main_safe/leftBlue\GB_LB_3.xlsx
115	main_safe	True	0.0	795	0	4.0	4.0	1.0	1	right	1.0	1.0	1.0	1	0.08	blockFiles/set_19/main_safe/leftBlue\GB_LB_3.xlsx
116	main_safe	True	0.0	795	0	4.0	4.0	1.0	1	right	1.0	1.0	1.0	1	0.08	blockFiles/set_19/main_safe/leftBlue\GB_LB_3.xlsx
117	main_safe	True	0.0	795	0	4.0	4.0	0.0	1	left	2.0	1.0	1.0	0	-0.08	blockFiles/set_19/main_safe/leftBlue\GB_LB_3.xlsx
118	main_safe	True	0.0	795	0	4.0	4.0	0.0	1	left	2.0	1.0	1.0	0	-0.08	blockFiles/set_19/main_safe/leftBlue\GB_LB_3.xlsx
119	main_safe	True	0.0	795	0	4.0	4.0	1.0	1	right	2.0	0.0	0.0	1	0.08	blockFiles/set_19/main_safe/leftBlue\GB_LB_3.xlsx
120	main_safe	True	0.0	795	0	4.0	4.0	1.0	1	right	1.0	1.0	1.0	1	0.08	blockFiles/set_19/main_safe/leftBlue\GB_LB_3.xlsx
121	main_safe	True	0.0	795	0	4.0	4.0	0.0	1	left	2.0	1.0	1.0	0	-0.08	blockFiles/set_19/main_safe/leftBlue\GB_LB_3.xlsx
122	main_safe	True	0.0	795	0	4.0	4.0	1.0	1	right	1.0	1.0	1.0	1	0.08	blockFiles/set_19/main_safe/leftBlue\GB_LB_3.xlsx
123	main_safe	True	0.0	795	0	4.0	4.0	1.0	1	right	1.0	1.0	1.0	1	0.08	blockFiles/set_19/main_safe/leftBlue\GB_LB_3.xlsx
124	main_safe	True	0.0	795	0	4.0	4.0	1.0	1	right	1.0	1.0	1.0	1	0.08	blockFiles/set_19/main_safe/leftBlue\GB_LB_3.xlsx
125	main_safe	True	0.0	795	0	4.0	4.0	1.0	1	right	1.0	1.0	1.0	1	0.08	blockFiles/set_19/main_safe/leftBlue\GB_LB_3.xlsx
126	main_safe	True	0.0	795	0	5.0	5.0	0.0	1	left	1.0	0.0	0.0	0	-0.08	blockFiles/set_19/main_safe/leftBlue\GB_LB_2.xlsx
127	main_safe	True	0.0	795	0	5.0	5.0	0.0	1	left	2.0	1.0	1.0	0	-0.08	blockFiles/set_19/main_safe/leftBlue\GB_LB_2.xlsx
128	main_safe	True	0.0	795	0	5.0	5.0	1.0	1	right	1.0	1.0	1.0	1	0.08	blockFiles/set_19/main_safe/leftBlue\GB_LB_2.xlsx
129	main_safe	True	0.0	795	0	5.0	5.0	0.0	1	left	2.0	0.0	1.0	0	-0.08	blockFiles/set_19/main_safe/leftBlue\GB_LB_2.xlsx
130	main_safe	True	0.0	795	0	5.0	5.0	1.0	1	right	1.0	1.0	1.0	1	0.08	blockFiles/set_19/main_safe/leftBlue\GB_LB_2.xlsx
131	main_safe	True	0.0	795	0	5.0	5.0	1.0	1	right	1.0	1.0	1.0	1	0.08	blockFiles/set_19/main_safe/leftBlue\GB_LB_2.xlsx
132	main_safe	True	0.0	795	0	5.0	5.0	1.0	1	right	1.0	1.0	1.0	1	0.08	blockFiles/set_19/main_safe/leftBlue\GB_LB_2.xlsx
133	main_safe	True	0.0	795	0	5.0	5.0	1.0	1	right	1.0	1.0	1.0	1	0.08	blockFiles/set_19/main_safe/leftBlue\GB_LB_2.xlsx
134	main_safe	True	0.0	795	0	5.0	5.0	1.0	1	right	1.0	0.0	1.0	1	0.08	blockFiles/set_19/main_safe/leftBlue\GB_LB_2.xlsx
135	main_safe	True	0.0	795	0	5.0	5.0	0.0	1	left	2.0	1.0	1.0	0	-0.08	blockFiles/set_19/main_safe/leftBlue\GB_LB_2.xlsx
136	main_safe	True	0.0	795	0	5.0	5.0	1.0	1	right	1.0	1.0	1.0	1	0.08	blockFiles/set_19/main_safe/leftBlue\GB_LB_2.xlsx
137	main_safe	True	0.0	795	0	5.0	5.0	0.0	1	left	2.0	0.0	1.0	0	-0.08	blockFiles/set_19/main_safe/leftBlue\GB_LB_2.xlsx
138	main_safe	True	0.0	795	0	5.0	5.0	1.0	1	right	1.0	1.0	1.0	1	0.08	blockFiles/set_19/main_safe/leftBlue\GB_LB_2.xlsx
139	main_safe	True	0.0	795	0	5.0	5.0	0.0	1	left	2.0	1.0	1.0	0	-0.08	blockFiles/set_19/main_safe/leftBlue\GB_LB_2.xlsx
140	main_safe	True	0.0	795	0	5.0	5.0	1.0	1	right	1.0	1.0	1.0	1	0.08	blockFiles/set_19/main_safe/leftBlue\GB_LB_2.xlsx
141	main_safe	True	0.0	795	0	5.0	5.0	0.0	1	left	2.0	1.0	1.0	0	-0.08	blockFiles/set_19/main_safe/leftBlue\GB_LB_2.xlsx
142	main_safe	True	0.0	795	0	5.0	5.0	0.0	1	left	2.0	1.0	1.0	0	-0.08	blockFiles/set_19/main_safe/leftBlue\GB_LB_2.xlsx
143	main_safe	True	0.0	795	0	5.0	5.0	0.0	1	left	2.0	0.0	1.0	0	-0.08	blockFiles/set_19/main_safe/leftBlue\GB_LB_2.xlsx
144	main_safe	True	0.0	795	0	5.0	5.0	0.0	1	left	2.0	1.0	1.0	0	-0.08	blockFiles/set_19/main_safe/leftBlue\GB_LB_2.xlsx
145	main_safe	True	0.0	795	0	5.0	5.0	1.0	1	right	1.0	1.0	1.0	1	0.08	blockFiles/set_19/main_safe/leftBlue\GB_LB_2.xlsx
146	main_safe	True	0.0	795	0	5.0	5.0	0.0	1	left	2.0	1.0	1.0	0	-0.08	blockFiles/set_19/main_safe/leftBlue\GB_LB_2.xlsx
147	main_safe	True	0.0	795	0	5.0	5.0	1.0	1	right	1.0	1.0	1.0	1	0.08	blockFiles/set_19/main_safe/leftBlue\GB_LB_2.xlsx
148	main_safe	True	0.0	795	0	5.0	5.0	0.0	1	left	2.0	1.0	1.0	0	-0.08	blockFiles/set_19/main_safe/leftBlue\GB_LB_2.xlsx
149	main_safe	True	0.0	795	0	5.0	5.0	1.0	1	right	1.0	1.0	1.0	1	0.08	blockFiles/set_19/main_safe/leftBlue\GB_LB_2.xlsx
150	main_safe	True	0.0	795	0	5.0	5.0	0.0	1	left	2.0	0.0	1.0	0	-0.08	blockFiles/set_19/main_safe/leftBlue\GB_LB_2.xlsx
151	patches	True	n/a	795	0	n/a	n/a	1.0	1	right	n/a	n/a	n/a	1	0.0524793826044	blockFiles/set_19/main_PD/GB_runPatches1.xlsx
152	patches	True	n/a	795	0	n/a	n/a	0.0	1	left	n/a	n/a	n/a	0	-0.0516852010041	blockFiles/set_19/main_PD/GB_runPatches1.xlsx
153	patches	True	n/a	795	0	n/a	n/a	0.0	1	left	n/a	n/a	n/a	0	-0.0494675629213	blockFiles/set_19/main_PD/GB_runPatches1.xlsx
154	patches	True	n/a	795	0	n/a	n/a	0.0	1	left	n/a	n/a	n/a	0	-0.00754792932421	blockFiles/set_19/main_PD/GB_runPatches1.xlsx
155	patches	True	n/a	795	0	n/a	n/a	0.0	1	left	n/a	n/a	n/a	0	-0.00962505279109	blockFiles/set_19/main_PD/GB_runPatches1.xlsx
156	patches	True	n/a	795	0	n/a	n/a	0.0	1	left	n/a	n/a	n/a	0	-0.0745007017255	blockFiles/set_19/main_PD/GB_runPatches1.xlsx
157	patches	True	n/a	795	0	n/a	n/a	0.0	0	left	n/a	n/a	n/a	1	0.018329789266	blockFiles/set_19/main_PD/GB_runPatches1.xlsx
158	patches	True	n/a	795	0	n/a	n/a	1.0	1	right	n/a	n/a	n/a	1	0.0659041998163	blockFiles/set_19/main_PD/GB_runPatches1.xlsx
159	patches	True	n/a	795	0	n/a	n/a	1.0	0	right	n/a	n/a	n/a	0	-0.0352162417956	blockFiles/set_19/main_PD/GB_runPatches1.xlsx
160	patches	True	n/a	795	0	n/a	n/a	0.0	1	left	n/a	n/a	n/a	0	-0.018825506735599996	blockFiles/set_19/main_PD/GB_runPatches1.xlsx
161	patches	True	n/a	795	0	n/a	n/a	1.0	1	right	n/a	n/a	n/a	1	0.0276625954919	blockFiles/set_19/main_PD/GB_runPatches1.xlsx
162	patches	True	n/a	795	0	n/a	n/a	1.0	1	right	n/a	n/a	n/a	1	0.0269990547933	blockFiles/set_19/main_PD/GB_runPatches1.xlsx
163	patches	True	n/a	795	0	n/a	n/a	0.0	0	left	n/a	n/a	n/a	1	0.032052129712	blockFiles/set_19/main_PD/GB_runPatches1.xlsx
164	patches	True	n/a	795	0	n/a	n/a	1.0	1	right	n/a	n/a	n/a	1	0.06366053866219999	blockFiles/set_19/main_PD/GB_runPatches1.xlsx
165	patches	True	n/a	795	0	n/a	n/a	0.0	1	left	n/a	n/a	n/a	0	-0.06494698679069999	blockFiles/set_19/main_PD/GB_runPatches1.xlsx
166	patches	True	n/a	795	0	n/a	n/a	n/a	0	None	n/a	n/a	n/a	0	-0.007040832862260001	blockFiles/set_19/main_PD/GB_runPatches1.xlsx
167	patches	True	n/a	795	0	n/a	n/a	0.0	0	left	n/a	n/a	n/a	1	0.0312838971429	blockFiles/set_19/main_PD/GB_runPatches1.xlsx
168	patches	True	n/a	795	0	n/a	n/a	0.0	1	left	n/a	n/a	n/a	0	-0.0671924627386	blockFiles/set_19/main_PD/GB_runPatches1.xlsx
169	patches	True	n/a	795	0	n/a	n/a	0.0	0	left	n/a	n/a	n/a	1	0.0160962980241	blockFiles/set_19/main_PD/GB_runPatches1.xlsx
170	patches	True	n/a	795	0	n/a	n/a	0.0	0	left	n/a	n/a	n/a	1	0.045681064519999995	blockFiles/set_19/main_PD/GB_runPatches1.xlsx
171	patches	True	n/a	795	0	n/a	n/a	1.0	1	right	n/a	n/a	n/a	1	0.039114073831599996	blockFiles/set_19/main_PD/GB_runPatches1.xlsx
172	patches	True	n/a	795	0	n/a	n/a	0.0	1	left	n/a	n/a	n/a	0	-0.0696770166792	blockFiles/set_19/main_PD/GB_runPatches1.xlsx
173	patches	True	n/a	795	0	n/a	n/a	1.0	1	right	n/a	n/a	n/a	1	0.024510450065099998	blockFiles/set_19/main_PD/GB_runPatches1.xlsx
174	patches	True	n/a	795	0	n/a	n/a	1.0	1	right	n/a	n/a	n/a	1	0.0469265414961	blockFiles/set_19/main_PD/GB_runPatches1.xlsx
175	patches	True	n/a	795	0	n/a	n/a	0.0	0	left	n/a	n/a	n/a	1	0.0480310078524	blockFiles/set_19/main_PD/GB_runPatches1.xlsx
176	patches	True	n/a	795	0	n/a	n/a	1.0	1	right	n/a	n/a	n/a	1	0.0634145456366	blockFiles/set_19/main_PD/GB_runPatches1.xlsx
177	patches	True	n/a	795	0	n/a	n/a	0.0	1	left	n/a	n/a	n/a	0	-0.00739098699763	blockFiles/set_19/main_PD/GB_runPatches1.xlsx
178	patches	True	n/a	795	0	n/a	n/a	1.0	1	right	n/a	n/a	n/a	1	0.0499332776666	blockFiles/set_19/main_PD/GB_runPatches1.xlsx
179	patches	True	n/a	795	0	n/a	n/a	0.0	1	left	n/a	n/a	n/a	0	-0.0189727736078	blockFiles/set_19/main_PD/GB_runPatches1.xlsx
180	patches	True	n/a	795	0	n/a	n/a	1.0	0	right	n/a	n/a	n/a	0	-0.058521234430400006	blockFiles/set_19/main_PD/GB_runPatches1.xlsx
181	patches	True	n/a	795	0	n/a	n/a	1.0	1	right	n/a	n/a	n/a	1	0.0293578106351	blockFiles/set_19/main_PD/GB_runPatches1.xlsx
182	patches	True	n/a	795	0	n/a	n/a	1.0	1	right	n/a	n/a	n/a	1	0.0690321402252	blockFiles/set_19/main_PD/GB_runPatches1.xlsx
183	patches	True	n/a	795	0	n/a	n/a	1.0	1	right	n/a	n/a	n/a	1	0.06641155421730001	blockFiles/set_19/main_PD/GB_runPatches1.xlsx
184	patches	True	n/a	795	0	n/a	n/a	1.0	1	right	n/a	n/a	n/a	1	0.0230211416073	blockFiles/set_19/main_PD/GB_runPatches1.xlsx
185	patches	True	n/a	795	0	n/a	n/a	0.0	0	left	n/a	n/a	n/a	1	0.028163831997700003	blockFiles/set_19/main_PD/GB_runPatches1.xlsx
186	patches	True	n/a	795	0	n/a	n/a	1.0	1	right	n/a	n/a	n/a	1	0.0484334067628	blockFiles/set_19/main_PD/GB_runPatches1.xlsx
187	patches	True	n/a	795	0	n/a	n/a	0.0	1	left	n/a	n/a	n/a	0	-0.0139267930761	blockFiles/set_19/main_PD/GB_runPatches1.xlsx
188	patches	True	n/a	795	0	n/a	n/a	0.0	1	left	n/a	n/a	n/a	0	-0.048143261764199995	blockFiles/set_19/main_PD/GB_runPatches1.xlsx
189	patches	True	n/a	795	0	n/a	n/a	1.0	1	right	n/a	n/a	n/a	1	0.019873184598999998	blockFiles/set_19/main_PD/GB_runPatches1.xlsx
190	patches	True	n/a	795	0	n/a	n/a	0.0	1	left	n/a	n/a	n/a	0	-0.04174130667	blockFiles/set_19/main_PD/GB_runPatches1.xlsx
191	patches	True	n/a	795	0	n/a	n/a	1.0	1	right	n/a	n/a	n/a	1	0.0358667775989	blockFiles/set_19/main_PD/GB_runPatches1.xlsx
192	patches	True	n/a	795	0	n/a	n/a	1.0	1	right	n/a	n/a	n/a	1	0.038941086623800004	blockFiles/set_19/main_PD/GB_runPatches1.xlsx
193	patches	True	n/a	795	0	n/a	n/a	1.0	1	right	n/a	n/a	n/a	1	0.0166729062796	blockFiles/set_19/main_PD/GB_runPatches1.xlsx
194	patches	True	n/a	795	0	n/a	n/a	0.0	1	left	n/a	n/a	n/a	0	-0.0794978880137	blockFiles/set_19/main_PD/GB_runPatches1.xlsx
195	patches	True	n/a	795	0	n/a	n/a	1.0	1	right	n/a	n/a	n/a	1	0.0686345734447	blockFiles/set_19/main_PD/GB_runPatches1.xlsx
196	patches	True	n/a	795	0	n/a	n/a	1.0	1	right	n/a	n/a	n/a	1	0.000935566034168	blockFiles/set_19/main_PD/GB_runPatches1.xlsx
197	patches	True	n/a	795	0	n/a	n/a	0.0	1	left	n/a	n/a	n/a	0	-0.0322025555186	blockFiles/set_19/main_PD/GB_runPatches1.xlsx
198	patches	True	n/a	795	0	n/a	n/a	1.0	0	right	n/a	n/a	n/a	0	-0.052701950483	blockFiles/set_19/main_PD/GB_runPatches1.xlsx
199	patches	True	n/a	795	0	n/a	n/a	0.0	1	left	n/a	n/a	n/a	0	-0.014558280725	blockFiles/set_19/main_PD/GB_runPatches1.xlsx
200	patches	True	n/a	795	0	n/a	n/a	1.0	0	right	n/a	n/a	n/a	0	-0.039796910416300006	blockFiles/set_19/main_PD/GB_runPatches1.xlsx
201	patches	True	n/a	795	0	n/a	n/a	1.0	0	right	n/a	n/a	n/a	0	-0.0175959419459	blockFiles/set_19/main_PD/GB_runPatches1.xlsx
202	patches	True	n/a	795	0	n/a	n/a	0.0	1	left	n/a	n/a	n/a	0	-0.0558591801673	blockFiles/set_19/main_PD/GB_runPatches1.xlsx
203	patches	True	n/a	795	0	n/a	n/a	1.0	0	right	n/a	n/a	n/a	0	-0.0315313716792	blockFiles/set_19/main_PD/GB_runPatches1.xlsx
204	patches	True	n/a	795	0	n/a	n/a	0.0	1	left	n/a	n/a	n/a	0	-0.07491376783699999	blockFiles/set_19/main_PD/GB_runPatches1.xlsx
205	patches	True	n/a	795	0	n/a	n/a	1.0	0	right	n/a	n/a	n/a	0	-0.037788740024000005	blockFiles/set_19/main_PD/GB_runPatches1.xlsx
206	patches	True	n/a	795	0	n/a	n/a	0.0	1	left	n/a	n/a	n/a	0	-0.0726980159059	blockFiles/set_19/main_PD/GB_runPatches1.xlsx
207	patches	True	n/a	795	0	n/a	n/a	1.0	1	right	n/a	n/a	n/a	1	0.0119283597544	blockFiles/set_19/main_PD/GB_runPatches1.xlsx
208	patches	True	n/a	795	0	n/a	n/a	1.0	1	right	n/a	n/a	n/a	1	0.0315604560263	blockFiles/set_19/main_PD/GB_runPatches1.xlsx
209	patches	True	n/a	795	0	n/a	n/a	1.0	0	right	n/a	n/a	n/a	0	-0.025425904337299996	blockFiles/set_19/main_PD/GB_runPatches1.xlsx
210	patches	True	n/a	795	0	n/a	n/a	0.0	1	left	n/a	n/a	n/a	0	-0.072978799846	blockFiles/set_19/main_PD/GB_runPatches1.xlsx
211	patches	True	n/a	795	0	n/a	n/a	1.0	0	right	n/a	n/a	n/a	0	-0.0718842290342	blockFiles/set_19/main_PD/GB_runPatches1.xlsx
212	patches	True	n/a	795	0	n/a	n/a	0.0	1	left	n/a	n/a	n/a	0	-0.0513238187134	blockFiles/set_19/main_PD/GB_runPatches1.xlsx
213	patches	True	n/a	795	0	n/a	n/a	n/a	0	None	n/a	n/a	n/a	1	0.0236981015466	blockFiles/set_19/main_PD/GB_runPatches1.xlsx
214	patches	True	n/a	795	0	n/a	n/a	0.0	0	left	n/a	n/a	n/a	1	0.0205934694409	blockFiles/set_19/main_PD/GB_runPatches1.xlsx
215	patches	True	n/a	795	0	n/a	n/a	1.0	0	right	n/a	n/a	n/a	0	-0.0526970558614	blockFiles/set_19/main_PD/GB_runPatches1.xlsx
216	patches	True	n/a	795	0	n/a	n/a	1.0	1	right	n/a	n/a	n/a	1	0.054794614370900004	blockFiles/set_19/main_PD/GB_runPatches1.xlsx
217	patches	True	n/a	795	0	n/a	n/a	1.0	1	right	n/a	n/a	n/a	1	0.02258823568	blockFiles/set_19/main_PD/GB_runPatches1.xlsx
218	patches	True	n/a	795	0	n/a	n/a	1.0	0	right	n/a	n/a	n/a	0	-0.0743077037483	blockFiles/set_19/main_PD/GB_runPatches1.xlsx
219	patches	True	n/a	795	0	n/a	n/a	1.0	1	right	n/a	n/a	n/a	1	0.07185993337999999	blockFiles/set_19/main_PD/GB_runPatches1.xlsx
220	patches	True	n/a	795	0	n/a	n/a	0.0	1	left	n/a	n/a	n/a	0	-0.0016272348724300002	blockFiles/set_19/main_PD/GB_runPatches1.xlsx
221	patches	True	n/a	795	0	n/a	n/a	1.0	1	right	n/a	n/a	n/a	1	0.0338834701851	blockFiles/set_19/main_PD/GB_runPatches1.xlsx
222	patches	True	n/a	795	0	n/a	n/a	0.0	0	left	n/a	n/a	n/a	1	0.06119539411740001	blockFiles/set_19/main_PD/GB_runPatches1.xlsx
223	patches	True	n/a	795	0	n/a	n/a	1.0	0	right	n/a	n/a	n/a	0	-0.00296163452789	blockFiles/set_19/main_PD/GB_runPatches1.xlsx
224	patches	True	n/a	795	0	n/a	n/a	1.0	0	right	n/a	n/a	n/a	0	-0.0146636769548	blockFiles/set_19/main_PD/GB_runPatches1.xlsx
225	patches	True	n/a	795	0	n/a	n/a	0.0	1	left	n/a	n/a	n/a	0	-0.056609351206599996	blockFiles/set_19/main_PD/GB_runPatches1.xlsx
226	patches	True	n/a	795	0	n/a	n/a	1.0	0	right	n/a	n/a	n/a	0	-0.0041537098214	blockFiles/set_19/main_PD/GB_runPatches1.xlsx
227	patches	True	n/a	795	0	n/a	n/a	0.0	1	left	n/a	n/a	n/a	0	-0.07490843769160001	blockFiles/set_19/main_PD/GB_runPatches1.xlsx
228	patches	True	n/a	795	0	n/a	n/a	0.0	1	left	n/a	n/a	n/a	0	-0.0144873739406	blockFiles/set_19/main_PD/GB_runPatches1.xlsx
229	patches	True	n/a	795	0	n/a	n/a	0.0	0	left	n/a	n/a	n/a	1	0.0739545027912	blockFiles/set_19/main_PD/GB_runPatches1.xlsx
230	patches	True	n/a	795	0	n/a	n/a	1.0	1	right	n/a	n/a	n/a	1	0.00740405995399	blockFiles/set_19/main_PD/GB_runPatches1.xlsx
231	patches	True	n/a	795	0	n/a	n/a	1.0	1	right	n/a	n/a	n/a	1	0.0421478936821	blockFiles/set_19/main_PD/GB_runPatches1.xlsx
232	patches	True	n/a	795	0	n/a	n/a	1.0	0	right	n/a	n/a	n/a	0	-0.0300218539685	blockFiles/set_19/main_PD/GB_runPatches1.xlsx
233	patches	True	n/a	795	0	n/a	n/a	0.0	1	left	n/a	n/a	n/a	0	-0.0658730789088	blockFiles/set_19/main_PD/GB_runPatches1.xlsx
234	patches	True	n/a	795	0	n/a	n/a	1.0	1	right	n/a	n/a	n/a	1	0.060165661368500004	blockFiles/set_19/main_PD/GB_runPatches1.xlsx
235	patches	True	n/a	795	0	n/a	n/a	1.0	1	right	n/a	n/a	n/a	1	0.0260182769969	blockFiles/set_19/main_PD/GB_runPatches1.xlsx
236	patches	True	n/a	795	0	n/a	n/a	1.0	1	right	n/a	n/a	n/a	1	0.0709320480376	blockFiles/set_19/main_PD/GB_runPatches1.xlsx
237	patches	True	n/a	795	0	n/a	n/a	1.0	0	right	n/a	n/a	n/a	0	-0.004543559402229999	blockFiles/set_19/main_PD/GB_runPatches1.xlsx
238	patches	True	n/a	795	0	n/a	n/a	0.0	1	left	n/a	n/a	n/a	0	-0.0711727089435	blockFiles/set_19/main_PD/GB_runPatches1.xlsx
239	patches	True	n/a	795	0	n/a	n/a	1.0	0	right	n/a	n/a	n/a	0	-0.008169479314239999	blockFiles/set_19/main_PD/GB_runPatches1.xlsx
240	patches	True	n/a	795	0	n/a	n/a	1.0	0	right	n/a	n/a	n/a	0	-0.038871303051699994	blockFiles/set_19/main_PD/GB_runPatches1.xlsx
241	patches	True	n/a	795	0	n/a	n/a	0.0	0	left	n/a	n/a	n/a	1	0.0731905717775	blockFiles/set_19/main_PD/GB_runPatches1.xlsx
242	patches	True	n/a	795	0	n/a	n/a	1.0	0	right	n/a	n/a	n/a	0	-0.031058542560799998	blockFiles/set_19/main_PD/GB_runPatches1.xlsx
243	patches	True	n/a	795	0	n/a	n/a	1.0	1	right	n/a	n/a	n/a	1	0.00516015833244	blockFiles/set_19/main_PD/GB_runPatches1.xlsx
244	patches	True	n/a	795	0	n/a	n/a	0.0	1	left	n/a	n/a	n/a	0	-0.067712258976	blockFiles/set_19/main_PD/GB_runPatches1.xlsx
245	patches	True	n/a	795	0	n/a	n/a	1.0	1	right	n/a	n/a	n/a	1	0.037841983959099997	blockFiles/set_19/main_PD/GB_runPatches1.xlsx
246	patches	True	n/a	795	0	n/a	n/a	1.0	0	right	n/a	n/a	n/a	0	-0.043027916196699996	blockFiles/set_19/main_PD/GB_runPatches1.xlsx
247	patches	True	n/a	795	0	n/a	n/a	1.0	1	right	n/a	n/a	n/a	1	0.0247314946167	blockFiles/set_19/main_PD/GB_runPatches1.xlsx
248	patches	True	n/a	795	0	n/a	n/a	1.0	1	right	n/a	n/a	n/a	1	0.0757165742666	blockFiles/set_19/main_PD/GB_runPatches1.xlsx
249	patches	True	n/a	795	0	n/a	n/a	1.0	1	right	n/a	n/a	n/a	1	0.014278232697399999	blockFiles/set_19/main_PD/GB_runPatches1.xlsx
250	patches	True	n/a	795	0	n/a	n/a	1.0	1	right	n/a	n/a	n/a	1	0.012865365203499998	blockFiles/set_19/main_PD/GB_runPatches1.xlsx
251	main_unc	True	0.0	795	0	0.0	0.0	1.0	1	right	1.0	0.0	0.0	1	0.0637493448704	blockFiles/set_19/main_unc/rightBlue\GB_RB_2.xlsx
252	main_unc	True	0.0	795	0	0.0	0.0	0.0	1	left	1.0	1.0	1.0	0	-0.00201912434772	blockFiles/set_19/main_unc/rightBlue\GB_RB_2.xlsx
253	main_unc	True	0.0	795	0	0.0	0.0	0.0	1	left	1.0	1.0	1.0	0	-0.07251695176589999	blockFiles/set_19/main_unc/rightBlue\GB_RB_2.xlsx
254	main_unc	True	0.0	795	0	0.0	0.0	0.0	1	left	1.0	0.0	1.0	0	-0.031723527945599996	blockFiles/set_19/main_unc/rightBlue\GB_RB_2.xlsx
255	main_unc	True	0.0	795	0	0.0	0.0	1.0	1	right	2.0	0.0	1.0	1	0.028926414754200002	blockFiles/set_19/main_unc/rightBlue\GB_RB_2.xlsx
256	main_unc	True	0.0	795	0	0.0	0.0	0.0	1	left	1.0	1.0	1.0	0	-0.0569329439476	blockFiles/set_19/main_unc/rightBlue\GB_RB_2.xlsx
257	main_unc	True	0.0	795	0	0.0	0.0	1.0	0	right	2.0	0.0	0.0	0	-0.0061129847541499995	blockFiles/set_19/main_unc/rightBlue\GB_RB_2.xlsx
258	main_unc	True	0.0	795	0	0.0	0.0	1.0	1	right	2.0	1.0	1.0	1	0.0751718258858	blockFiles/set_19/main_unc/rightBlue\GB_RB_2.xlsx
259	main_unc	True	0.0	795	0	0.0	0.0	1.0	1	right	2.0	1.0	1.0	1	0.0536188638583	blockFiles/set_19/main_unc/rightBlue\GB_RB_2.xlsx
260	main_unc	True	0.0	795	0	0.0	0.0	0.0	1	left	1.0	1.0	1.0	0	-0.024557067006799996	blockFiles/set_19/main_unc/rightBlue\GB_RB_2.xlsx
261	main_unc	True	0.0	795	0	0.0	0.0	1.0	1	right	2.0	1.0	1.0	1	0.0532276195846	blockFiles/set_19/main_unc/rightBlue\GB_RB_2.xlsx
262	main_unc	True	0.0	795	0	0.0	0.0	0.0	1	left	1.0	1.0	1.0	0	-0.06912531770769999	blockFiles/set_19/main_unc/rightBlue\GB_RB_2.xlsx
263	main_unc	True	0.0	795	0	0.0	0.0	1.0	1	right	2.0	1.0	1.0	1	0.0577417969145	blockFiles/set_19/main_unc/rightBlue\GB_RB_2.xlsx
264	main_unc	True	0.0	795	0	0.0	0.0	1.0	1	right	2.0	1.0	1.0	1	0.00683479227126	blockFiles/set_19/main_unc/rightBlue\GB_RB_2.xlsx
265	main_unc	True	0.0	795	0	0.0	0.0	0.0	1	left	1.0	0.0	1.0	0	-0.0215301707014	blockFiles/set_19/main_unc/rightBlue\GB_RB_2.xlsx
266	main_unc	True	0.0	795	0	0.0	0.0	0.0	1	left	1.0	1.0	1.0	0	-0.060360726676900005	blockFiles/set_19/main_unc/rightBlue\GB_RB_2.xlsx
267	main_unc	True	0.0	795	0	0.0	0.0	1.0	1	right	2.0	0.0	1.0	1	0.0488467618264	blockFiles/set_19/main_unc/rightBlue\GB_RB_2.xlsx
268	main_unc	True	0.0	795	0	0.0	0.0	1.0	1	right	2.0	1.0	1.0	1	0.0622458143719	blockFiles/set_19/main_unc/rightBlue\GB_RB_2.xlsx
269	main_unc	True	0.0	795	0	0.0	0.0	0.0	1	left	1.0	0.0	1.0	0	-0.033147797640400004	blockFiles/set_19/main_unc/rightBlue\GB_RB_2.xlsx
270	main_unc	True	0.0	795	0	0.0	0.0	0.0	1	left	1.0	1.0	1.0	0	-0.058672830611500006	blockFiles/set_19/main_unc/rightBlue\GB_RB_2.xlsx
271	main_unc	True	0.0	795	0	0.0	0.0	1.0	1	right	2.0	1.0	1.0	1	0.057004432436100004	blockFiles/set_19/main_unc/rightBlue\GB_RB_2.xlsx
272	main_unc	True	0.0	795	0	0.0	0.0	1.0	1	right	2.0	1.0	1.0	1	0.00977359484881	blockFiles/set_19/main_unc/rightBlue\GB_RB_2.xlsx
273	main_unc	True	0.0	795	0	0.0	0.0	1.0	0	right	2.0	0.0	0.0	0	-0.009060819987209999	blockFiles/set_19/main_unc/rightBlue\GB_RB_2.xlsx
274	main_unc	True	0.0	795	0	0.0	0.0	1.0	1	right	2.0	1.0	1.0	1	0.0775389855355	blockFiles/set_19/main_unc/rightBlue\GB_RB_2.xlsx
275	main_unc	True	0.0	795	0	0.0	0.0	1.0	1	right	2.0	1.0	1.0	1	0.0240483903699	blockFiles/set_19/main_unc/rightBlue\GB_RB_2.xlsx
276	main_unc	True	0.0	795	0	1.0	1.0	0.0	1	left	1.0	0.0	0.0	0	-0.0613501191698	blockFiles/set_19/main_unc/leftBlue\GB_LB_5.xlsx
277	main_unc	True	0.0	795	0	1.0	1.0	0.0	1	left	2.0	1.0	1.0	0	-0.0601564946398	blockFiles/set_19/main_unc/leftBlue\GB_LB_5.xlsx
278	main_unc	True	0.0	795	0	1.0	1.0	0.0	1	left	2.0	1.0	1.0	0	-0.009098336808379999	blockFiles/set_19/main_unc/leftBlue\GB_LB_5.xlsx
279	main_unc	True	0.0	795	0	1.0	1.0	1.0	1	right	1.0	1.0	1.0	1	0.00834458665922	blockFiles/set_19/main_unc/leftBlue\GB_LB_5.xlsx
280	main_unc	True	0.0	795	0	1.0	1.0	1.0	1	right	1.0	1.0	1.0	1	0.0582522853278	blockFiles/set_19/main_unc/leftBlue\GB_LB_5.xlsx
281	main_unc	True	0.0	795	0	1.0	1.0	1.0	1	right	1.0	1.0	1.0	1	0.0509404226393	blockFiles/set_19/main_unc/leftBlue\GB_LB_5.xlsx
282	main_unc	True	1.0	795	0	1.0	1.0	1.0	0	right	n/a	0.0	n/a	0	-0.0131007535011	blockFiles/set_19/main_unc/leftBlue\GB_LB_5.xlsx
283	main_unc	True	0.0	795	0	1.0	1.0	1.0	1	right	1.0	1.0	1.0	1	0.038309042993900005	blockFiles/set_19/main_unc/leftBlue\GB_LB_5.xlsx
284	main_unc	True	0.0	795	0	1.0	1.0	0.0	1	left	2.0	1.0	1.0	0	-0.05791515044869999	blockFiles/set_19/main_unc/leftBlue\GB_LB_5.xlsx
285	main_unc	True	0.0	795	0	1.0	1.0	1.0	1	right	1.0	1.0	1.0	1	0.042750726118700004	blockFiles/set_19/main_unc/leftBlue\GB_LB_5.xlsx
286	main_unc	True	0.0	795	0	1.0	1.0	0.0	1	left	2.0	0.0	1.0	0	-0.06720071621240001	blockFiles/set_19/main_unc/leftBlue\GB_LB_5.xlsx
287	main_unc	True	0.0	795	0	1.0	1.0	0.0	1	left	2.0	0.0	1.0	0	-0.00911760440096	blockFiles/set_19/main_unc/leftBlue\GB_LB_5.xlsx
288	main_unc	True	0.0	795	0	1.0	1.0	0.0	1	left	2.0	1.0	1.0	0	-0.0181041445211	blockFiles/set_19/main_unc/leftBlue\GB_LB_5.xlsx
289	main_unc	True	0.0	795	0	1.0	1.0	1.0	1	right	1.0	1.0	1.0	1	0.0253788225912	blockFiles/set_19/main_unc/leftBlue\GB_LB_5.xlsx
290	main_unc	True	0.0	795	0	1.0	1.0	1.0	1	right	1.0	0.0	1.0	1	0.0724248560145	blockFiles/set_19/main_unc/leftBlue\GB_LB_5.xlsx
291	main_unc	True	0.0	795	0	1.0	1.0	0.0	1	left	2.0	1.0	1.0	0	-0.0597112387791	blockFiles/set_19/main_unc/leftBlue\GB_LB_5.xlsx
292	main_unc	True	0.0	795	0	1.0	1.0	1.0	1	right	1.0	1.0	1.0	1	0.0440939233452	blockFiles/set_19/main_unc/leftBlue\GB_LB_5.xlsx
293	main_unc	True	0.0	795	0	1.0	1.0	1.0	1	right	1.0	1.0	1.0	1	0.040953521784399996	blockFiles/set_19/main_unc/leftBlue\GB_LB_5.xlsx
294	main_unc	True	0.0	795	0	1.0	1.0	1.0	1	right	1.0	0.0	1.0	1	0.0719227076694	blockFiles/set_19/main_unc/leftBlue\GB_LB_5.xlsx
295	main_unc	True	0.0	795	0	1.0	1.0	0.0	0	left	2.0	0.0	0.0	1	0.0227801881358	blockFiles/set_19/main_unc/leftBlue\GB_LB_5.xlsx
296	main_unc	True	0.0	795	0	1.0	1.0	0.0	0	left	1.0	1.0	1.0	1	0.00149106271565	blockFiles/set_19/main_unc/leftBlue\GB_LB_5.xlsx
297	main_unc	True	0.0	795	0	1.0	1.0	0.0	1	left	2.0	1.0	1.0	0	-0.00969159636647	blockFiles/set_19/main_unc/leftBlue\GB_LB_5.xlsx
298	main_unc	True	0.0	795	0	1.0	1.0	0.0	0	left	1.0	1.0	1.0	1	0.024288166929000002	blockFiles/set_19/main_unc/leftBlue\GB_LB_5.xlsx
299	main_unc	True	0.0	795	0	1.0	1.0	0.0	1	left	2.0	1.0	1.0	0	-0.0412774268351	blockFiles/set_19/main_unc/leftBlue\GB_LB_5.xlsx
300	main_unc	True	0.0	795	0	1.0	1.0	0.0	1	left	2.0	0.0	1.0	0	-0.07924585022030001	blockFiles/set_19/main_unc/leftBlue\GB_LB_5.xlsx
301	main_unc	True	0.0	795	0	1.0	1.0	0.0	1	left	1.0	0.0	0.0	0	-0.0131007535011	blockFiles/set_19/main_unc/leftBlue\GB_LB_5.xlsx
302	main_unc	True	0.0	795	0	2.0	2.0	1.0	1	right	1.0	1.0	0.0	1	0.023979122713200005	blockFiles/set_19/main_unc/rightBlue\GB_RB_4.xlsx
303	main_unc	True	0.0	795	0	2.0	2.0	0.0	1	left	2.0	0.0	0.0	0	-0.0497147711739	blockFiles/set_19/main_unc/rightBlue\GB_RB_4.xlsx
304	main_unc	True	0.0	795	0	2.0	2.0	1.0	1	right	1.0	0.0	0.0	1	0.07759820098060001	blockFiles/set_19/main_unc/rightBlue\GB_RB_4.xlsx
305	main_unc	True	0.0	795	0	2.0	2.0	0.0	1	left	1.0	1.0	1.0	0	-0.06661583228040001	blockFiles/set_19/main_unc/rightBlue\GB_RB_4.xlsx
306	main_unc	True	0.0	795	0	2.0	2.0	0.0	1	left	1.0	1.0	1.0	0	-0.022575214523800003	blockFiles/set_19/main_unc/rightBlue\GB_RB_4.xlsx
307	main_unc	True	0.0	795	0	2.0	2.0	1.0	1	right	2.0	1.0	1.0	1	0.0407909272611	blockFiles/set_19/main_unc/rightBlue\GB_RB_4.xlsx
308	main_unc	True	0.0	795	0	2.0	2.0	0.0	1	left	1.0	1.0	1.0	0	-0.0187467552535	blockFiles/set_19/main_unc/rightBlue\GB_RB_4.xlsx
309	main_unc	True	0.0	795	0	2.0	2.0	0.0	1	left	1.0	1.0	1.0	0	-0.011471522077899999	blockFiles/set_19/main_unc/rightBlue\GB_RB_4.xlsx
310	main_unc	True	0.0	795	0	2.0	2.0	1.0	1	right	2.0	0.0	1.0	1	0.020309906508799998	blockFiles/set_19/main_unc/rightBlue\GB_RB_4.xlsx
311	main_unc	True	0.0	795	0	2.0	2.0	0.0	1	left	1.0	1.0	1.0	0	-0.0764128578454	blockFiles/set_19/main_unc/rightBlue\GB_RB_4.xlsx
312	main_unc	True	0.0	795	0	2.0	2.0	0.0	1	left	1.0	1.0	1.0	0	-0.042991246655599995	blockFiles/set_19/main_unc/rightBlue\GB_RB_4.xlsx
313	main_unc	True	0.0	795	0	2.0	2.0	0.0	0	left	2.0	1.0	1.0	1	0.021052987780400004	blockFiles/set_19/main_unc/rightBlue\GB_RB_4.xlsx
314	main_unc	True	0.0	795	0	2.0	2.0	1.0	1	right	2.0	0.0	1.0	1	0.0517905477993	blockFiles/set_19/main_unc/rightBlue\GB_RB_4.xlsx
315	main_unc	True	0.0	795	0	2.0	2.0	0.0	1	left	1.0	0.0	1.0	0	-0.0374248179421	blockFiles/set_19/main_unc/rightBlue\GB_RB_4.xlsx
316	main_unc	True	0.0	795	0	2.0	2.0	0.0	0	left	2.0	1.0	1.0	1	0.0169551330432	blockFiles/set_19/main_unc/rightBlue\GB_RB_4.xlsx
317	main_unc	True	0.0	795	0	2.0	2.0	0.0	1	left	1.0	1.0	1.0	0	-0.0671547875181	blockFiles/set_19/main_unc/rightBlue\GB_RB_4.xlsx
318	main_unc	True	0.0	795	0	2.0	2.0	0.0	1	left	1.0	1.0	1.0	0	-0.0279168270901	blockFiles/set_19/main_unc/rightBlue\GB_RB_4.xlsx
319	main_unc	True	1.0	795	0	2.0	2.0	0.0	0	left	n/a	0.0	n/a	1	0.0140109890327	blockFiles/set_19/main_unc/rightBlue\GB_RB_4.xlsx
320	main_unc	True	1.0	795	0	2.0	2.0	1.0	1	right	n/a	0.0	n/a	1	0.057279468830699995	blockFiles/set_19/main_unc/rightBlue\GB_RB_4.xlsx
321	main_unc	True	0.0	795	0	2.0	2.0	1.0	1	right	2.0	1.0	1.0	1	0.042171431519099994	blockFiles/set_19/main_unc/rightBlue\GB_RB_4.xlsx
322	main_unc	True	0.0	795	0	2.0	2.0	0.0	1	left	1.0	1.0	1.0	0	-0.0191798408516	blockFiles/set_19/main_unc/rightBlue\GB_RB_4.xlsx
323	main_unc	True	0.0	795	0	2.0	2.0	0.0	1	left	1.0	1.0	1.0	0	-0.0414192033187	blockFiles/set_19/main_unc/rightBlue\GB_RB_4.xlsx
324	main_unc	True	0.0	795	0	2.0	2.0	0.0	0	left	1.0	0.0	0.0	1	0.00199577793479	blockFiles/set_19/main_unc/rightBlue\GB_RB_4.xlsx
325	main_unc	True	0.0	795	0	2.0	2.0	0.0	1	left	1.0	1.0	1.0	0	-0.0726558268815	blockFiles/set_19/main_unc/rightBlue\GB_RB_4.xlsx
326	main_unc	True	0.0	795	0	2.0	2.0	0.0	0	left	2.0	0.0	1.0	1	0.0361131552607	blockFiles/set_19/main_unc/rightBlue\GB_RB_4.xlsx
327	main_unc	True	0.0	795	0	2.0	2.0	1.0	1	right	2.0	1.0	1.0	1	0.0140109890327	blockFiles/set_19/main_unc/rightBlue\GB_RB_4.xlsx
328	main_unc	True	0.0	795	0	2.0	2.0	1.0	1	right	2.0	1.0	1.0	1	0.057279468830699995	blockFiles/set_19/main_unc/rightBlue\GB_RB_4.xlsx
329	main_unc	True	0.0	795	0	3.0	3.0	1.0	1	right	2.0	0.0	1.0	1	0.015120739955500001	blockFiles/set_19/main_unc/rightBlue\GB_RB_6.xlsx
330	main_unc	True	0.0	795	0	3.0	3.0	0.0	1	left	2.0	0.0	0.0	0	-0.00316105864942	blockFiles/set_19/main_unc/rightBlue\GB_RB_6.xlsx
331	main_unc	True	0.0	795	0	3.0	3.0	0.0	1	left	2.0	0.0	0.0	0	-0.053653444331099996	blockFiles/set_19/main_unc/rightBlue\GB_RB_6.xlsx
332	main_unc	True	0.0	795	0	3.0	3.0	0.0	1	left	1.0	1.0	1.0	0	-0.0608474888466	blockFiles/set_19/main_unc/rightBlue\GB_RB_6.xlsx
333	main_unc	True	0.0	795	0	3.0	3.0	0.0	1	left	1.0	0.0	1.0	0	-0.0315197782591	blockFiles/set_19/main_unc/rightBlue\GB_RB_6.xlsx
334	main_unc	True	0.0	795	0	3.0	3.0	1.0	1	right	2.0	0.0	1.0	1	0.0503028227389	blockFiles/set_19/main_unc/rightBlue\GB_RB_6.xlsx
335	main_unc	True	1.0	795	0	3.0	3.0	0.0	1	left	n/a	0.0	n/a	0	-0.0439265761152	blockFiles/set_19/main_unc/rightBlue\GB_RB_6.xlsx
336	main_unc	True	0.0	795	0	3.0	3.0	0.0	1	left	1.0	1.0	1.0	0	-0.0029558188095700003	blockFiles/set_19/main_unc/rightBlue\GB_RB_6.xlsx
337	main_unc	True	0.0	795	0	3.0	3.0	1.0	1	right	2.0	1.0	1.0	1	0.050589509420099994	blockFiles/set_19/main_unc/rightBlue\GB_RB_6.xlsx
338	main_unc	True	0.0	795	0	3.0	3.0	1.0	1	right	2.0	1.0	1.0	1	0.0677393048257	blockFiles/set_19/main_unc/rightBlue\GB_RB_6.xlsx
339	main_unc	True	0.0	795	0	3.0	3.0	0.0	1	left	1.0	1.0	1.0	0	-0.0429222791456	blockFiles/set_19/main_unc/rightBlue\GB_RB_6.xlsx
340	main_unc	True	0.0	795	0	3.0	3.0	0.0	1	left	1.0	1.0	1.0	0	-0.0390177758783	blockFiles/set_19/main_unc/rightBlue\GB_RB_6.xlsx
341	main_unc	True	0.0	795	0	3.0	3.0	0.0	0	left	1.0	0.0	0.0	1	0.00564790343866	blockFiles/set_19/main_unc/rightBlue\GB_RB_6.xlsx
342	main_unc	True	0.0	795	0	3.0	3.0	0.0	1	left	1.0	1.0	1.0	0	-0.0278392321616	blockFiles/set_19/main_unc/rightBlue\GB_RB_6.xlsx
343	main_unc	True	0.0	795	0	3.0	3.0	1.0	1	right	2.0	1.0	1.0	1	0.044699433315500005	blockFiles/set_19/main_unc/rightBlue\GB_RB_6.xlsx
344	main_unc	True	0.0	795	0	3.0	3.0	0.0	1	left	1.0	1.0	1.0	0	-0.035047194045	blockFiles/set_19/main_unc/rightBlue\GB_RB_6.xlsx
345	main_unc	True	0.0	795	0	3.0	3.0	1.0	1	right	2.0	0.0	1.0	1	0.0729039138183	blockFiles/set_19/main_unc/rightBlue\GB_RB_6.xlsx
346	main_unc	True	0.0	795	0	3.0	3.0	1.0	1	right	2.0	1.0	1.0	1	0.0750554186851	blockFiles/set_19/main_unc/rightBlue\GB_RB_6.xlsx
347	main_unc	True	0.0	795	0	3.0	3.0	1.0	1	right	2.0	1.0	1.0	1	0.054398098569400005	blockFiles/set_19/main_unc/rightBlue\GB_RB_6.xlsx
348	main_unc	True	0.0	795	0	3.0	3.0	0.0	1	left	1.0	0.0	1.0	0	-0.0277250678092	blockFiles/set_19/main_unc/rightBlue\GB_RB_6.xlsx
349	main_unc	True	0.0	795	0	3.0	3.0	1.0	1	right	2.0	1.0	1.0	1	0.0279850392044	blockFiles/set_19/main_unc/rightBlue\GB_RB_6.xlsx
350	main_unc	True	0.0	795	0	3.0	3.0	0.0	1	left	1.0	1.0	1.0	0	-0.023124849423799998	blockFiles/set_19/main_unc/rightBlue\GB_RB_6.xlsx
351	main_unc	True	0.0	795	0	3.0	3.0	1.0	1	right	2.0	1.0	1.0	1	0.0793702436239	blockFiles/set_19/main_unc/rightBlue\GB_RB_6.xlsx
352	main_unc	True	0.0	795	0	3.0	3.0	1.0	1	right	2.0	1.0	1.0	1	0.0122122052126	blockFiles/set_19/main_unc/rightBlue\GB_RB_6.xlsx
353	main_unc	True	0.0	795	0	3.0	3.0	1.0	1	right	2.0	1.0	1.0	1	0.0316896180436	blockFiles/set_19/main_unc/rightBlue\GB_RB_6.xlsx
354	main_unc	True	0.0	795	0	3.0	3.0	0.0	1	left	1.0	1.0	1.0	0	-0.0439265761152	blockFiles/set_19/main_unc/rightBlue\GB_RB_6.xlsx
355	main_unc	True	1.0	795	0	4.0	4.0	n/a	0	None	n/a	0.0	n/a	1	0.009379451759160001	blockFiles/set_19/main_unc/leftBlue\GB_LB_4.xlsx
356	main_unc	True	0.0	795	0	4.0	4.0	1.0	1	right	1.0	1.0	1.0	1	0.050909412931699996	blockFiles/set_19/main_unc/leftBlue\GB_LB_4.xlsx
357	main_unc	True	0.0	795	0	4.0	4.0	0.0	1	left	2.0	1.0	1.0	0	-0.041563661135699995	blockFiles/set_19/main_unc/leftBlue\GB_LB_4.xlsx
358	main_unc	True	0.0	795	0	4.0	4.0	1.0	0	right	2.0	1.0	1.0	0	-0.0277998851798	blockFiles/set_19/main_unc/leftBlue\GB_LB_4.xlsx
359	main_unc	True	1.0	795	0	4.0	4.0	n/a	0	None	n/a	0.0	n/a	1	0.0018444830179200002	blockFiles/set_19/main_unc/leftBlue\GB_LB_4.xlsx
360	main_unc	True	0.0	795	0	4.0	4.0	1.0	1	right	1.0	1.0	1.0	1	0.059845460373900004	blockFiles/set_19/main_unc/leftBlue\GB_LB_4.xlsx
361	main_unc	True	0.0	795	0	4.0	4.0	0.0	1	left	2.0	1.0	1.0	0	-0.0597042651661	blockFiles/set_19/main_unc/leftBlue\GB_LB_4.xlsx
362	main_unc	True	0.0	795	0	4.0	4.0	0.0	1	left	2.0	1.0	1.0	0	-0.0365944047831	blockFiles/set_19/main_unc/leftBlue\GB_LB_4.xlsx
363	main_unc	True	0.0	795	0	4.0	4.0	1.0	1	right	1.0	1.0	1.0	1	0.031075261049000002	blockFiles/set_19/main_unc/leftBlue\GB_LB_4.xlsx
364	main_unc	True	0.0	795	0	4.0	4.0	0.0	1	left	2.0	0.0	1.0	0	-0.0331731496193	blockFiles/set_19/main_unc/leftBlue\GB_LB_4.xlsx
365	main_unc	True	0.0	795	0	4.0	4.0	1.0	0	right	1.0	0.0	0.0	0	-0.0046326659061	blockFiles/set_19/main_unc/leftBlue\GB_LB_4.xlsx
366	main_unc	True	0.0	795	0	4.0	4.0	1.0	0	right	1.0	1.0	0.0	0	-0.0199506366812	blockFiles/set_19/main_unc/leftBlue\GB_LB_4.xlsx
367	main_unc	True	0.0	795	0	4.0	4.0	1.0	1	right	1.0	0.0	1.0	1	0.07496658094229999	blockFiles/set_19/main_unc/leftBlue\GB_LB_4.xlsx
368	main_unc	True	0.0	795	0	4.0	4.0	1.0	1	right	1.0	1.0	1.0	1	0.07675962502139999	blockFiles/set_19/main_unc/leftBlue\GB_LB_4.xlsx
369	main_unc	True	1.0	795	0	4.0	4.0	n/a	0	None	n/a	0.0	n/a	0	-0.043634077329199994	blockFiles/set_19/main_unc/leftBlue\GB_LB_4.xlsx
370	main_unc	True	0.0	795	0	4.0	4.0	1.0	1	right	1.0	1.0	1.0	1	0.014942132104200001	blockFiles/set_19/main_unc/leftBlue\GB_LB_4.xlsx
371	main_unc	True	0.0	795	0	4.0	4.0	0.0	1	left	2.0	1.0	1.0	0	-0.043491791915100005	blockFiles/set_19/main_unc/leftBlue\GB_LB_4.xlsx
372	main_unc	True	0.0	795	0	4.0	4.0	1.0	1	right	1.0	0.0	1.0	1	0.0328517083265	blockFiles/set_19/main_unc/leftBlue\GB_LB_4.xlsx
373	main_unc	True	0.0	795	0	4.0	4.0	1.0	1	right	1.0	1.0	1.0	1	0.04307243818419999	blockFiles/set_19/main_unc/leftBlue\GB_LB_4.xlsx
374	main_unc	True	0.0	795	0	4.0	4.0	1.0	1	right	1.0	1.0	1.0	1	0.0632332171127	blockFiles/set_19/main_unc/leftBlue\GB_LB_4.xlsx
375	main_unc	True	0.0	795	0	4.0	4.0	0.0	0	left	2.0	0.0	0.0	1	0.0033123821206399997	blockFiles/set_19/main_unc/leftBlue\GB_LB_4.xlsx
376	main_unc	True	0.0	795	0	4.0	4.0	0.0	1	left	2.0	0.0	1.0	0	-0.0739550256915	blockFiles/set_19/main_unc/leftBlue\GB_LB_4.xlsx
377	main_unc	True	0.0	795	0	4.0	4.0	1.0	0	right	1.0	0.0	0.0	0	-0.00635528208688	blockFiles/set_19/main_unc/leftBlue\GB_LB_4.xlsx
378	main_unc	True	0.0	795	0	4.0	4.0	1.0	0	right	2.0	1.0	1.0	0	-0.030548999793799998	blockFiles/set_19/main_unc/leftBlue\GB_LB_4.xlsx
379	main_unc	True	0.0	795	0	4.0	4.0	0.0	1	left	2.0	1.0	1.0	0	-0.0624644362926	blockFiles/set_19/main_unc/leftBlue\GB_LB_4.xlsx
380	main_unc	True	0.0	795	0	4.0	4.0	1.0	1	right	1.0	1.0	1.0	1	0.009379451759160001	blockFiles/set_19/main_unc/leftBlue\GB_LB_4.xlsx
381	main_unc	True	0.0	795	0	4.0	4.0	0.0	0	left	1.0	1.0	1.0	1	0.0018444830179200002	blockFiles/set_19/main_unc/leftBlue\GB_LB_4.xlsx
382	main_unc	True	0.0	795	0	4.0	4.0	0.0	1	left	2.0	1.0	1.0	0	-0.043634077329199994	blockFiles/set_19/main_unc/leftBlue\GB_LB_4.xlsx
383	main_unc	True	0.0	795	0	5.0	5.0	1.0	1	right	1.0	0.0	1.0	1	0.0504792455398	blockFiles/set_19/main_unc/leftBlue\GB_LB_6.xlsx
384	main_unc	True	0.0	795	0	5.0	5.0	0.0	1	left	1.0	0.0	0.0	0	-0.05169652687390001	blockFiles/set_19/main_unc/leftBlue\GB_LB_6.xlsx
385	main_unc	True	0.0	795	0	5.0	5.0	1.0	1	right	2.0	0.0	0.0	1	0.0520149378106	blockFiles/set_19/main_unc/leftBlue\GB_LB_6.xlsx
386	main_unc	True	0.0	795	0	5.0	5.0	1.0	0	right	2.0	0.0	1.0	0	-0.0267931481265	blockFiles/set_19/main_unc/leftBlue\GB_LB_6.xlsx
387	main_unc	True	0.0	795	0	5.0	5.0	0.0	1	left	2.0	1.0	1.0	0	-0.0031742329150400003	blockFiles/set_19/main_unc/leftBlue\GB_LB_6.xlsx
388	main_unc	True	0.0	795	0	5.0	5.0	0.0	1	left	2.0	1.0	1.0	0	-0.0506177879125	blockFiles/set_19/main_unc/leftBlue\GB_LB_6.xlsx
389	main_unc	True	0.0	795	0	5.0	5.0	0.0	1	left	2.0	1.0	1.0	0	-0.0629954180121	blockFiles/set_19/main_unc/leftBlue\GB_LB_6.xlsx
390	main_unc	True	0.0	795	0	5.0	5.0	0.0	1	left	2.0	0.0	1.0	0	-0.0758239149675	blockFiles/set_19/main_unc/leftBlue\GB_LB_6.xlsx
391	main_unc	True	0.0	795	0	5.0	5.0	0.0	0	left	2.0	0.0	0.0	1	0.0151552674361	blockFiles/set_19/main_unc/leftBlue\GB_LB_6.xlsx
392	main_unc	True	0.0	795	0	5.0	5.0	1.0	1	right	1.0	1.0	1.0	1	0.0710388826951	blockFiles/set_19/main_unc/leftBlue\GB_LB_6.xlsx
393	main_unc	True	0.0	795	0	5.0	5.0	1.0	1	right	1.0	1.0	1.0	1	0.0133187457174	blockFiles/set_19/main_unc/leftBlue\GB_LB_6.xlsx
394	main_unc	True	0.0	795	0	5.0	5.0	1.0	1	right	1.0	1.0	1.0	1	0.041528700757800005	blockFiles/set_19/main_unc/leftBlue\GB_LB_6.xlsx
395	main_unc	True	0.0	795	0	5.0	5.0	1.0	0	right	1.0	0.0	0.0	0	-0.00468287931755	blockFiles/set_19/main_unc/leftBlue\GB_LB_6.xlsx
396	main_unc	True	0.0	795	0	5.0	5.0	1.0	1	right	1.0	1.0	1.0	1	0.0759410453588	blockFiles/set_19/main_unc/leftBlue\GB_LB_6.xlsx
397	main_unc	True	0.0	795	0	5.0	5.0	0.0	1	left	2.0	1.0	1.0	0	-0.0250866117515	blockFiles/set_19/main_unc/leftBlue\GB_LB_6.xlsx
398	main_unc	True	0.0	795	0	5.0	5.0	0.0	1	left	2.0	0.0	1.0	0	-0.0333804027364	blockFiles/set_19/main_unc/leftBlue\GB_LB_6.xlsx
399	main_unc	True	0.0	795	0	5.0	5.0	1.0	1	right	1.0	1.0	1.0	1	0.061031849440199994	blockFiles/set_19/main_unc/leftBlue\GB_LB_6.xlsx
400	main_unc	True	0.0	795	0	5.0	5.0	1.0	1	right	1.0	1.0	1.0	1	0.0685938260891	blockFiles/set_19/main_unc/leftBlue\GB_LB_6.xlsx
401	main_unc	True	0.0	795	0	5.0	5.0	1.0	1	right	1.0	1.0	1.0	1	0.0356194077246	blockFiles/set_19/main_unc/leftBlue\GB_LB_6.xlsx
402	main_unc	True	0.0	795	0	5.0	5.0	0.0	1	left	2.0	1.0	1.0	0	-0.0507055526413	blockFiles/set_19/main_unc/leftBlue\GB_LB_6.xlsx
403	main_unc	True	0.0	795	0	5.0	5.0	0.0	0	left	2.0	0.0	0.0	1	0.0127487378195	blockFiles/set_19/main_unc/leftBlue\GB_LB_6.xlsx
404	main_unc	True	0.0	795	0	5.0	5.0	1.0	1	right	1.0	1.0	1.0	1	0.0216600357369	blockFiles/set_19/main_unc/leftBlue\GB_LB_6.xlsx
405	main_unc	True	0.0	795	0	5.0	5.0	1.0	1	right	1.0	0.0	1.0	1	0.0638093543984	blockFiles/set_19/main_unc/leftBlue\GB_LB_6.xlsx
406	main_unc	True	0.0	795	0	5.0	5.0	0.0	1	left	2.0	1.0	1.0	0	-0.059579809606099994	blockFiles/set_19/main_unc/leftBlue\GB_LB_6.xlsx
407	main_unc	True	0.0	795	0	5.0	5.0	0.0	1	left	2.0	1.0	1.0	0	-0.0390762049332	blockFiles/set_19/main_unc/leftBlue\GB_LB_6.xlsx
408	main_unc	True	0.0	795	0	6.0	6.0	0.0	1	left	2.0	1.0	1.0	0	-0.0316257003136	blockFiles/set_19/main_unc/leftBlue\GB_LB_3.xlsx
409	main_unc	True	0.0	795	0	6.0	6.0	0.0	0	left	2.0	0.0	0.0	1	0.008246698975560001	blockFiles/set_19/main_unc/leftBlue\GB_LB_3.xlsx
410	main_unc	True	0.0	795	0	6.0	6.0	0.0	1	left	2.0	1.0	1.0	0	-0.0295104074106	blockFiles/set_19/main_unc/leftBlue\GB_LB_3.xlsx
411	main_unc	True	0.0	795	0	6.0	6.0	1.0	1	right	1.0	1.0	1.0	1	0.0517171259969	blockFiles/set_19/main_unc/leftBlue\GB_LB_3.xlsx
412	main_unc	True	0.0	795	0	6.0	6.0	0.0	1	left	2.0	1.0	1.0	0	-0.07239896997810001	blockFiles/set_19/main_unc/leftBlue\GB_LB_3.xlsx
413	main_unc	True	0.0	795	0	6.0	6.0	1.0	0	right	2.0	1.0	1.0	0	-0.025215334109999998	blockFiles/set_19/main_unc/leftBlue\GB_LB_3.xlsx
414	main_unc	True	0.0	795	0	6.0	6.0	0.0	0	left	2.0	1.0	0.0	1	0.0426592830196	blockFiles/set_19/main_unc/leftBlue\GB_LB_3.xlsx
415	main_unc	True	0.0	795	0	6.0	6.0	0.0	1	left	2.0	1.0	1.0	0	-0.0697184133157	blockFiles/set_19/main_unc/leftBlue\GB_LB_3.xlsx
416	main_unc	True	0.0	795	0	6.0	6.0	1.0	1	right	1.0	1.0	1.0	1	0.0460659437627	blockFiles/set_19/main_unc/leftBlue\GB_LB_3.xlsx
417	main_unc	True	0.0	795	0	6.0	6.0	0.0	1	left	2.0	1.0	1.0	0	-0.013293061554399998	blockFiles/set_19/main_unc/leftBlue\GB_LB_3.xlsx
418	main_unc	True	0.0	795	0	6.0	6.0	1.0	1	right	1.0	1.0	1.0	1	0.0329540456645	blockFiles/set_19/main_unc/leftBlue\GB_LB_3.xlsx
419	main_unc	True	0.0	795	0	6.0	6.0	0.0	1	left	2.0	0.0	1.0	0	-0.0454209512658	blockFiles/set_19/main_unc/leftBlue\GB_LB_3.xlsx
420	main_unc	True	0.0	795	0	6.0	6.0	1.0	1	right	2.0	0.0	0.0	1	0.005767297782	blockFiles/set_19/main_unc/leftBlue\GB_LB_3.xlsx
421	main_unc	True	0.0	795	0	6.0	6.0	0.0	1	left	2.0	1.0	1.0	0	-0.0565711119771	blockFiles/set_19/main_unc/leftBlue\GB_LB_3.xlsx
422	main_unc	True	0.0	795	0	6.0	6.0	1.0	1	right	1.0	1.0	1.0	1	0.053244019634999994	blockFiles/set_19/main_unc/leftBlue\GB_LB_3.xlsx
423	main_unc	True	0.0	795	0	6.0	6.0	1.0	1	right	1.0	0.0	1.0	1	0.05531995326280001	blockFiles/set_19/main_unc/leftBlue\GB_LB_3.xlsx
424	main_unc	True	0.0	795	0	6.0	6.0	1.0	1	right	1.0	1.0	1.0	1	0.0718457166106	blockFiles/set_19/main_unc/leftBlue\GB_LB_3.xlsx
425	main_unc	True	0.0	795	0	6.0	6.0	0.0	1	left	2.0	1.0	1.0	0	-0.045255180262000004	blockFiles/set_19/main_unc/leftBlue\GB_LB_3.xlsx
426	main_unc	True	0.0	795	0	6.0	6.0	1.0	1	right	1.0	1.0	1.0	1	0.0259512103721	blockFiles/set_19/main_unc/leftBlue\GB_LB_3.xlsx
427	main_unc	True	0.0	795	0	6.0	6.0	0.0	1	left	2.0	1.0	1.0	0	-0.0173979597166	blockFiles/set_19/main_unc/leftBlue\GB_LB_3.xlsx
428	main_unc	True	0.0	795	0	6.0	6.0	0.0	1	left	2.0	1.0	1.0	0	-0.0660239689052	blockFiles/set_19/main_unc/leftBlue\GB_LB_3.xlsx
429	main_unc	True	0.0	795	0	6.0	6.0	0.0	0	left	2.0	0.0	0.0	1	0.0135274839401	blockFiles/set_19/main_unc/leftBlue\GB_LB_3.xlsx
430	main_unc	True	0.0	795	0	6.0	6.0	1.0	1	right	1.0	1.0	1.0	1	0.06469363516200001	blockFiles/set_19/main_unc/leftBlue\GB_LB_3.xlsx
431	main_unc	True	0.0	795	0	6.0	6.0	1.0	1	right	1.0	1.0	1.0	1	0.0785583470203	blockFiles/set_19/main_unc/leftBlue\GB_LB_3.xlsx
432	main_unc	True	0.0	795	0	6.0	6.0	0.0	1	left	2.0	0.0	1.0	0	-0.039724028483	blockFiles/set_19/main_unc/leftBlue\GB_LB_3.xlsx
433	main_unc	True	1.0	795	0	7.0	7.0	n/a	0	None	n/a	0.0	n/a	1	0.017279800921700002	blockFiles/set_19/main_unc/rightBlue\GB_RB_1.xlsx
434	main_unc	True	0.0	795	0	7.0	7.0	0.0	1	left	2.0	0.0	0.0	0	-0.0395222345926	blockFiles/set_19/main_unc/rightBlue\GB_RB_1.xlsx
435	main_unc	True	0.0	795	0	7.0	7.0	0.0	1	left	1.0	1.0	1.0	0	-0.0695315613225	blockFiles/set_19/main_unc/rightBlue\GB_RB_1.xlsx
436	main_unc	True	0.0	795	0	7.0	7.0	0.0	1	left	1.0	1.0	1.0	0	-0.0139329543151	blockFiles/set_19/main_unc/rightBlue\GB_RB_1.xlsx
437	main_unc	True	1.0	795	0	7.0	7.0	0.0	0	left	n/a	0.0	n/a	1	0.0695093932003	blockFiles/set_19/main_unc/rightBlue\GB_RB_1.xlsx
438	main_unc	True	0.0	795	0	7.0	7.0	0.0	1	left	1.0	1.0	1.0	0	-0.0339184407331	blockFiles/set_19/main_unc/rightBlue\GB_RB_1.xlsx
439	main_unc	True	0.0	795	0	7.0	7.0	0.0	1	left	1.0	1.0	1.0	0	-0.00853425815701	blockFiles/set_19/main_unc/rightBlue\GB_RB_1.xlsx
440	main_unc	True	0.0	795	0	7.0	7.0	1.0	1	right	2.0	1.0	1.0	1	0.0313768197037	blockFiles/set_19/main_unc/rightBlue\GB_RB_1.xlsx
441	main_unc	True	0.0	795	0	7.0	7.0	0.0	1	left	1.0	0.0	1.0	0	-0.0230659293756	blockFiles/set_19/main_unc/rightBlue\GB_RB_1.xlsx
442	main_unc	True	0.0	795	0	7.0	7.0	0.0	0	left	2.0	0.0	1.0	1	0.0313533225097	blockFiles/set_19/main_unc/rightBlue\GB_RB_1.xlsx
443	main_unc	True	0.0	795	0	7.0	7.0	0.0	1	left	1.0	1.0	1.0	0	-0.0762013010867	blockFiles/set_19/main_unc/rightBlue\GB_RB_1.xlsx
444	main_unc	True	0.0	795	0	7.0	7.0	0.0	1	left	1.0	1.0	1.0	0	-0.0434132782556	blockFiles/set_19/main_unc/rightBlue\GB_RB_1.xlsx
445	main_unc	True	0.0	795	0	7.0	7.0	1.0	0	right	2.0	0.0	0.0	0	-0.00176510287449	blockFiles/set_19/main_unc/rightBlue\GB_RB_1.xlsx
446	main_unc	True	0.0	795	0	7.0	7.0	1.0	1	right	2.0	1.0	1.0	1	0.0331024204753	blockFiles/set_19/main_unc/rightBlue\GB_RB_1.xlsx
447	main_unc	True	0.0	795	0	7.0	7.0	0.0	1	left	1.0	1.0	1.0	0	-0.060616326388	blockFiles/set_19/main_unc/rightBlue\GB_RB_1.xlsx
448	main_unc	True	0.0	795	0	7.0	7.0	1.0	1	right	2.0	0.0	1.0	1	0.0636731078103	blockFiles/set_19/main_unc/rightBlue\GB_RB_1.xlsx
449	main_unc	True	0.0	795	0	7.0	7.0	0.0	1	left	1.0	1.0	1.0	0	-0.04195760039609999	blockFiles/set_19/main_unc/rightBlue\GB_RB_1.xlsx
450	main_unc	True	0.0	795	0	7.0	7.0	1.0	1	right	2.0	1.0	1.0	1	0.06580146892000001	blockFiles/set_19/main_unc/rightBlue\GB_RB_1.xlsx
451	main_unc	True	0.0	795	0	7.0	7.0	1.0	1	right	2.0	1.0	1.0	1	0.0626253658719	blockFiles/set_19/main_unc/rightBlue\GB_RB_1.xlsx
452	main_unc	True	0.0	795	0	7.0	7.0	1.0	0	right	1.0	1.0	1.0	0	-0.0218845544755	blockFiles/set_19/main_unc/rightBlue\GB_RB_1.xlsx
453	main_unc	True	0.0	795	0	7.0	7.0	1.0	0	right	2.0	0.0	0.0	0	-0.006396819595249999	blockFiles/set_19/main_unc/rightBlue\GB_RB_1.xlsx
454	main_unc	True	0.0	795	0	7.0	7.0	0.0	0	left	1.0	0.0	0.0	1	0.0097635108605	blockFiles/set_19/main_unc/rightBlue\GB_RB_1.xlsx
455	main_unc	True	0.0	795	0	7.0	7.0	0.0	0	left	2.0	1.0	1.0	1	0.0335328690335	blockFiles/set_19/main_unc/rightBlue\GB_RB_1.xlsx
456	main_unc	True	0.0	795	0	7.0	7.0	1.0	1	right	2.0	0.0	1.0	1	0.0639990856498	blockFiles/set_19/main_unc/rightBlue\GB_RB_1.xlsx
457	main_unc	True	0.0	795	0	7.0	7.0	1.0	1	right	2.0	1.0	1.0	1	0.0786264214292	blockFiles/set_19/main_unc/rightBlue\GB_RB_1.xlsx
458	main_unc	True	0.0	795	0	7.0	7.0	1.0	1	right	2.0	1.0	1.0	1	0.017279800921700002	blockFiles/set_19/main_unc/rightBlue\GB_RB_1.xlsx
459	main_unc	True	0.0	795	0	7.0	7.0	1.0	1	right	2.0	0.0	1.0	1	0.0695093932003	blockFiles/set_19/main_unc/rightBlue\GB_RB_1.xlsx
460	main_unc	True	0.0	795	0	8.0	8.0	1.0	1	right	1.0	1.0	1.0	1	0.045063195899099996	blockFiles/set_19/main_unc/leftBlue\GB_LB_1.xlsx
461	main_unc	True	0.0	795	0	8.0	8.0	0.0	1	left	2.0	1.0	1.0	0	-0.0655618353933	blockFiles/set_19/main_unc/leftBlue\GB_LB_1.xlsx
462	main_unc	True	0.0	795	0	8.0	8.0	0.0	1	left	2.0	1.0	1.0	0	-0.0417252384871	blockFiles/set_19/main_unc/leftBlue\GB_LB_1.xlsx
463	main_unc	True	0.0	795	0	8.0	8.0	1.0	1	right	1.0	0.0	1.0	1	0.0726099370979	blockFiles/set_19/main_unc/leftBlue\GB_LB_1.xlsx
464	main_unc	True	0.0	795	0	8.0	8.0	1.0	1	right	1.0	1.0	1.0	1	0.00260897973552	blockFiles/set_19/main_unc/leftBlue\GB_LB_1.xlsx
465	main_unc	True	0.0	795	0	8.0	8.0	0.0	1	left	2.0	1.0	1.0	0	-0.018547055665400002	blockFiles/set_19/main_unc/leftBlue\GB_LB_1.xlsx
466	main_unc	True	0.0	795	0	8.0	8.0	0.0	1	left	2.0	1.0	1.0	0	-0.022247530967000002	blockFiles/set_19/main_unc/leftBlue\GB_LB_1.xlsx
467	main_unc	True	0.0	795	0	8.0	8.0	0.0	1	left	2.0	1.0	1.0	0	-0.0717138105445	blockFiles/set_19/main_unc/leftBlue\GB_LB_1.xlsx
468	main_unc	True	0.0	795	0	8.0	8.0	1.0	1	right	1.0	1.0	1.0	1	0.07196467500180001	blockFiles/set_19/main_unc/leftBlue\GB_LB_1.xlsx
469	main_unc	True	0.0	795	0	8.0	8.0	1.0	1	right	1.0	1.0	1.0	1	0.0586268315651	blockFiles/set_19/main_unc/leftBlue\GB_LB_1.xlsx
470	main_unc	True	0.0	795	0	8.0	8.0	0.0	1	left	2.0	1.0	1.0	0	-0.0424240170792	blockFiles/set_19/main_unc/leftBlue\GB_LB_1.xlsx
471	main_unc	True	1.0	795	0	8.0	8.0	n/a	0	None	n/a	0.0	n/a	1	0.048034480232699996	blockFiles/set_19/main_unc/leftBlue\GB_LB_1.xlsx
472	main_unc	True	0.0	795	0	8.0	8.0	0.0	1	left	2.0	1.0	1.0	0	-0.0411574678123	blockFiles/set_19/main_unc/leftBlue\GB_LB_1.xlsx
473	main_unc	True	0.0	795	0	8.0	8.0	1.0	1	right	1.0	0.0	1.0	1	0.039702428393099995	blockFiles/set_19/main_unc/leftBlue\GB_LB_1.xlsx
474	main_unc	True	0.0	795	0	8.0	8.0	0.0	1	left	2.0	1.0	1.0	0	-0.0166822935268	blockFiles/set_19/main_unc/leftBlue\GB_LB_1.xlsx
475	main_unc	True	0.0	795	0	8.0	8.0	1.0	1	right	1.0	1.0	1.0	1	0.048445091918099994	blockFiles/set_19/main_unc/leftBlue\GB_LB_1.xlsx
476	main_unc	True	0.0	795	0	8.0	8.0	0.0	1	left	2.0	1.0	1.0	0	-0.054900283739	blockFiles/set_19/main_unc/leftBlue\GB_LB_1.xlsx
477	main_unc	True	0.0	795	0	8.0	8.0	0.0	1	left	2.0	1.0	1.0	0	-0.0602212091349	blockFiles/set_19/main_unc/leftBlue\GB_LB_1.xlsx
478	main_unc	True	0.0	795	0	8.0	8.0	0.0	1	left	2.0	1.0	1.0	0	-0.07321224015210001	blockFiles/set_19/main_unc/leftBlue\GB_LB_1.xlsx
479	main_unc	True	0.0	795	0	8.0	8.0	0.0	1	left	2.0	1.0	1.0	0	-0.051098548024900006	blockFiles/set_19/main_unc/leftBlue\GB_LB_1.xlsx
480	main_unc	True	0.0	795	0	8.0	8.0	1.0	1	right	1.0	1.0	1.0	1	0.0148960435577	blockFiles/set_19/main_unc/leftBlue\GB_LB_1.xlsx
481	main_unc	True	0.0	795	0	8.0	8.0	0.0	0	left	1.0	1.0	1.0	1	0.027499194145200002	blockFiles/set_19/main_unc/leftBlue\GB_LB_1.xlsx
482	main_unc	True	0.0	795	0	8.0	8.0	0.0	0	left	1.0	1.0	1.0	1	0.0399362384714	blockFiles/set_19/main_unc/leftBlue\GB_LB_1.xlsx
483	main_unc	True	0.0	795	0	8.0	8.0	0.0	1	left	2.0	1.0	1.0	0	-0.0643185973354	blockFiles/set_19/main_unc/leftBlue\GB_LB_1.xlsx
484	main_unc	True	0.0	795	0	8.0	8.0	1.0	1	right	1.0	0.0	1.0	1	0.0631187310442	blockFiles/set_19/main_unc/leftBlue\GB_LB_1.xlsx
485	main_unc	True	0.0	795	0	8.0	8.0	1.0	1	right	1.0	0.0	1.0	1	0.048034480232699996	blockFiles/set_19/main_unc/leftBlue\GB_LB_1.xlsx
486	main_unc	True	0.0	795	0	9.0	9.0	0.0	1	left	2.0	1.0	0.0	0	-0.0401053161733	blockFiles/set_19/main_unc/rightBlue\GB_RB_3.xlsx
487	main_unc	True	0.0	795	0	9.0	9.0	1.0	1	right	1.0	0.0	0.0	1	0.0640407780372	blockFiles/set_19/main_unc/rightBlue\GB_RB_3.xlsx
488	main_unc	True	0.0	795	0	9.0	9.0	1.0	0	right	1.0	1.0	1.0	0	-0.0165128607303	blockFiles/set_19/main_unc/rightBlue\GB_RB_3.xlsx
489	main_unc	True	0.0	795	0	9.0	9.0	1.0	1	right	1.0	0.0	0.0	1	0.0449413037859	blockFiles/set_19/main_unc/rightBlue\GB_RB_3.xlsx
490	main_unc	True	0.0	795	0	9.0	9.0	1.0	1	right	1.0	1.0	0.0	1	0.0419097251631	blockFiles/set_19/main_unc/rightBlue\GB_RB_3.xlsx
491	main_unc	True	0.0	795	0	9.0	9.0	1.0	1	right	1.0	0.0	0.0	1	0.051063872463999994	blockFiles/set_19/main_unc/rightBlue\GB_RB_3.xlsx
492	main_unc	True	0.0	795	0	9.0	9.0	0.0	1	left	2.0	0.0	0.0	0	-0.07772024029869999	blockFiles/set_19/main_unc/rightBlue\GB_RB_3.xlsx
493	main_unc	True	0.0	795	0	9.0	9.0	1.0	1	right	2.0	1.0	1.0	1	0.046662209201600004	blockFiles/set_19/main_unc/rightBlue\GB_RB_3.xlsx
494	main_unc	True	0.0	795	0	9.0	9.0	1.0	1	right	2.0	1.0	1.0	1	0.0279977432452	blockFiles/set_19/main_unc/rightBlue\GB_RB_3.xlsx
495	main_unc	True	0.0	795	0	9.0	9.0	0.0	1	left	1.0	0.0	1.0	0	-0.054145144279999995	blockFiles/set_19/main_unc/rightBlue\GB_RB_3.xlsx
496	main_unc	True	0.0	795	0	9.0	9.0	0.0	1	left	1.0	0.0	1.0	0	-0.038387064468099995	blockFiles/set_19/main_unc/rightBlue\GB_RB_3.xlsx
497	main_unc	True	0.0	795	0	9.0	9.0	0.0	1	left	1.0	1.0	1.0	0	-0.007541816849260001	blockFiles/set_19/main_unc/rightBlue\GB_RB_3.xlsx
498	main_unc	True	0.0	795	0	9.0	9.0	1.0	1	right	2.0	1.0	1.0	1	0.050797350443900005	blockFiles/set_19/main_unc/rightBlue\GB_RB_3.xlsx
499	main_unc	True	0.0	795	0	9.0	9.0	1.0	1	right	2.0	1.0	1.0	1	0.026853000167799998	blockFiles/set_19/main_unc/rightBlue\GB_RB_3.xlsx
500	main_unc	True	0.0	795	0	9.0	9.0	1.0	1	right	2.0	1.0	1.0	1	0.0712713077851	blockFiles/set_19/main_unc/rightBlue\GB_RB_3.xlsx
501	main_unc	True	0.0	795	0	9.0	9.0	1.0	0	right	2.0	0.0	0.0	0	-0.0070437791571000006	blockFiles/set_19/main_unc/rightBlue\GB_RB_3.xlsx
502	main_unc	True	0.0	795	0	9.0	9.0	0.0	1	left	1.0	1.0	1.0	0	-0.04880943072959999	blockFiles/set_19/main_unc/rightBlue\GB_RB_3.xlsx
503	main_unc	True	0.0	795	0	9.0	9.0	0.0	1	left	1.0	1.0	1.0	0	-0.0717741599306	blockFiles/set_19/main_unc/rightBlue\GB_RB_3.xlsx
504	main_unc	True	0.0	795	0	9.0	9.0	1.0	1	right	2.0	1.0	1.0	1	0.0504569008201	blockFiles/set_19/main_unc/rightBlue\GB_RB_3.xlsx
505	main_unc	True	0.0	795	0	9.0	9.0	0.0	1	left	1.0	1.0	1.0	0	-0.00637616287917	blockFiles/set_19/main_unc/rightBlue\GB_RB_3.xlsx
506	main_unc	True	0.0	795	0	9.0	9.0	1.0	1	right	2.0	1.0	1.0	1	0.04966611675919999	blockFiles/set_19/main_unc/rightBlue\GB_RB_3.xlsx
507	main_unc	True	0.0	795	0	9.0	9.0	0.0	1	left	1.0	1.0	1.0	0	-0.0367888693511	blockFiles/set_19/main_unc/rightBlue\GB_RB_3.xlsx
508	main_unc	True	0.0	795	0	9.0	9.0	1.0	1	right	2.0	1.0	1.0	1	0.0651295657828	blockFiles/set_19/main_unc/rightBlue\GB_RB_3.xlsx
509	main_unc	True	0.0	795	0	9.0	9.0	0.0	1	left	1.0	1.0	1.0	0	-0.0693740128167	blockFiles/set_19/main_unc/rightBlue\GB_RB_3.xlsx
510	main_unc	True	0.0	795	0	9.0	9.0	1.0	1	right	2.0	0.0	1.0	1	0.016197744663799998	blockFiles/set_19/main_unc/rightBlue\GB_RB_3.xlsx
511	main_unc	True	1.0	795	0	10.0	10.0	n/a	0	None	n/a	0.0	n/a	0	-0.027592671867499998	blockFiles/set_19/main_unc/leftBlue\GB_LB_2.xlsx
512	main_unc	True	0.0	795	0	10.0	10.0	0.0	1	left	1.0	0.0	0.0	0	-0.0590425659344	blockFiles/set_19/main_unc/leftBlue\GB_LB_2.xlsx
513	main_unc	True	0.0	795	0	10.0	10.0	1.0	1	right	2.0	0.0	0.0	1	0.036005105748800004	blockFiles/set_19/main_unc/leftBlue\GB_LB_2.xlsx
514	main_unc	True	0.0	795	0	10.0	10.0	1.0	1	right	1.0	1.0	1.0	1	0.015322891399299998	blockFiles/set_19/main_unc/leftBlue\GB_LB_2.xlsx
515	main_unc	True	0.0	795	0	10.0	10.0	1.0	0	right	1.0	1.0	0.0	0	-0.0037252228334500002	blockFiles/set_19/main_unc/leftBlue\GB_LB_2.xlsx
516	main_unc	True	0.0	795	0	10.0	10.0	0.0	1	left	2.0	0.0	1.0	0	-0.0668275362439	blockFiles/set_19/main_unc/leftBlue\GB_LB_2.xlsx
517	main_unc	True	0.0	795	0	10.0	10.0	0.0	1	left	2.0	1.0	1.0	0	-0.0626715433225	blockFiles/set_19/main_unc/leftBlue\GB_LB_2.xlsx
518	main_unc	True	0.0	795	0	10.0	10.0	0.0	1	left	2.0	1.0	1.0	0	-0.0085524982214	blockFiles/set_19/main_unc/leftBlue\GB_LB_2.xlsx
519	main_unc	True	0.0	795	0	10.0	10.0	1.0	1	right	1.0	1.0	1.0	1	0.0368762344867	blockFiles/set_19/main_unc/leftBlue\GB_LB_2.xlsx
520	main_unc	True	0.0	795	0	10.0	10.0	1.0	1	right	1.0	1.0	1.0	1	0.0783955388702	blockFiles/set_19/main_unc/leftBlue\GB_LB_2.xlsx
521	main_unc	True	0.0	795	0	10.0	10.0	1.0	1	right	1.0	1.0	1.0	1	0.0100567469373	blockFiles/set_19/main_unc/leftBlue\GB_LB_2.xlsx
522	main_unc	True	0.0	795	0	10.0	10.0	0.0	0	left	1.0	1.0	1.0	1	0.027397294044499997	blockFiles/set_19/main_unc/leftBlue\GB_LB_2.xlsx
523	main_unc	True	0.0	795	0	10.0	10.0	1.0	1	right	1.0	1.0	1.0	1	0.0781689311564	blockFiles/set_19/main_unc/leftBlue\GB_LB_2.xlsx
524	main_unc	True	0.0	795	0	10.0	10.0	0.0	1	left	2.0	1.0	1.0	0	-0.024836163204200002	blockFiles/set_19/main_unc/leftBlue\GB_LB_2.xlsx
525	main_unc	True	0.0	795	0	10.0	10.0	0.0	1	left	2.0	0.0	1.0	0	-0.0609531383589	blockFiles/set_19/main_unc/leftBlue\GB_LB_2.xlsx
526	main_unc	True	0.0	795	0	10.0	10.0	0.0	1	left	2.0	1.0	1.0	0	-0.03540769033130001	blockFiles/set_19/main_unc/leftBlue\GB_LB_2.xlsx
527	main_unc	True	0.0	795	0	10.0	10.0	1.0	1	right	1.0	0.0	1.0	1	0.0325025723316	blockFiles/set_19/main_unc/leftBlue\GB_LB_2.xlsx
528	main_unc	True	0.0	795	0	10.0	10.0	0.0	1	left	2.0	1.0	1.0	0	-0.013389749117199999	blockFiles/set_19/main_unc/leftBlue\GB_LB_2.xlsx
529	main_unc	True	0.0	795	0	10.0	10.0	1.0	1	right	1.0	1.0	1.0	1	0.0681833137013	blockFiles/set_19/main_unc/leftBlue\GB_LB_2.xlsx
530	main_unc	True	0.0	795	0	10.0	10.0	0.0	1	left	2.0	1.0	1.0	0	-0.028366123717299997	blockFiles/set_19/main_unc/leftBlue\GB_LB_2.xlsx
531	main_unc	True	0.0	795	0	10.0	10.0	1.0	0	right	1.0	1.0	0.0	0	-0.0009531573206189999	blockFiles/set_19/main_unc/leftBlue\GB_LB_2.xlsx
532	main_unc	True	0.0	795	0	10.0	10.0	0.0	0	left	1.0	1.0	1.0	1	0.0525602440163	blockFiles/set_19/main_unc/leftBlue\GB_LB_2.xlsx
533	main_unc	True	0.0	795	0	10.0	10.0	0.0	1	left	2.0	0.0	1.0	0	-0.0704989707097	blockFiles/set_19/main_unc/leftBlue\GB_LB_2.xlsx
534	main_unc	True	0.0	795	0	10.0	10.0	1.0	1	right	1.0	1.0	1.0	1	0.016247121878	blockFiles/set_19/main_unc/leftBlue\GB_LB_2.xlsx
535	main_unc	True	0.0	795	0	10.0	10.0	1.0	1	right	1.0	1.0	1.0	1	0.0324844976701	blockFiles/set_19/main_unc/leftBlue\GB_LB_2.xlsx
536	main_unc	True	0.0	795	0	10.0	10.0	0.0	1	left	2.0	1.0	1.0	0	-0.027592671867499998	blockFiles/set_19/main_unc/leftBlue\GB_LB_2.xlsx
537	main_unc	True	0.0	795	0	11.0	11.0	1.0	1	right	1.0	1.0	0.0	1	0.021173388939400004	blockFiles/set_19/main_unc/rightBlue\GB_RB_5.xlsx
538	main_unc	True	1.0	795	0	11.0	11.0	n/a	0	None	n/a	0.0	n/a	1	0.00467152880505	blockFiles/set_19/main_unc/rightBlue\GB_RB_5.xlsx
539	main_unc	True	0.0	795	0	11.0	11.0	0.0	1	left	2.0	0.0	0.0	0	-0.0609704349749	blockFiles/set_19/main_unc/rightBlue\GB_RB_5.xlsx
540	main_unc	True	0.0	795	0	11.0	11.0	1.0	1	right	1.0	0.0	0.0	1	0.0474556758627	blockFiles/set_19/main_unc/rightBlue\GB_RB_5.xlsx
541	main_unc	True	1.0	795	0	11.0	11.0	n/a	0	None	n/a	0.0	n/a	0	-0.00112318772823	blockFiles/set_19/main_unc/rightBlue\GB_RB_5.xlsx
542	main_unc	True	0.0	795	0	11.0	11.0	0.0	1	left	1.0	1.0	1.0	0	-0.0618417468295	blockFiles/set_19/main_unc/rightBlue\GB_RB_5.xlsx
543	main_unc	True	0.0	795	0	11.0	11.0	0.0	1	left	1.0	1.0	1.0	0	-0.0584846732393	blockFiles/set_19/main_unc/rightBlue\GB_RB_5.xlsx
544	main_unc	True	0.0	795	0	11.0	11.0	0.0	1	left	1.0	0.0	1.0	0	-0.039027006868300004	blockFiles/set_19/main_unc/rightBlue\GB_RB_5.xlsx
545	main_unc	True	0.0	795	0	11.0	11.0	0.0	0	left	1.0	0.0	0.0	1	0.0120794383809	blockFiles/set_19/main_unc/rightBlue\GB_RB_5.xlsx
546	main_unc	True	0.0	795	0	11.0	11.0	0.0	1	left	1.0	1.0	1.0	0	-0.0361541904137	blockFiles/set_19/main_unc/rightBlue\GB_RB_5.xlsx
547	main_unc	True	0.0	795	0	11.0	11.0	0.0	1	left	1.0	1.0	1.0	0	-0.030050702747	blockFiles/set_19/main_unc/rightBlue\GB_RB_5.xlsx
548	main_unc	True	0.0	795	0	11.0	11.0	0.0	1	left	1.0	0.0	1.0	0	-0.039699046965699994	blockFiles/set_19/main_unc/rightBlue\GB_RB_5.xlsx
549	main_unc	True	0.0	795	0	11.0	11.0	0.0	1	left	1.0	0.0	1.0	0	-0.016895568054200002	blockFiles/set_19/main_unc/rightBlue\GB_RB_5.xlsx
550	main_unc	True	0.0	795	0	11.0	11.0	1.0	1	right	2.0	1.0	1.0	1	0.0083857803233	blockFiles/set_19/main_unc/rightBlue\GB_RB_5.xlsx
551	main_unc	True	0.0	795	0	11.0	11.0	0.0	1	left	1.0	1.0	1.0	0	-0.0782493566722	blockFiles/set_19/main_unc/rightBlue\GB_RB_5.xlsx
552	main_unc	True	0.0	795	0	11.0	11.0	0.0	1	left	1.0	1.0	1.0	0	-0.04972617033869999	blockFiles/set_19/main_unc/rightBlue\GB_RB_5.xlsx
553	main_unc	True	0.0	795	0	11.0	11.0	0.0	0	left	1.0	0.0	0.0	1	0.012601651176799998	blockFiles/set_19/main_unc/rightBlue\GB_RB_5.xlsx
554	main_unc	True	0.0	795	0	11.0	11.0	1.0	1	right	2.0	1.0	1.0	1	0.0574979190156	blockFiles/set_19/main_unc/rightBlue\GB_RB_5.xlsx
555	main_unc	True	0.0	795	0	11.0	11.0	1.0	1	right	2.0	1.0	1.0	1	0.0371240057237	blockFiles/set_19/main_unc/rightBlue\GB_RB_5.xlsx
556	main_unc	True	0.0	795	0	11.0	11.0	1.0	1	right	2.0	1.0	1.0	1	0.07012025510889999	blockFiles/set_19/main_unc/rightBlue\GB_RB_5.xlsx
557	main_unc	True	0.0	795	0	11.0	11.0	1.0	1	right	2.0	1.0	1.0	1	0.0586115230992	blockFiles/set_19/main_unc/rightBlue\GB_RB_5.xlsx
558	main_unc	True	0.0	795	0	11.0	11.0	1.0	1	right	2.0	1.0	1.0	1	0.009427913464610001	blockFiles/set_19/main_unc/rightBlue\GB_RB_5.xlsx
559	main_unc	True	1.0	795	0	11.0	11.0	1.0	1	right	n/a	0.0	n/a	1	0.005390198454260001	blockFiles/set_19/main_unc/rightBlue\GB_RB_5.xlsx
560	main_unc	True	0.0	795	0	11.0	11.0	0.0	1	left	1.0	1.0	1.0	0	-0.0153159027174	blockFiles/set_19/main_unc/rightBlue\GB_RB_5.xlsx
561	main_unc	True	0.0	795	0	11.0	11.0	1.0	1	right	2.0	0.0	1.0	1	0.0260497023538	blockFiles/set_19/main_unc/rightBlue\GB_RB_5.xlsx
562	main_unc	True	0.0	795	0	11.0	11.0	1.0	1	right	2.0	1.0	1.0	1	0.00467152880505	blockFiles/set_19/main_unc/rightBlue\GB_RB_5.xlsx
563	main_unc	True	0.0	795	0	11.0	11.0	1.0	0	right	2.0	1.0	0.0	0	-0.00112318772823	blockFiles/set_19/main_unc/rightBlue\GB_RB_5.xlsx
564	main_unc	True	0.0	795	0	11.0	11.0	1.0	1	right	2.0	1.0	1.0	1	0.005390198454260001	blockFiles/set_19/main_unc/rightBlue\GB_RB_5.xlsx
