	trial_type	complete	missIndex	participant	id	blockNumber	b_t	d_t	decision1.corr	decision1.keys	a_t	r_t	decision2.corr	s_t	u_t	block_file
0	main_safe	True	0.0	723	0	0.0	0.0	0.0	1	left	1.0	1.0	1.0	0	-0.08	blockFiles/set_40/main_safe/rightBlue\GB_RB_2.xlsx
1	main_safe	True	0.0	723	0	0.0	0.0	1.0	1	right	2.0	1.0	1.0	1	0.08	blockFiles/set_40/main_safe/rightBlue\GB_RB_2.xlsx
2	main_safe	True	0.0	723	0	0.0	0.0	1.0	1	right	2.0	1.0	1.0	1	0.08	blockFiles/set_40/main_safe/rightBlue\GB_RB_2.xlsx
3	main_safe	True	0.0	723	0	0.0	0.0	0.0	1	left	1.0	0.0	1.0	0	-0.08	blockFiles/set_40/main_safe/rightBlue\GB_RB_2.xlsx
4	main_safe	True	0.0	723	0	0.0	0.0	1.0	1	right	2.0	0.0	1.0	1	0.08	blockFiles/set_40/main_safe/rightBlue\GB_RB_2.xlsx
5	main_safe	True	0.0	723	0	0.0	0.0	1.0	1	right	2.0	1.0	1.0	1	0.08	blockFiles/set_40/main_safe/rightBlue\GB_RB_2.xlsx
6	main_safe	True	0.0	723	0	0.0	0.0	0.0	1	left	1.0	1.0	1.0	0	-0.08	blockFiles/set_40/main_safe/rightBlue\GB_RB_2.xlsx
7	main_safe	True	0.0	723	0	0.0	0.0	1.0	1	right	2.0	1.0	1.0	1	0.08	blockFiles/set_40/main_safe/rightBlue\GB_RB_2.xlsx
8	main_safe	True	0.0	723	0	0.0	0.0	0.0	1	left	1.0	1.0	1.0	0	-0.08	blockFiles/set_40/main_safe/rightBlue\GB_RB_2.xlsx
9	main_safe	True	0.0	723	0	0.0	0.0	1.0	1	right	2.0	1.0	1.0	1	0.08	blockFiles/set_40/main_safe/rightBlue\GB_RB_2.xlsx
10	main_safe	True	0.0	723	0	0.0	0.0	1.0	1	right	2.0	0.0	1.0	1	0.08	blockFiles/set_40/main_safe/rightBlue\GB_RB_2.xlsx
11	main_safe	True	0.0	723	0	0.0	0.0	0.0	1	left	1.0	1.0	1.0	0	-0.08	blockFiles/set_40/main_safe/rightBlue\GB_RB_2.xlsx
12	main_safe	True	0.0	723	0	0.0	0.0	0.0	1	left	1.0	1.0	1.0	0	-0.08	blockFiles/set_40/main_safe/rightBlue\GB_RB_2.xlsx
13	main_safe	True	0.0	723	0	0.0	0.0	0.0	1	left	1.0	1.0	1.0	0	-0.08	blockFiles/set_40/main_safe/rightBlue\GB_RB_2.xlsx
14	main_safe	True	0.0	723	0	0.0	0.0	1.0	1	right	2.0	1.0	1.0	1	0.08	blockFiles/set_40/main_safe/rightBlue\GB_RB_2.xlsx
15	main_safe	True	0.0	723	0	0.0	0.0	1.0	1	right	2.0	1.0	1.0	1	0.08	blockFiles/set_40/main_safe/rightBlue\GB_RB_2.xlsx
16	main_safe	True	0.0	723	0	0.0	0.0	0.0	1	left	1.0	1.0	1.0	0	-0.08	blockFiles/set_40/main_safe/rightBlue\GB_RB_2.xlsx
17	main_safe	True	0.0	723	0	0.0	0.0	1.0	1	right	2.0	1.0	1.0	1	0.08	blockFiles/set_40/main_safe/rightBlue\GB_RB_2.xlsx
18	main_safe	True	0.0	723	0	0.0	0.0	0.0	1	left	2.0	0.0	0.0	0	-0.08	blockFiles/set_40/main_safe/rightBlue\GB_RB_2.xlsx
19	main_safe	True	0.0	723	0	0.0	0.0	1.0	1	right	2.0	0.0	1.0	1	0.08	blockFiles/set_40/main_safe/rightBlue\GB_RB_2.xlsx
20	main_safe	True	0.0	723	0	0.0	0.0	0.0	1	left	1.0	1.0	1.0	0	-0.08	blockFiles/set_40/main_safe/rightBlue\GB_RB_2.xlsx
21	main_safe	True	0.0	723	0	0.0	0.0	0.0	1	left	1.0	0.0	1.0	0	-0.08	blockFiles/set_40/main_safe/rightBlue\GB_RB_2.xlsx
22	main_safe	True	0.0	723	0	0.0	0.0	1.0	1	right	2.0	1.0	1.0	1	0.08	blockFiles/set_40/main_safe/rightBlue\GB_RB_2.xlsx
23	main_safe	True	0.0	723	0	0.0	0.0	1.0	1	right	2.0	0.0	1.0	1	0.08	blockFiles/set_40/main_safe/rightBlue\GB_RB_2.xlsx
24	main_safe	True	0.0	723	0	0.0	0.0	0.0	1	left	1.0	1.0	1.0	0	-0.08	blockFiles/set_40/main_safe/rightBlue\GB_RB_2.xlsx
25	main_safe	True	0.0	723	0	1.0	1.0	0.0	1	left	2.0	0.0	1.0	0	-0.08	blockFiles/set_40/main_safe/leftBlue\GB_LB_3.xlsx
26	main_safe	True	0.0	723	0	1.0	1.0	0.0	1	left	2.0	1.0	1.0	0	-0.08	blockFiles/set_40/main_safe/leftBlue\GB_LB_3.xlsx
27	main_safe	True	0.0	723	0	1.0	1.0	0.0	1	left	2.0	1.0	1.0	0	-0.08	blockFiles/set_40/main_safe/leftBlue\GB_LB_3.xlsx
28	main_safe	True	0.0	723	0	1.0	1.0	1.0	1	right	1.0	1.0	1.0	1	0.08	blockFiles/set_40/main_safe/leftBlue\GB_LB_3.xlsx
29	main_safe	True	0.0	723	0	1.0	1.0	0.0	1	left	2.0	1.0	1.0	0	-0.08	blockFiles/set_40/main_safe/leftBlue\GB_LB_3.xlsx
30	main_safe	True	0.0	723	0	1.0	1.0	1.0	1	right	1.0	1.0	1.0	1	0.08	blockFiles/set_40/main_safe/leftBlue\GB_LB_3.xlsx
31	main_safe	True	0.0	723	0	1.0	1.0	1.0	1	right	1.0	1.0	1.0	1	0.08	blockFiles/set_40/main_safe/leftBlue\GB_LB_3.xlsx
32	main_safe	True	0.0	723	0	1.0	1.0	1.0	0	right	2.0	0.0	1.0	0	-0.08	blockFiles/set_40/main_safe/leftBlue\GB_LB_3.xlsx
33	main_safe	True	0.0	723	0	1.0	1.0	0.0	1	left	2.0	0.0	1.0	0	-0.08	blockFiles/set_40/main_safe/leftBlue\GB_LB_3.xlsx
34	main_safe	True	0.0	723	0	1.0	1.0	1.0	1	right	1.0	1.0	1.0	1	0.08	blockFiles/set_40/main_safe/leftBlue\GB_LB_3.xlsx
35	main_safe	True	0.0	723	0	1.0	1.0	0.0	1	left	2.0	1.0	1.0	0	-0.08	blockFiles/set_40/main_safe/leftBlue\GB_LB_3.xlsx
36	main_safe	True	0.0	723	0	1.0	1.0	1.0	1	right	1.0	1.0	1.0	1	0.08	blockFiles/set_40/main_safe/leftBlue\GB_LB_3.xlsx
37	main_safe	True	0.0	723	0	1.0	1.0	0.0	1	left	2.0	0.0	1.0	0	-0.08	blockFiles/set_40/main_safe/leftBlue\GB_LB_3.xlsx
38	main_safe	True	0.0	723	0	1.0	1.0	1.0	1	right	1.0	1.0	1.0	1	0.08	blockFiles/set_40/main_safe/leftBlue\GB_LB_3.xlsx
39	main_safe	True	0.0	723	0	1.0	1.0	1.0	1	right	1.0	1.0	1.0	1	0.08	blockFiles/set_40/main_safe/leftBlue\GB_LB_3.xlsx
40	main_safe	True	0.0	723	0	1.0	1.0	0.0	1	left	2.0	1.0	1.0	0	-0.08	blockFiles/set_40/main_safe/leftBlue\GB_LB_3.xlsx
41	main_safe	True	0.0	723	0	1.0	1.0	1.0	1	right	1.0	1.0	1.0	1	0.08	blockFiles/set_40/main_safe/leftBlue\GB_LB_3.xlsx
42	main_safe	True	0.0	723	0	1.0	1.0	1.0	1	right	1.0	1.0	1.0	1	0.08	blockFiles/set_40/main_safe/leftBlue\GB_LB_3.xlsx
43	main_safe	True	0.0	723	0	1.0	1.0	1.0	1	right	1.0	0.0	1.0	1	0.08	blockFiles/set_40/main_safe/leftBlue\GB_LB_3.xlsx
44	main_safe	True	0.0	723	0	1.0	1.0	0.0	1	left	2.0	1.0	1.0	0	-0.08	blockFiles/set_40/main_safe/leftBlue\GB_LB_3.xlsx
45	main_safe	True	0.0	723	0	1.0	1.0	0.0	1	left	2.0	1.0	1.0	0	-0.08	blockFiles/set_40/main_safe/leftBlue\GB_LB_3.xlsx
46	main_safe	True	0.0	723	0	1.0	1.0	1.0	1	right	1.0	1.0	1.0	1	0.08	blockFiles/set_40/main_safe/leftBlue\GB_LB_3.xlsx
47	main_safe	True	0.0	723	0	1.0	1.0	1.0	1	right	1.0	1.0	1.0	1	0.08	blockFiles/set_40/main_safe/leftBlue\GB_LB_3.xlsx
48	main_safe	True	0.0	723	0	1.0	1.0	1.0	1	right	1.0	1.0	1.0	1	0.08	blockFiles/set_40/main_safe/leftBlue\GB_LB_3.xlsx
49	main_safe	True	0.0	723	0	1.0	1.0	1.0	1	right	1.0	1.0	1.0	1	0.08	blockFiles/set_40/main_safe/leftBlue\GB_LB_3.xlsx
50	main_safe	True	0.0	723	0	2.0	2.0	1.0	1	right	2.0	1.0	1.0	1	0.08	blockFiles/set_40/main_safe/rightBlue\GB_RB_1.xlsx
51	main_safe	True	0.0	723	0	2.0	2.0	1.0	1	right	2.0	1.0	1.0	1	0.08	blockFiles/set_40/main_safe/rightBlue\GB_RB_1.xlsx
52	main_safe	True	0.0	723	0	2.0	2.0	0.0	1	left	1.0	1.0	1.0	0	-0.08	blockFiles/set_40/main_safe/rightBlue\GB_RB_1.xlsx
53	main_safe	True	0.0	723	0	2.0	2.0	0.0	1	left	1.0	0.0	1.0	0	-0.08	blockFiles/set_40/main_safe/rightBlue\GB_RB_1.xlsx
54	main_safe	True	0.0	723	0	2.0	2.0	0.0	1	left	1.0	1.0	1.0	0	-0.08	blockFiles/set_40/main_safe/rightBlue\GB_RB_1.xlsx
55	main_safe	True	0.0	723	0	2.0	2.0	1.0	1	right	2.0	1.0	1.0	1	0.08	blockFiles/set_40/main_safe/rightBlue\GB_RB_1.xlsx
56	main_safe	True	0.0	723	0	2.0	2.0	1.0	1	right	2.0	1.0	1.0	1	0.08	blockFiles/set_40/main_safe/rightBlue\GB_RB_1.xlsx
57	main_safe	True	0.0	723	0	2.0	2.0	0.0	1	left	1.0	0.0	1.0	0	-0.08	blockFiles/set_40/main_safe/rightBlue\GB_RB_1.xlsx
58	main_safe	True	0.0	723	0	2.0	2.0	1.0	1	right	2.0	0.0	1.0	1	0.08	blockFiles/set_40/main_safe/rightBlue\GB_RB_1.xlsx
59	main_safe	True	0.0	723	0	2.0	2.0	1.0	1	right	2.0	1.0	1.0	1	0.08	blockFiles/set_40/main_safe/rightBlue\GB_RB_1.xlsx
60	main_safe	True	0.0	723	0	2.0	2.0	1.0	1	right	2.0	1.0	1.0	1	0.08	blockFiles/set_40/main_safe/rightBlue\GB_RB_1.xlsx
61	main_safe	True	0.0	723	0	2.0	2.0	0.0	1	left	1.0	0.0	1.0	0	-0.08	blockFiles/set_40/main_safe/rightBlue\GB_RB_1.xlsx
62	main_safe	True	0.0	723	0	2.0	2.0	1.0	1	right	2.0	1.0	1.0	1	0.08	blockFiles/set_40/main_safe/rightBlue\GB_RB_1.xlsx
63	main_safe	True	0.0	723	0	2.0	2.0	0.0	1	left	1.0	1.0	1.0	0	-0.08	blockFiles/set_40/main_safe/rightBlue\GB_RB_1.xlsx
64	main_safe	True	0.0	723	0	2.0	2.0	0.0	1	left	1.0	1.0	1.0	0	-0.08	blockFiles/set_40/main_safe/rightBlue\GB_RB_1.xlsx
65	main_safe	True	0.0	723	0	2.0	2.0	1.0	1	right	2.0	1.0	1.0	1	0.08	blockFiles/set_40/main_safe/rightBlue\GB_RB_1.xlsx
66	main_safe	True	0.0	723	0	2.0	2.0	0.0	1	left	1.0	1.0	1.0	0	-0.08	blockFiles/set_40/main_safe/rightBlue\GB_RB_1.xlsx
67	main_safe	True	0.0	723	0	2.0	2.0	0.0	1	left	1.0	1.0	1.0	0	-0.08	blockFiles/set_40/main_safe/rightBlue\GB_RB_1.xlsx
68	main_safe	True	0.0	723	0	2.0	2.0	1.0	1	right	2.0	1.0	1.0	1	0.08	blockFiles/set_40/main_safe/rightBlue\GB_RB_1.xlsx
69	main_safe	True	0.0	723	0	2.0	2.0	1.0	1	right	2.0	1.0	1.0	1	0.08	blockFiles/set_40/main_safe/rightBlue\GB_RB_1.xlsx
70	main_safe	True	0.0	723	0	2.0	2.0	1.0	1	right	2.0	1.0	1.0	1	0.08	blockFiles/set_40/main_safe/rightBlue\GB_RB_1.xlsx
71	main_safe	True	0.0	723	0	2.0	2.0	1.0	1	right	2.0	1.0	1.0	1	0.08	blockFiles/set_40/main_safe/rightBlue\GB_RB_1.xlsx
72	main_safe	True	0.0	723	0	2.0	2.0	0.0	1	left	1.0	0.0	1.0	0	-0.08	blockFiles/set_40/main_safe/rightBlue\GB_RB_1.xlsx
73	main_safe	True	0.0	723	0	2.0	2.0	0.0	1	left	1.0	1.0	1.0	0	-0.08	blockFiles/set_40/main_safe/rightBlue\GB_RB_1.xlsx
74	main_safe	True	0.0	723	0	2.0	2.0	1.0	1	right	2.0	1.0	1.0	1	0.08	blockFiles/set_40/main_safe/rightBlue\GB_RB_1.xlsx
75	main_safe	True	0.0	723	0	3.0	3.0	0.0	1	left	1.0	0.0	0.0	0	-0.08	blockFiles/set_40/main_safe/leftBlue\GB_LB_1.xlsx
76	main_safe	True	0.0	723	0	3.0	3.0	1.0	1	right	1.0	1.0	1.0	1	0.08	blockFiles/set_40/main_safe/leftBlue\GB_LB_1.xlsx
77	main_safe	True	0.0	723	0	3.0	3.0	1.0	1	right	1.0	1.0	1.0	1	0.08	blockFiles/set_40/main_safe/leftBlue\GB_LB_1.xlsx
78	main_safe	True	0.0	723	0	3.0	3.0	0.0	1	left	1.0	0.0	0.0	0	-0.08	blockFiles/set_40/main_safe/leftBlue\GB_LB_1.xlsx
79	main_safe	True	0.0	723	0	3.0	3.0	1.0	1	right	1.0	0.0	1.0	1	0.08	blockFiles/set_40/main_safe/leftBlue\GB_LB_1.xlsx
80	main_safe	True	1.0	723	0	3.0	3.0	0.0	1	left	n/a	0.0	n/a	0	-0.08	blockFiles/set_40/main_safe/leftBlue\GB_LB_1.xlsx
81	main_safe	True	0.0	723	0	3.0	3.0	0.0	1	left	1.0	1.0	0.0	0	-0.08	blockFiles/set_40/main_safe/leftBlue\GB_LB_1.xlsx
82	main_safe	True	0.0	723	0	3.0	3.0	1.0	1	right	1.0	0.0	1.0	1	0.08	blockFiles/set_40/main_safe/leftBlue\GB_LB_1.xlsx
83	main_safe	True	0.0	723	0	3.0	3.0	1.0	1	right	1.0	1.0	1.0	1	0.08	blockFiles/set_40/main_safe/leftBlue\GB_LB_1.xlsx
84	main_safe	True	0.0	723	0	3.0	3.0	0.0	1	left	2.0	1.0	1.0	0	-0.08	blockFiles/set_40/main_safe/leftBlue\GB_LB_1.xlsx
85	main_safe	True	0.0	723	0	3.0	3.0	0.0	1	left	2.0	1.0	1.0	0	-0.08	blockFiles/set_40/main_safe/leftBlue\GB_LB_1.xlsx
86	main_safe	True	0.0	723	0	3.0	3.0	0.0	1	left	2.0	1.0	1.0	0	-0.08	blockFiles/set_40/main_safe/leftBlue\GB_LB_1.xlsx
87	main_safe	True	0.0	723	0	3.0	3.0	1.0	1	right	1.0	1.0	1.0	1	0.08	blockFiles/set_40/main_safe/leftBlue\GB_LB_1.xlsx
88	main_safe	True	0.0	723	0	3.0	3.0	1.0	1	right	1.0	0.0	1.0	1	0.08	blockFiles/set_40/main_safe/leftBlue\GB_LB_1.xlsx
89	main_safe	True	0.0	723	0	3.0	3.0	1.0	1	right	1.0	1.0	1.0	1	0.08	blockFiles/set_40/main_safe/leftBlue\GB_LB_1.xlsx
90	main_safe	True	0.0	723	0	3.0	3.0	1.0	1	right	1.0	1.0	1.0	1	0.08	blockFiles/set_40/main_safe/leftBlue\GB_LB_1.xlsx
91	main_safe	True	0.0	723	0	3.0	3.0	1.0	1	right	1.0	0.0	1.0	1	0.08	blockFiles/set_40/main_safe/leftBlue\GB_LB_1.xlsx
92	main_safe	True	0.0	723	0	3.0	3.0	1.0	1	right	1.0	1.0	1.0	1	0.08	blockFiles/set_40/main_safe/leftBlue\GB_LB_1.xlsx
93	main_safe	True	0.0	723	0	3.0	3.0	0.0	1	left	2.0	1.0	1.0	0	-0.08	blockFiles/set_40/main_safe/leftBlue\GB_LB_1.xlsx
94	main_safe	True	0.0	723	0	3.0	3.0	0.0	1	left	2.0	1.0	1.0	0	-0.08	blockFiles/set_40/main_safe/leftBlue\GB_LB_1.xlsx
95	main_safe	True	0.0	723	0	3.0	3.0	0.0	1	left	2.0	1.0	1.0	0	-0.08	blockFiles/set_40/main_safe/leftBlue\GB_LB_1.xlsx
96	main_safe	True	0.0	723	0	3.0	3.0	0.0	1	left	2.0	1.0	1.0	0	-0.08	blockFiles/set_40/main_safe/leftBlue\GB_LB_1.xlsx
97	main_safe	True	0.0	723	0	3.0	3.0	0.0	1	left	2.0	1.0	1.0	0	-0.08	blockFiles/set_40/main_safe/leftBlue\GB_LB_1.xlsx
98	main_safe	True	0.0	723	0	3.0	3.0	0.0	1	left	2.0	1.0	1.0	0	-0.08	blockFiles/set_40/main_safe/leftBlue\GB_LB_1.xlsx
99	main_safe	True	0.0	723	0	3.0	3.0	0.0	1	left	2.0	1.0	1.0	0	-0.08	blockFiles/set_40/main_safe/leftBlue\GB_LB_1.xlsx
100	main_safe	True	0.0	723	0	3.0	3.0	0.0	1	left	2.0	1.0	1.0	0	-0.08	blockFiles/set_40/main_safe/leftBlue\GB_LB_1.xlsx
101	main_safe	True	0.0	723	0	4.0	4.0	0.0	1	left	2.0	1.0	1.0	0	-0.08	blockFiles/set_40/main_safe/leftBlue\GB_LB_2.xlsx
102	main_safe	True	0.0	723	0	4.0	4.0	1.0	1	right	1.0	1.0	1.0	1	0.08	blockFiles/set_40/main_safe/leftBlue\GB_LB_2.xlsx
103	main_safe	True	0.0	723	0	4.0	4.0	0.0	1	left	2.0	1.0	1.0	0	-0.08	blockFiles/set_40/main_safe/leftBlue\GB_LB_2.xlsx
104	main_safe	True	0.0	723	0	4.0	4.0	1.0	1	right	1.0	0.0	1.0	1	0.08	blockFiles/set_40/main_safe/leftBlue\GB_LB_2.xlsx
105	main_safe	True	0.0	723	0	4.0	4.0	1.0	1	right	1.0	1.0	1.0	1	0.08	blockFiles/set_40/main_safe/leftBlue\GB_LB_2.xlsx
106	main_safe	True	0.0	723	0	4.0	4.0	0.0	1	left	2.0	1.0	1.0	0	-0.08	blockFiles/set_40/main_safe/leftBlue\GB_LB_2.xlsx
107	main_safe	True	0.0	723	0	4.0	4.0	0.0	1	left	2.0	1.0	1.0	0	-0.08	blockFiles/set_40/main_safe/leftBlue\GB_LB_2.xlsx
108	main_safe	True	0.0	723	0	4.0	4.0	0.0	1	left	2.0	1.0	1.0	0	-0.08	blockFiles/set_40/main_safe/leftBlue\GB_LB_2.xlsx
109	main_safe	True	0.0	723	0	4.0	4.0	0.0	1	left	2.0	1.0	1.0	0	-0.08	blockFiles/set_40/main_safe/leftBlue\GB_LB_2.xlsx
110	main_safe	True	0.0	723	0	4.0	4.0	1.0	1	right	1.0	0.0	1.0	1	0.08	blockFiles/set_40/main_safe/leftBlue\GB_LB_2.xlsx
111	main_safe	True	0.0	723	0	4.0	4.0	1.0	1	right	1.0	1.0	1.0	1	0.08	blockFiles/set_40/main_safe/leftBlue\GB_LB_2.xlsx
112	main_safe	True	0.0	723	0	4.0	4.0	1.0	1	right	1.0	1.0	1.0	1	0.08	blockFiles/set_40/main_safe/leftBlue\GB_LB_2.xlsx
113	main_safe	True	0.0	723	0	4.0	4.0	0.0	1	left	2.0	0.0	1.0	0	-0.08	blockFiles/set_40/main_safe/leftBlue\GB_LB_2.xlsx
114	main_safe	True	0.0	723	0	4.0	4.0	1.0	1	right	1.0	1.0	1.0	1	0.08	blockFiles/set_40/main_safe/leftBlue\GB_LB_2.xlsx
115	main_safe	True	0.0	723	0	4.0	4.0	0.0	1	left	2.0	1.0	1.0	0	-0.08	blockFiles/set_40/main_safe/leftBlue\GB_LB_2.xlsx
116	main_safe	True	0.0	723	0	4.0	4.0	1.0	1	right	1.0	1.0	1.0	1	0.08	blockFiles/set_40/main_safe/leftBlue\GB_LB_2.xlsx
117	main_safe	True	0.0	723	0	4.0	4.0	0.0	1	left	2.0	1.0	1.0	0	-0.08	blockFiles/set_40/main_safe/leftBlue\GB_LB_2.xlsx
118	main_safe	True	0.0	723	0	4.0	4.0	1.0	1	right	1.0	1.0	1.0	1	0.08	blockFiles/set_40/main_safe/leftBlue\GB_LB_2.xlsx
119	main_safe	True	0.0	723	0	4.0	4.0	0.0	1	left	2.0	1.0	1.0	0	-0.08	blockFiles/set_40/main_safe/leftBlue\GB_LB_2.xlsx
120	main_safe	True	0.0	723	0	4.0	4.0	1.0	1	right	1.0	1.0	1.0	1	0.08	blockFiles/set_40/main_safe/leftBlue\GB_LB_2.xlsx
121	main_safe	True	0.0	723	0	4.0	4.0	1.0	1	right	1.0	0.0	1.0	1	0.08	blockFiles/set_40/main_safe/leftBlue\GB_LB_2.xlsx
122	main_safe	True	0.0	723	0	4.0	4.0	0.0	1	left	2.0	0.0	1.0	0	-0.08	blockFiles/set_40/main_safe/leftBlue\GB_LB_2.xlsx
123	main_safe	True	0.0	723	0	4.0	4.0	1.0	1	right	1.0	1.0	1.0	1	0.08	blockFiles/set_40/main_safe/leftBlue\GB_LB_2.xlsx
124	main_safe	True	0.0	723	0	4.0	4.0	0.0	1	left	2.0	1.0	1.0	0	-0.08	blockFiles/set_40/main_safe/leftBlue\GB_LB_2.xlsx
125	main_safe	True	0.0	723	0	4.0	4.0	0.0	1	left	2.0	1.0	1.0	0	-0.08	blockFiles/set_40/main_safe/leftBlue\GB_LB_2.xlsx
126	main_safe	True	0.0	723	0	5.0	5.0	0.0	1	left	2.0	0.0	0.0	0	-0.08	blockFiles/set_40/main_safe/rightBlue\GB_RB_3.xlsx
127	main_safe	True	0.0	723	0	5.0	5.0	1.0	1	right	2.0	1.0	1.0	1	0.08	blockFiles/set_40/main_safe/rightBlue\GB_RB_3.xlsx
128	main_safe	True	0.0	723	0	5.0	5.0	1.0	1	right	2.0	1.0	1.0	1	0.08	blockFiles/set_40/main_safe/rightBlue\GB_RB_3.xlsx
129	main_safe	True	0.0	723	0	5.0	5.0	0.0	1	left	1.0	1.0	1.0	0	-0.08	blockFiles/set_40/main_safe/rightBlue\GB_RB_3.xlsx
130	main_safe	True	0.0	723	0	5.0	5.0	1.0	1	right	2.0	1.0	1.0	1	0.08	blockFiles/set_40/main_safe/rightBlue\GB_RB_3.xlsx
131	main_safe	True	0.0	723	0	5.0	5.0	1.0	1	right	2.0	0.0	1.0	1	0.08	blockFiles/set_40/main_safe/rightBlue\GB_RB_3.xlsx
132	main_safe	True	0.0	723	0	5.0	5.0	1.0	1	right	2.0	0.0	1.0	1	0.08	blockFiles/set_40/main_safe/rightBlue\GB_RB_3.xlsx
133	main_safe	True	0.0	723	0	5.0	5.0	0.0	1	left	1.0	1.0	1.0	0	-0.08	blockFiles/set_40/main_safe/rightBlue\GB_RB_3.xlsx
134	main_safe	True	0.0	723	0	5.0	5.0	1.0	1	right	2.0	1.0	1.0	1	0.08	blockFiles/set_40/main_safe/rightBlue\GB_RB_3.xlsx
135	main_safe	True	0.0	723	0	5.0	5.0	0.0	1	left	1.0	1.0	1.0	0	-0.08	blockFiles/set_40/main_safe/rightBlue\GB_RB_3.xlsx
136	main_safe	True	0.0	723	0	5.0	5.0	1.0	1	right	2.0	1.0	1.0	1	0.08	blockFiles/set_40/main_safe/rightBlue\GB_RB_3.xlsx
137	main_safe	True	0.0	723	0	5.0	5.0	1.0	1	right	2.0	1.0	1.0	1	0.08	blockFiles/set_40/main_safe/rightBlue\GB_RB_3.xlsx
138	main_safe	True	0.0	723	0	5.0	5.0	0.0	1	left	1.0	1.0	1.0	0	-0.08	blockFiles/set_40/main_safe/rightBlue\GB_RB_3.xlsx
139	main_safe	True	0.0	723	0	5.0	5.0	0.0	1	left	1.0	1.0	1.0	0	-0.08	blockFiles/set_40/main_safe/rightBlue\GB_RB_3.xlsx
140	main_safe	True	0.0	723	0	5.0	5.0	1.0	1	right	2.0	0.0	1.0	1	0.08	blockFiles/set_40/main_safe/rightBlue\GB_RB_3.xlsx
141	main_safe	True	0.0	723	0	5.0	5.0	0.0	1	left	1.0	1.0	1.0	0	-0.08	blockFiles/set_40/main_safe/rightBlue\GB_RB_3.xlsx
142	main_safe	True	0.0	723	0	5.0	5.0	0.0	1	left	1.0	1.0	1.0	0	-0.08	blockFiles/set_40/main_safe/rightBlue\GB_RB_3.xlsx
143	main_safe	True	0.0	723	0	5.0	5.0	1.0	1	right	2.0	1.0	1.0	1	0.08	blockFiles/set_40/main_safe/rightBlue\GB_RB_3.xlsx
144	main_safe	True	0.0	723	0	5.0	5.0	1.0	1	right	2.0	0.0	1.0	1	0.08	blockFiles/set_40/main_safe/rightBlue\GB_RB_3.xlsx
145	main_safe	True	0.0	723	0	5.0	5.0	1.0	1	right	2.0	1.0	1.0	1	0.08	blockFiles/set_40/main_safe/rightBlue\GB_RB_3.xlsx
146	main_safe	True	0.0	723	0	5.0	5.0	0.0	1	left	1.0	1.0	1.0	0	-0.08	blockFiles/set_40/main_safe/rightBlue\GB_RB_3.xlsx
147	main_safe	True	0.0	723	0	5.0	5.0	0.0	1	left	1.0	1.0	1.0	0	-0.08	blockFiles/set_40/main_safe/rightBlue\GB_RB_3.xlsx
148	main_safe	True	0.0	723	0	5.0	5.0	0.0	1	left	1.0	0.0	1.0	0	-0.08	blockFiles/set_40/main_safe/rightBlue\GB_RB_3.xlsx
149	main_safe	True	0.0	723	0	5.0	5.0	0.0	1	left	1.0	1.0	1.0	0	-0.08	blockFiles/set_40/main_safe/rightBlue\GB_RB_3.xlsx
150	main_safe	True	0.0	723	0	5.0	5.0	1.0	1	right	2.0	1.0	1.0	1	0.08	blockFiles/set_40/main_safe/rightBlue\GB_RB_3.xlsx
151	patches	True	n/a	723	0	n/a	n/a	0.0	1	left	n/a	n/a	n/a	0	-0.0317385687865	blockFiles/set_40/main_PD/GB_runPatches1.xlsx
152	patches	True	n/a	723	0	n/a	n/a	1.0	1	right	n/a	n/a	n/a	1	0.0755118883029	blockFiles/set_40/main_PD/GB_runPatches1.xlsx
153	patches	True	n/a	723	0	n/a	n/a	0.0	1	left	n/a	n/a	n/a	0	-0.00907694866881	blockFiles/set_40/main_PD/GB_runPatches1.xlsx
154	patches	True	n/a	723	0	n/a	n/a	0.0	1	left	n/a	n/a	n/a	0	-0.0216488918103	blockFiles/set_40/main_PD/GB_runPatches1.xlsx
155	patches	True	n/a	723	0	n/a	n/a	0.0	1	left	n/a	n/a	n/a	0	-0.0178193628415	blockFiles/set_40/main_PD/GB_runPatches1.xlsx
156	patches	True	n/a	723	0	n/a	n/a	1.0	1	right	n/a	n/a	n/a	1	0.0192695359327	blockFiles/set_40/main_PD/GB_runPatches1.xlsx
157	patches	True	n/a	723	0	n/a	n/a	0.0	1	left	n/a	n/a	n/a	0	-0.06103801429269999	blockFiles/set_40/main_PD/GB_runPatches1.xlsx
158	patches	True	n/a	723	0	n/a	n/a	1.0	1	right	n/a	n/a	n/a	1	0.0399751012586	blockFiles/set_40/main_PD/GB_runPatches1.xlsx
159	patches	True	n/a	723	0	n/a	n/a	0.0	1	left	n/a	n/a	n/a	0	-0.0720499342866	blockFiles/set_40/main_PD/GB_runPatches1.xlsx
160	patches	True	n/a	723	0	n/a	n/a	1.0	1	right	n/a	n/a	n/a	1	0.06023053558540001	blockFiles/set_40/main_PD/GB_runPatches1.xlsx
161	patches	True	n/a	723	0	n/a	n/a	1.0	1	right	n/a	n/a	n/a	1	0.0785020401143	blockFiles/set_40/main_PD/GB_runPatches1.xlsx
162	patches	True	n/a	723	0	n/a	n/a	1.0	1	right	n/a	n/a	n/a	1	0.046754858177199994	blockFiles/set_40/main_PD/GB_runPatches1.xlsx
163	patches	True	n/a	723	0	n/a	n/a	1.0	1	right	n/a	n/a	n/a	1	0.013092759419200002	blockFiles/set_40/main_PD/GB_runPatches1.xlsx
164	patches	True	n/a	723	0	n/a	n/a	1.0	0	right	n/a	n/a	n/a	0	-0.017889054715599997	blockFiles/set_40/main_PD/GB_runPatches1.xlsx
165	patches	True	n/a	723	0	n/a	n/a	1.0	0	right	n/a	n/a	n/a	0	-0.05470855945719999	blockFiles/set_40/main_PD/GB_runPatches1.xlsx
166	patches	True	n/a	723	0	n/a	n/a	1.0	1	right	n/a	n/a	n/a	1	0.0535880381241	blockFiles/set_40/main_PD/GB_runPatches1.xlsx
167	patches	True	n/a	723	0	n/a	n/a	1.0	0	right	n/a	n/a	n/a	0	-0.0149071477726	blockFiles/set_40/main_PD/GB_runPatches1.xlsx
168	patches	True	n/a	723	0	n/a	n/a	0.0	1	left	n/a	n/a	n/a	0	-0.030102223344099996	blockFiles/set_40/main_PD/GB_runPatches1.xlsx
169	patches	True	n/a	723	0	n/a	n/a	1.0	1	right	n/a	n/a	n/a	1	0.0287274768762	blockFiles/set_40/main_PD/GB_runPatches1.xlsx
170	patches	True	n/a	723	0	n/a	n/a	1.0	1	right	n/a	n/a	n/a	1	0.054291947353600004	blockFiles/set_40/main_PD/GB_runPatches1.xlsx
171	patches	True	n/a	723	0	n/a	n/a	0.0	1	left	n/a	n/a	n/a	0	-0.0447889602929	blockFiles/set_40/main_PD/GB_runPatches1.xlsx
172	patches	True	n/a	723	0	n/a	n/a	0.0	1	left	n/a	n/a	n/a	0	-0.0328880124167	blockFiles/set_40/main_PD/GB_runPatches1.xlsx
173	patches	True	n/a	723	0	n/a	n/a	0.0	1	left	n/a	n/a	n/a	0	-0.0196466896124	blockFiles/set_40/main_PD/GB_runPatches1.xlsx
174	patches	True	n/a	723	0	n/a	n/a	0.0	0	left	n/a	n/a	n/a	1	0.026208914443900003	blockFiles/set_40/main_PD/GB_runPatches1.xlsx
175	patches	True	n/a	723	0	n/a	n/a	1.0	0	right	n/a	n/a	n/a	0	-0.0190474729054	blockFiles/set_40/main_PD/GB_runPatches1.xlsx
176	patches	True	n/a	723	0	n/a	n/a	1.0	1	right	n/a	n/a	n/a	1	0.061235910486399994	blockFiles/set_40/main_PD/GB_runPatches1.xlsx
177	patches	True	n/a	723	0	n/a	n/a	0.0	1	left	n/a	n/a	n/a	0	-0.0329908043332	blockFiles/set_40/main_PD/GB_runPatches1.xlsx
178	patches	True	n/a	723	0	n/a	n/a	1.0	1	right	n/a	n/a	n/a	1	0.0397480382957	blockFiles/set_40/main_PD/GB_runPatches1.xlsx
179	patches	True	n/a	723	0	n/a	n/a	1.0	1	right	n/a	n/a	n/a	1	0.016862528510399998	blockFiles/set_40/main_PD/GB_runPatches1.xlsx
180	patches	True	n/a	723	0	n/a	n/a	0.0	1	left	n/a	n/a	n/a	0	-0.0484049144574	blockFiles/set_40/main_PD/GB_runPatches1.xlsx
181	patches	True	n/a	723	0	n/a	n/a	1.0	0	right	n/a	n/a	n/a	0	-0.0048032746650299996	blockFiles/set_40/main_PD/GB_runPatches1.xlsx
182	patches	True	n/a	723	0	n/a	n/a	0.0	1	left	n/a	n/a	n/a	0	-0.0500245655887	blockFiles/set_40/main_PD/GB_runPatches1.xlsx
183	patches	True	n/a	723	0	n/a	n/a	1.0	1	right	n/a	n/a	n/a	1	0.0342044076696	blockFiles/set_40/main_PD/GB_runPatches1.xlsx
184	patches	True	n/a	723	0	n/a	n/a	0.0	1	left	n/a	n/a	n/a	0	-0.05362306196240001	blockFiles/set_40/main_PD/GB_runPatches1.xlsx
185	patches	True	n/a	723	0	n/a	n/a	0.0	1	left	n/a	n/a	n/a	0	-0.07334062282	blockFiles/set_40/main_PD/GB_runPatches1.xlsx
186	patches	True	n/a	723	0	n/a	n/a	1.0	1	right	n/a	n/a	n/a	1	0.030836125593599998	blockFiles/set_40/main_PD/GB_runPatches1.xlsx
187	patches	True	n/a	723	0	n/a	n/a	1.0	1	right	n/a	n/a	n/a	1	0.000846837721765	blockFiles/set_40/main_PD/GB_runPatches1.xlsx
188	patches	True	n/a	723	0	n/a	n/a	1.0	0	right	n/a	n/a	n/a	0	-0.04728592049330001	blockFiles/set_40/main_PD/GB_runPatches1.xlsx
189	patches	True	n/a	723	0	n/a	n/a	1.0	1	right	n/a	n/a	n/a	1	0.026131742131	blockFiles/set_40/main_PD/GB_runPatches1.xlsx
190	patches	True	n/a	723	0	n/a	n/a	0.0	1	left	n/a	n/a	n/a	0	-0.0768591492809	blockFiles/set_40/main_PD/GB_runPatches1.xlsx
191	patches	True	n/a	723	0	n/a	n/a	1.0	1	right	n/a	n/a	n/a	1	0.0796321156807	blockFiles/set_40/main_PD/GB_runPatches1.xlsx
192	patches	True	n/a	723	0	n/a	n/a	1.0	1	right	n/a	n/a	n/a	1	0.018219585921599998	blockFiles/set_40/main_PD/GB_runPatches1.xlsx
193	patches	True	n/a	723	0	n/a	n/a	0.0	1	left	n/a	n/a	n/a	0	-0.0339919452742	blockFiles/set_40/main_PD/GB_runPatches1.xlsx
194	patches	True	n/a	723	0	n/a	n/a	0.0	1	left	n/a	n/a	n/a	0	-0.0515534536354	blockFiles/set_40/main_PD/GB_runPatches1.xlsx
195	patches	True	n/a	723	0	n/a	n/a	1.0	1	right	n/a	n/a	n/a	1	0.0445226635598	blockFiles/set_40/main_PD/GB_runPatches1.xlsx
196	patches	True	n/a	723	0	n/a	n/a	1.0	1	right	n/a	n/a	n/a	1	0.0295568721369	blockFiles/set_40/main_PD/GB_runPatches1.xlsx
197	patches	True	n/a	723	0	n/a	n/a	1.0	1	right	n/a	n/a	n/a	1	0.0159152433835	blockFiles/set_40/main_PD/GB_runPatches1.xlsx
198	patches	True	n/a	723	0	n/a	n/a	0.0	1	left	n/a	n/a	n/a	0	-0.0110062365606	blockFiles/set_40/main_PD/GB_runPatches1.xlsx
199	patches	True	n/a	723	0	n/a	n/a	0.0	1	left	n/a	n/a	n/a	0	-0.060741643868399996	blockFiles/set_40/main_PD/GB_runPatches1.xlsx
200	patches	True	n/a	723	0	n/a	n/a	1.0	1	right	n/a	n/a	n/a	1	0.010495732482499999	blockFiles/set_40/main_PD/GB_runPatches1.xlsx
201	patches	True	n/a	723	0	n/a	n/a	0.0	1	left	n/a	n/a	n/a	0	-0.0656438472867	blockFiles/set_40/main_PD/GB_runPatches1.xlsx
202	patches	True	n/a	723	0	n/a	n/a	1.0	1	right	n/a	n/a	n/a	1	0.0612104102597	blockFiles/set_40/main_PD/GB_runPatches1.xlsx
203	patches	True	n/a	723	0	n/a	n/a	1.0	1	right	n/a	n/a	n/a	1	0.0541194119118	blockFiles/set_40/main_PD/GB_runPatches1.xlsx
204	patches	True	n/a	723	0	n/a	n/a	0.0	1	left	n/a	n/a	n/a	0	-0.06781173665080001	blockFiles/set_40/main_PD/GB_runPatches1.xlsx
205	patches	True	n/a	723	0	n/a	n/a	1.0	1	right	n/a	n/a	n/a	1	0.048216592893	blockFiles/set_40/main_PD/GB_runPatches1.xlsx
206	patches	True	n/a	723	0	n/a	n/a	1.0	1	right	n/a	n/a	n/a	1	0.009549500793219999	blockFiles/set_40/main_PD/GB_runPatches1.xlsx
207	patches	True	n/a	723	0	n/a	n/a	0.0	1	left	n/a	n/a	n/a	0	-0.0428843546845	blockFiles/set_40/main_PD/GB_runPatches1.xlsx
208	patches	True	n/a	723	0	n/a	n/a	0.0	1	left	n/a	n/a	n/a	0	-0.038300498798500004	blockFiles/set_40/main_PD/GB_runPatches1.xlsx
209	patches	True	n/a	723	0	n/a	n/a	1.0	1	right	n/a	n/a	n/a	1	0.04315166972580001	blockFiles/set_40/main_PD/GB_runPatches1.xlsx
210	patches	True	n/a	723	0	n/a	n/a	0.0	1	left	n/a	n/a	n/a	0	-0.06247964238749999	blockFiles/set_40/main_PD/GB_runPatches1.xlsx
211	patches	True	n/a	723	0	n/a	n/a	1.0	0	right	n/a	n/a	n/a	0	-0.0242890722491	blockFiles/set_40/main_PD/GB_runPatches1.xlsx
212	patches	True	n/a	723	0	n/a	n/a	1.0	1	right	n/a	n/a	n/a	1	0.0313379045203	blockFiles/set_40/main_PD/GB_runPatches1.xlsx
213	patches	True	n/a	723	0	n/a	n/a	1.0	1	right	n/a	n/a	n/a	1	0.027197420932400004	blockFiles/set_40/main_PD/GB_runPatches1.xlsx
214	patches	True	n/a	723	0	n/a	n/a	1.0	1	right	n/a	n/a	n/a	1	0.037139445655	blockFiles/set_40/main_PD/GB_runPatches1.xlsx
215	patches	True	n/a	723	0	n/a	n/a	0.0	1	left	n/a	n/a	n/a	0	-0.0787452040054	blockFiles/set_40/main_PD/GB_runPatches1.xlsx
216	patches	True	n/a	723	0	n/a	n/a	1.0	0	right	n/a	n/a	n/a	0	-0.00812809312716	blockFiles/set_40/main_PD/GB_runPatches1.xlsx
217	patches	True	n/a	723	0	n/a	n/a	1.0	1	right	n/a	n/a	n/a	1	0.07888909824189999	blockFiles/set_40/main_PD/GB_runPatches1.xlsx
218	patches	True	n/a	723	0	n/a	n/a	1.0	0	right	n/a	n/a	n/a	0	-0.0027497242391100003	blockFiles/set_40/main_PD/GB_runPatches1.xlsx
219	patches	True	n/a	723	0	n/a	n/a	1.0	1	right	n/a	n/a	n/a	1	0.042865208219699996	blockFiles/set_40/main_PD/GB_runPatches1.xlsx
220	patches	True	n/a	723	0	n/a	n/a	0.0	1	left	n/a	n/a	n/a	0	-0.0406595835276	blockFiles/set_40/main_PD/GB_runPatches1.xlsx
221	patches	True	n/a	723	0	n/a	n/a	0.0	1	left	n/a	n/a	n/a	0	-0.0722518485412	blockFiles/set_40/main_PD/GB_runPatches1.xlsx
222	patches	True	n/a	723	0	n/a	n/a	1.0	1	right	n/a	n/a	n/a	1	0.014766624588500001	blockFiles/set_40/main_PD/GB_runPatches1.xlsx
223	patches	True	n/a	723	0	n/a	n/a	1.0	1	right	n/a	n/a	n/a	1	0.056791065	blockFiles/set_40/main_PD/GB_runPatches1.xlsx
224	patches	True	n/a	723	0	n/a	n/a	1.0	1	right	n/a	n/a	n/a	1	0.078307860028	blockFiles/set_40/main_PD/GB_runPatches1.xlsx
225	patches	True	n/a	723	0	n/a	n/a	1.0	1	right	n/a	n/a	n/a	1	0.0333293641172	blockFiles/set_40/main_PD/GB_runPatches1.xlsx
226	patches	True	n/a	723	0	n/a	n/a	0.0	1	left	n/a	n/a	n/a	0	-0.0534515720606	blockFiles/set_40/main_PD/GB_runPatches1.xlsx
227	patches	True	n/a	723	0	n/a	n/a	1.0	0	right	n/a	n/a	n/a	0	-0.0037699673324799996	blockFiles/set_40/main_PD/GB_runPatches1.xlsx
228	patches	True	n/a	723	0	n/a	n/a	1.0	1	right	n/a	n/a	n/a	1	0.0010218649916399999	blockFiles/set_40/main_PD/GB_runPatches1.xlsx
229	patches	True	n/a	723	0	n/a	n/a	1.0	1	right	n/a	n/a	n/a	1	0.060019680913500004	blockFiles/set_40/main_PD/GB_runPatches1.xlsx
230	patches	True	n/a	723	0	n/a	n/a	0.0	1	left	n/a	n/a	n/a	0	-0.06099889419969999	blockFiles/set_40/main_PD/GB_runPatches1.xlsx
231	patches	True	n/a	723	0	n/a	n/a	1.0	1	right	n/a	n/a	n/a	1	0.0160841158964	blockFiles/set_40/main_PD/GB_runPatches1.xlsx
232	patches	True	n/a	723	0	n/a	n/a	0.0	1	left	n/a	n/a	n/a	0	-0.0572720724158	blockFiles/set_40/main_PD/GB_runPatches1.xlsx
233	patches	True	n/a	723	0	n/a	n/a	1.0	1	right	n/a	n/a	n/a	1	0.040088493768099996	blockFiles/set_40/main_PD/GB_runPatches1.xlsx
234	patches	True	n/a	723	0	n/a	n/a	0.0	1	left	n/a	n/a	n/a	0	-0.0705001221038	blockFiles/set_40/main_PD/GB_runPatches1.xlsx
235	patches	True	n/a	723	0	n/a	n/a	0.0	0	left	n/a	n/a	n/a	1	0.0472116837464	blockFiles/set_40/main_PD/GB_runPatches1.xlsx
236	patches	True	n/a	723	0	n/a	n/a	1.0	1	right	n/a	n/a	n/a	1	0.0204433644377	blockFiles/set_40/main_PD/GB_runPatches1.xlsx
237	patches	True	n/a	723	0	n/a	n/a	0.0	1	left	n/a	n/a	n/a	0	-0.049916914831800004	blockFiles/set_40/main_PD/GB_runPatches1.xlsx
238	patches	True	n/a	723	0	n/a	n/a	1.0	1	right	n/a	n/a	n/a	1	0.0344746960141	blockFiles/set_40/main_PD/GB_runPatches1.xlsx
239	patches	True	n/a	723	0	n/a	n/a	1.0	1	right	n/a	n/a	n/a	1	0.0768153544143	blockFiles/set_40/main_PD/GB_runPatches1.xlsx
240	patches	True	n/a	723	0	n/a	n/a	1.0	0	right	n/a	n/a	n/a	0	-0.0108792123199	blockFiles/set_40/main_PD/GB_runPatches1.xlsx
241	patches	True	n/a	723	0	n/a	n/a	0.0	1	left	n/a	n/a	n/a	0	-0.0770324961469	blockFiles/set_40/main_PD/GB_runPatches1.xlsx
242	patches	True	n/a	723	0	n/a	n/a	0.0	1	left	n/a	n/a	n/a	0	-0.0382770262845	blockFiles/set_40/main_PD/GB_runPatches1.xlsx
243	patches	True	n/a	723	0	n/a	n/a	0.0	1	left	n/a	n/a	n/a	0	-0.0326619734056	blockFiles/set_40/main_PD/GB_runPatches1.xlsx
244	patches	True	n/a	723	0	n/a	n/a	0.0	1	left	n/a	n/a	n/a	0	-0.0488436411135	blockFiles/set_40/main_PD/GB_runPatches1.xlsx
245	patches	True	n/a	723	0	n/a	n/a	0.0	1	left	n/a	n/a	n/a	0	-0.008880575243379998	blockFiles/set_40/main_PD/GB_runPatches1.xlsx
246	patches	True	n/a	723	0	n/a	n/a	1.0	1	right	n/a	n/a	n/a	1	0.0139363720827	blockFiles/set_40/main_PD/GB_runPatches1.xlsx
247	patches	True	n/a	723	0	n/a	n/a	0.0	0	left	n/a	n/a	n/a	1	0.0754845288023	blockFiles/set_40/main_PD/GB_runPatches1.xlsx
248	patches	True	n/a	723	0	n/a	n/a	1.0	1	right	n/a	n/a	n/a	1	0.0633258730918	blockFiles/set_40/main_PD/GB_runPatches1.xlsx
249	patches	True	n/a	723	0	n/a	n/a	0.0	1	left	n/a	n/a	n/a	0	-0.0432406772859	blockFiles/set_40/main_PD/GB_runPatches1.xlsx
250	patches	True	n/a	723	0	n/a	n/a	1.0	1	right	n/a	n/a	n/a	1	0.0266941583157	blockFiles/set_40/main_PD/GB_runPatches1.xlsx
251	main_unc	True	0.0	723	0	0.0	0.0	1.0	1	right	1.0	0.0	0.0	1	0.0443504116684	blockFiles/set_40/main_unc/rightBlue\GB_RB_1.xlsx
252	main_unc	True	0.0	723	0	0.0	0.0	0.0	0	left	1.0	0.0	0.0	1	0.022179412003599998	blockFiles/set_40/main_unc/rightBlue\GB_RB_1.xlsx
253	main_unc	True	0.0	723	0	0.0	0.0	0.0	1	left	1.0	1.0	1.0	0	-0.0532637042366	blockFiles/set_40/main_unc/rightBlue\GB_RB_1.xlsx
254	main_unc	True	0.0	723	0	0.0	0.0	0.0	1	left	1.0	1.0	1.0	0	-0.0638175171427	blockFiles/set_40/main_unc/rightBlue\GB_RB_1.xlsx
255	main_unc	True	0.0	723	0	0.0	0.0	0.0	0	left	1.0	0.0	0.0	1	0.00028482159599699995	blockFiles/set_40/main_unc/rightBlue\GB_RB_1.xlsx
256	main_unc	True	0.0	723	0	0.0	0.0	1.0	1	right	2.0	1.0	1.0	1	0.0297396767512	blockFiles/set_40/main_unc/rightBlue\GB_RB_1.xlsx
257	main_unc	True	0.0	723	0	0.0	0.0	1.0	1	right	2.0	1.0	1.0	1	0.07245970927180001	blockFiles/set_40/main_unc/rightBlue\GB_RB_1.xlsx
258	main_unc	True	0.0	723	0	0.0	0.0	0.0	1	left	1.0	1.0	1.0	0	-0.06910859908910001	blockFiles/set_40/main_unc/rightBlue\GB_RB_1.xlsx
259	main_unc	True	0.0	723	0	0.0	0.0	0.0	0	left	1.0	0.0	0.0	1	0.0103958536126	blockFiles/set_40/main_unc/rightBlue\GB_RB_1.xlsx
260	main_unc	True	0.0	723	0	0.0	0.0	0.0	1	left	1.0	1.0	1.0	0	-0.0791299907677	blockFiles/set_40/main_unc/rightBlue\GB_RB_1.xlsx
261	main_unc	True	0.0	723	0	0.0	0.0	0.0	1	left	1.0	1.0	1.0	0	-0.0209627483971	blockFiles/set_40/main_unc/rightBlue\GB_RB_1.xlsx
262	main_unc	True	0.0	723	0	0.0	0.0	1.0	1	right	2.0	1.0	1.0	1	0.0722966969945	blockFiles/set_40/main_unc/rightBlue\GB_RB_1.xlsx
263	main_unc	True	0.0	723	0	0.0	0.0	1.0	1	right	2.0	1.0	1.0	1	0.0444331735559	blockFiles/set_40/main_unc/rightBlue\GB_RB_1.xlsx
264	main_unc	True	0.0	723	0	0.0	0.0	0.0	1	left	1.0	1.0	1.0	0	-0.0303562245518	blockFiles/set_40/main_unc/rightBlue\GB_RB_1.xlsx
265	main_unc	True	0.0	723	0	0.0	0.0	0.0	1	left	1.0	1.0	1.0	0	-0.0288821797632	blockFiles/set_40/main_unc/rightBlue\GB_RB_1.xlsx
266	main_unc	True	0.0	723	0	0.0	0.0	1.0	1	right	2.0	0.0	1.0	1	0.06066288603469999	blockFiles/set_40/main_unc/rightBlue\GB_RB_1.xlsx
267	main_unc	True	0.0	723	0	0.0	0.0	1.0	1	right	2.0	1.0	1.0	1	0.034787627738	blockFiles/set_40/main_unc/rightBlue\GB_RB_1.xlsx
268	main_unc	True	0.0	723	0	0.0	0.0	1.0	1	right	2.0	1.0	1.0	1	0.0338675940596	blockFiles/set_40/main_unc/rightBlue\GB_RB_1.xlsx
269	main_unc	True	0.0	723	0	0.0	0.0	0.0	1	left	1.0	0.0	1.0	0	-0.04993445470930001	blockFiles/set_40/main_unc/rightBlue\GB_RB_1.xlsx
270	main_unc	True	0.0	723	0	0.0	0.0	0.0	1	left	1.0	0.0	1.0	0	-0.0353346056677	blockFiles/set_40/main_unc/rightBlue\GB_RB_1.xlsx
271	main_unc	True	0.0	723	0	0.0	0.0	0.0	1	left	1.0	1.0	1.0	0	-0.0367436467856	blockFiles/set_40/main_unc/rightBlue\GB_RB_1.xlsx
272	main_unc	True	0.0	723	0	0.0	0.0	0.0	1	left	1.0	1.0	1.0	0	-0.072995043993	blockFiles/set_40/main_unc/rightBlue\GB_RB_1.xlsx
273	main_unc	True	0.0	723	0	0.0	0.0	1.0	1	right	2.0	0.0	1.0	1	0.047331828940699996	blockFiles/set_40/main_unc/rightBlue\GB_RB_1.xlsx
274	main_unc	True	0.0	723	0	0.0	0.0	1.0	0	right	2.0	0.0	0.0	0	-0.0053607176058	blockFiles/set_40/main_unc/rightBlue\GB_RB_1.xlsx
275	main_unc	True	0.0	723	0	0.0	0.0	0.0	1	left	1.0	0.0	1.0	0	-0.032616510968700003	blockFiles/set_40/main_unc/rightBlue\GB_RB_1.xlsx
276	main_unc	True	0.0	723	0	1.0	1.0	0.0	1	left	1.0	0.0	0.0	0	-0.0227600417659	blockFiles/set_40/main_unc/leftBlue\GB_LB_5.xlsx
277	main_unc	True	0.0	723	0	1.0	1.0	0.0	1	left	1.0	0.0	0.0	0	-0.0522133175284	blockFiles/set_40/main_unc/leftBlue\GB_LB_5.xlsx
278	main_unc	True	0.0	723	0	1.0	1.0	0.0	1	left	1.0	0.0	0.0	0	-0.0450402511284	blockFiles/set_40/main_unc/leftBlue\GB_LB_5.xlsx
279	main_unc	True	0.0	723	0	1.0	1.0	1.0	1	right	1.0	1.0	1.0	1	0.0249361283146	blockFiles/set_40/main_unc/leftBlue\GB_LB_5.xlsx
280	main_unc	True	0.0	723	0	1.0	1.0	0.0	0	left	1.0	1.0	1.0	1	0.013289457466500001	blockFiles/set_40/main_unc/leftBlue\GB_LB_5.xlsx
281	main_unc	True	0.0	723	0	1.0	1.0	0.0	1	left	2.0	1.0	1.0	0	-0.0464862287603	blockFiles/set_40/main_unc/leftBlue\GB_LB_5.xlsx
282	main_unc	True	0.0	723	0	1.0	1.0	0.0	1	left	2.0	1.0	1.0	0	-0.0183728964999	blockFiles/set_40/main_unc/leftBlue\GB_LB_5.xlsx
283	main_unc	True	0.0	723	0	1.0	1.0	1.0	1	right	1.0	1.0	1.0	1	0.0272229711711	blockFiles/set_40/main_unc/leftBlue\GB_LB_5.xlsx
284	main_unc	True	0.0	723	0	1.0	1.0	0.0	1	left	2.0	1.0	1.0	0	-0.0661649799719	blockFiles/set_40/main_unc/leftBlue\GB_LB_5.xlsx
285	main_unc	True	0.0	723	0	1.0	1.0	0.0	1	left	2.0	1.0	1.0	0	-0.051134026553499995	blockFiles/set_40/main_unc/leftBlue\GB_LB_5.xlsx
286	main_unc	True	0.0	723	0	1.0	1.0	1.0	1	right	1.0	1.0	1.0	1	0.010899269748500001	blockFiles/set_40/main_unc/leftBlue\GB_LB_5.xlsx
287	main_unc	True	0.0	723	0	1.0	1.0	1.0	0	right	2.0	1.0	1.0	0	-0.028774667065599998	blockFiles/set_40/main_unc/leftBlue\GB_LB_5.xlsx
288	main_unc	True	0.0	723	0	1.0	1.0	1.0	1	right	1.0	1.0	1.0	1	0.0181908195838	blockFiles/set_40/main_unc/leftBlue\GB_LB_5.xlsx
289	main_unc	True	0.0	723	0	1.0	1.0	1.0	1	right	1.0	1.0	1.0	1	0.070731799528	blockFiles/set_40/main_unc/leftBlue\GB_LB_5.xlsx
290	main_unc	True	0.0	723	0	1.0	1.0	1.0	1	right	1.0	0.0	1.0	1	0.0662855135463	blockFiles/set_40/main_unc/leftBlue\GB_LB_5.xlsx
291	main_unc	True	0.0	723	0	1.0	1.0	0.0	1	left	2.0	1.0	1.0	0	-0.0437561716139	blockFiles/set_40/main_unc/leftBlue\GB_LB_5.xlsx
292	main_unc	True	0.0	723	0	1.0	1.0	1.0	0	right	1.0	0.0	0.0	0	-0.0691691517457	blockFiles/set_40/main_unc/leftBlue\GB_LB_5.xlsx
293	main_unc	True	0.0	723	0	1.0	1.0	1.0	1	right	1.0	1.0	1.0	1	0.021165364794400003	blockFiles/set_40/main_unc/leftBlue\GB_LB_5.xlsx
294	main_unc	True	0.0	723	0	1.0	1.0	1.0	1	right	1.0	1.0	1.0	1	0.0238147617318	blockFiles/set_40/main_unc/leftBlue\GB_LB_5.xlsx
295	main_unc	True	0.0	723	0	1.0	1.0	1.0	1	right	1.0	0.0	1.0	1	0.009718037005510001	blockFiles/set_40/main_unc/leftBlue\GB_LB_5.xlsx
296	main_unc	True	1.0	723	0	1.0	1.0	n/a	0	None	n/a	0.0	n/a	1	0.0603988071345	blockFiles/set_40/main_unc/leftBlue\GB_LB_5.xlsx
297	main_unc	True	0.0	723	0	1.0	1.0	1.0	0	right	1.0	1.0	0.0	0	-0.0233360542729	blockFiles/set_40/main_unc/leftBlue\GB_LB_5.xlsx
298	main_unc	True	0.0	723	0	1.0	1.0	0.0	1	left	2.0	0.0	1.0	0	-0.00644443817437	blockFiles/set_40/main_unc/leftBlue\GB_LB_5.xlsx
299	main_unc	True	0.0	723	0	1.0	1.0	1.0	1	right	1.0	1.0	1.0	1	0.0732119648345	blockFiles/set_40/main_unc/leftBlue\GB_LB_5.xlsx
300	main_unc	True	0.0	723	0	1.0	1.0	0.0	1	left	2.0	1.0	1.0	0	-0.0477684340999	blockFiles/set_40/main_unc/leftBlue\GB_LB_5.xlsx
301	main_unc	True	0.0	723	0	1.0	1.0	1.0	1	right	1.0	1.0	1.0	1	0.0603988071345	blockFiles/set_40/main_unc/leftBlue\GB_LB_5.xlsx
302	main_unc	True	0.0	723	0	2.0	2.0	0.0	1	left	2.0	1.0	1.0	0	-0.07725536692889999	blockFiles/set_40/main_unc/leftBlue\GB_LB_1.xlsx
303	main_unc	True	0.0	723	0	2.0	2.0	0.0	1	left	2.0	1.0	1.0	0	-0.0617875927128	blockFiles/set_40/main_unc/leftBlue\GB_LB_1.xlsx
304	main_unc	True	0.0	723	0	2.0	2.0	0.0	1	left	2.0	1.0	1.0	0	-0.019811066016599998	blockFiles/set_40/main_unc/leftBlue\GB_LB_1.xlsx
305	main_unc	True	0.0	723	0	2.0	2.0	1.0	1	right	1.0	1.0	1.0	1	0.0678002516739	blockFiles/set_40/main_unc/leftBlue\GB_LB_1.xlsx
306	main_unc	True	0.0	723	0	2.0	2.0	0.0	1	left	2.0	0.0	1.0	0	-0.0202607008815	blockFiles/set_40/main_unc/leftBlue\GB_LB_1.xlsx
307	main_unc	True	0.0	723	0	2.0	2.0	0.0	0	left	2.0	0.0	0.0	1	0.0365762183629	blockFiles/set_40/main_unc/leftBlue\GB_LB_1.xlsx
308	main_unc	True	0.0	723	0	2.0	2.0	1.0	1	right	1.0	1.0	1.0	1	0.0547114674002	blockFiles/set_40/main_unc/leftBlue\GB_LB_1.xlsx
309	main_unc	True	1.0	723	0	2.0	2.0	0.0	1	left	n/a	0.0	n/a	0	-0.0204705727473	blockFiles/set_40/main_unc/leftBlue\GB_LB_1.xlsx
310	main_unc	True	0.0	723	0	2.0	2.0	0.0	0	left	2.0	0.0	0.0	1	0.00396417178214	blockFiles/set_40/main_unc/leftBlue\GB_LB_1.xlsx
311	main_unc	True	0.0	723	0	2.0	2.0	1.0	1	right	1.0	1.0	1.0	1	0.0276078965329	blockFiles/set_40/main_unc/leftBlue\GB_LB_1.xlsx
312	main_unc	True	0.0	723	0	2.0	2.0	1.0	1	right	1.0	1.0	1.0	1	0.0655376202054	blockFiles/set_40/main_unc/leftBlue\GB_LB_1.xlsx
313	main_unc	True	0.0	723	0	2.0	2.0	0.0	1	left	2.0	1.0	1.0	0	-0.0587736146711	blockFiles/set_40/main_unc/leftBlue\GB_LB_1.xlsx
314	main_unc	True	0.0	723	0	2.0	2.0	1.0	1	right	1.0	1.0	1.0	1	0.0346721519344	blockFiles/set_40/main_unc/leftBlue\GB_LB_1.xlsx
315	main_unc	True	0.0	723	0	2.0	2.0	0.0	1	left	2.0	1.0	1.0	0	-0.0672341014817	blockFiles/set_40/main_unc/leftBlue\GB_LB_1.xlsx
316	main_unc	True	0.0	723	0	2.0	2.0	0.0	1	left	2.0	0.0	1.0	0	-0.018037931658299998	blockFiles/set_40/main_unc/leftBlue\GB_LB_1.xlsx
317	main_unc	True	0.0	723	0	2.0	2.0	1.0	1	right	1.0	0.0	1.0	1	0.0624381593987	blockFiles/set_40/main_unc/leftBlue\GB_LB_1.xlsx
318	main_unc	True	0.0	723	0	2.0	2.0	0.0	1	left	2.0	1.0	1.0	0	-0.0564937106892	blockFiles/set_40/main_unc/leftBlue\GB_LB_1.xlsx
319	main_unc	True	0.0	723	0	2.0	2.0	1.0	0	right	1.0	0.0	0.0	0	-0.0130683802627	blockFiles/set_40/main_unc/leftBlue\GB_LB_1.xlsx
320	main_unc	True	0.0	723	0	2.0	2.0	0.0	1	left	2.0	1.0	1.0	0	-0.0631123571284	blockFiles/set_40/main_unc/leftBlue\GB_LB_1.xlsx
321	main_unc	True	0.0	723	0	2.0	2.0	1.0	1	right	1.0	1.0	1.0	1	0.0516352402233	blockFiles/set_40/main_unc/leftBlue\GB_LB_1.xlsx
322	main_unc	True	0.0	723	0	2.0	2.0	1.0	1	right	1.0	1.0	1.0	1	0.0454375723563	blockFiles/set_40/main_unc/leftBlue\GB_LB_1.xlsx
323	main_unc	True	0.0	723	0	2.0	2.0	0.0	1	left	2.0	1.0	1.0	0	-0.05175898863	blockFiles/set_40/main_unc/leftBlue\GB_LB_1.xlsx
324	main_unc	True	0.0	723	0	2.0	2.0	1.0	1	right	1.0	0.0	1.0	1	0.0044339752197299995	blockFiles/set_40/main_unc/leftBlue\GB_LB_1.xlsx
325	main_unc	True	0.0	723	0	2.0	2.0	1.0	1	right	1.0	1.0	1.0	1	0.0759498853423	blockFiles/set_40/main_unc/leftBlue\GB_LB_1.xlsx
326	main_unc	True	0.0	723	0	2.0	2.0	1.0	0	right	1.0	0.0	0.0	0	-0.020950338952200002	blockFiles/set_40/main_unc/leftBlue\GB_LB_1.xlsx
327	main_unc	True	0.0	723	0	2.0	2.0	1.0	0	right	1.0	0.0	0.0	0	-0.0204705727473	blockFiles/set_40/main_unc/leftBlue\GB_LB_1.xlsx
328	main_unc	True	0.0	723	0	3.0	3.0	0.0	0	left	1.0	1.0	1.0	1	0.030485801864400003	blockFiles/set_40/main_unc/leftBlue\GB_LB_3.xlsx
329	main_unc	True	0.0	723	0	3.0	3.0	1.0	1	right	2.0	1.0	0.0	1	0.0400363217108	blockFiles/set_40/main_unc/leftBlue\GB_LB_3.xlsx
330	main_unc	True	0.0	723	0	3.0	3.0	0.0	1	left	1.0	0.0	0.0	0	-0.0307407483831	blockFiles/set_40/main_unc/leftBlue\GB_LB_3.xlsx
331	main_unc	True	0.0	723	0	3.0	3.0	1.0	0	right	1.0	0.0	0.0	0	-0.0333947650343	blockFiles/set_40/main_unc/leftBlue\GB_LB_3.xlsx
332	main_unc	True	0.0	723	0	3.0	3.0	0.0	1	left	1.0	0.0	0.0	0	-0.027160409558599996	blockFiles/set_40/main_unc/leftBlue\GB_LB_3.xlsx
333	main_unc	True	0.0	723	0	3.0	3.0	0.0	1	left	1.0	0.0	0.0	0	-0.0562609363906	blockFiles/set_40/main_unc/leftBlue\GB_LB_3.xlsx
334	main_unc	True	0.0	723	0	3.0	3.0	0.0	1	left	1.0	0.0	0.0	0	-0.0444190912507	blockFiles/set_40/main_unc/leftBlue\GB_LB_3.xlsx
335	main_unc	True	0.0	723	0	3.0	3.0	1.0	1	right	1.0	1.0	1.0	1	0.036047556158199996	blockFiles/set_40/main_unc/leftBlue\GB_LB_3.xlsx
336	main_unc	True	0.0	723	0	3.0	3.0	0.0	0	left	2.0	1.0	0.0	1	0.0161469947174	blockFiles/set_40/main_unc/leftBlue\GB_LB_3.xlsx
337	main_unc	True	0.0	723	0	3.0	3.0	0.0	1	left	2.0	0.0	1.0	0	-0.0785316928476	blockFiles/set_40/main_unc/leftBlue\GB_LB_3.xlsx
338	main_unc	True	0.0	723	0	3.0	3.0	0.0	1	left	2.0	1.0	1.0	0	-0.0504783645086	blockFiles/set_40/main_unc/leftBlue\GB_LB_3.xlsx
339	main_unc	True	0.0	723	0	3.0	3.0	1.0	1	right	1.0	1.0	1.0	1	0.0308829372004	blockFiles/set_40/main_unc/leftBlue\GB_LB_3.xlsx
340	main_unc	True	0.0	723	0	3.0	3.0	0.0	1	left	2.0	1.0	1.0	0	-0.0427091170102	blockFiles/set_40/main_unc/leftBlue\GB_LB_3.xlsx
341	main_unc	True	0.0	723	0	3.0	3.0	1.0	1	right	1.0	1.0	1.0	1	0.0250071496703	blockFiles/set_40/main_unc/leftBlue\GB_LB_3.xlsx
342	main_unc	True	0.0	723	0	3.0	3.0	1.0	1	right	1.0	1.0	1.0	1	0.028415238372999998	blockFiles/set_40/main_unc/leftBlue\GB_LB_3.xlsx
343	main_unc	True	0.0	723	0	3.0	3.0	1.0	1	right	1.0	1.0	1.0	1	0.009060455467549999	blockFiles/set_40/main_unc/leftBlue\GB_LB_3.xlsx
344	main_unc	True	0.0	723	0	3.0	3.0	1.0	0	right	1.0	1.0	0.0	0	-0.0347853851691	blockFiles/set_40/main_unc/leftBlue\GB_LB_3.xlsx
345	main_unc	True	0.0	723	0	3.0	3.0	0.0	1	left	2.0	1.0	1.0	0	-0.0738693969324	blockFiles/set_40/main_unc/leftBlue\GB_LB_3.xlsx
346	main_unc	True	0.0	723	0	3.0	3.0	0.0	1	left	2.0	1.0	1.0	0	-0.049067528843900005	blockFiles/set_40/main_unc/leftBlue\GB_LB_3.xlsx
347	main_unc	True	0.0	723	0	3.0	3.0	0.0	0	left	2.0	1.0	0.0	1	0.023271227143700002	blockFiles/set_40/main_unc/leftBlue\GB_LB_3.xlsx
348	main_unc	True	0.0	723	0	3.0	3.0	1.0	1	right	1.0	1.0	1.0	1	0.0776365084574	blockFiles/set_40/main_unc/leftBlue\GB_LB_3.xlsx
349	main_unc	True	0.0	723	0	3.0	3.0	1.0	0	right	1.0	0.0	0.0	0	-0.0026957956329	blockFiles/set_40/main_unc/leftBlue\GB_LB_3.xlsx
350	main_unc	True	0.0	723	0	3.0	3.0	1.0	1	right	1.0	1.0	1.0	1	0.0780220541731	blockFiles/set_40/main_unc/leftBlue\GB_LB_3.xlsx
351	main_unc	True	0.0	723	0	3.0	3.0	0.0	1	left	2.0	1.0	1.0	0	-0.0533038236201	blockFiles/set_40/main_unc/leftBlue\GB_LB_3.xlsx
352	main_unc	True	0.0	723	0	3.0	3.0	1.0	1	right	1.0	1.0	1.0	1	0.0130291092768	blockFiles/set_40/main_unc/leftBlue\GB_LB_3.xlsx
353	main_unc	True	0.0	723	0	4.0	4.0	0.0	1	left	2.0	0.0	1.0	0	-0.020953247062900002	blockFiles/set_40/main_unc/leftBlue\GB_LB_4.xlsx
354	main_unc	True	0.0	723	0	4.0	4.0	0.0	1	left	2.0	1.0	1.0	0	-0.0525924599543	blockFiles/set_40/main_unc/leftBlue\GB_LB_4.xlsx
355	main_unc	True	0.0	723	0	4.0	4.0	0.0	1	left	2.0	1.0	1.0	0	-0.0134421979822	blockFiles/set_40/main_unc/leftBlue\GB_LB_4.xlsx
356	main_unc	True	0.0	723	0	4.0	4.0	1.0	1	right	1.0	1.0	1.0	1	0.0665371975489	blockFiles/set_40/main_unc/leftBlue\GB_LB_4.xlsx
357	main_unc	True	0.0	723	0	4.0	4.0	0.0	0	left	2.0	0.0	0.0	1	0.0454262438603	blockFiles/set_40/main_unc/leftBlue\GB_LB_4.xlsx
358	main_unc	True	0.0	723	0	4.0	4.0	1.0	1	right	1.0	1.0	1.0	1	0.0317937133834	blockFiles/set_40/main_unc/leftBlue\GB_LB_4.xlsx
359	main_unc	True	0.0	723	0	4.0	4.0	1.0	1	right	1.0	1.0	1.0	1	0.07619652614	blockFiles/set_40/main_unc/leftBlue\GB_LB_4.xlsx
360	main_unc	True	0.0	723	0	4.0	4.0	1.0	1	right	1.0	0.0	1.0	1	0.032072424721	blockFiles/set_40/main_unc/leftBlue\GB_LB_4.xlsx
361	main_unc	True	0.0	723	0	4.0	4.0	0.0	1	left	2.0	1.0	1.0	0	-0.00911317851394	blockFiles/set_40/main_unc/leftBlue\GB_LB_4.xlsx
362	main_unc	True	0.0	723	0	4.0	4.0	1.0	1	right	1.0	1.0	1.0	1	0.0517296359688	blockFiles/set_40/main_unc/leftBlue\GB_LB_4.xlsx
363	main_unc	True	0.0	723	0	4.0	4.0	1.0	1	right	1.0	1.0	1.0	1	0.0757042670622	blockFiles/set_40/main_unc/leftBlue\GB_LB_4.xlsx
364	main_unc	True	0.0	723	0	4.0	4.0	1.0	0	right	1.0	0.0	0.0	0	-0.042369102556300005	blockFiles/set_40/main_unc/leftBlue\GB_LB_4.xlsx
365	main_unc	True	0.0	723	0	4.0	4.0	1.0	1	right	1.0	0.0	1.0	1	0.027623312845799997	blockFiles/set_40/main_unc/leftBlue\GB_LB_4.xlsx
366	main_unc	True	0.0	723	0	4.0	4.0	0.0	1	left	2.0	1.0	1.0	0	-0.00209415214136	blockFiles/set_40/main_unc/leftBlue\GB_LB_4.xlsx
367	main_unc	True	0.0	723	0	4.0	4.0	1.0	1	right	1.0	1.0	1.0	1	0.0643318009004	blockFiles/set_40/main_unc/leftBlue\GB_LB_4.xlsx
368	main_unc	True	0.0	723	0	4.0	4.0	1.0	1	right	1.0	1.0	1.0	1	0.0594416011125	blockFiles/set_40/main_unc/leftBlue\GB_LB_4.xlsx
369	main_unc	True	0.0	723	0	4.0	4.0	1.0	1	right	1.0	0.0	1.0	1	0.0674870318361	blockFiles/set_40/main_unc/leftBlue\GB_LB_4.xlsx
370	main_unc	True	0.0	723	0	4.0	4.0	0.0	1	left	2.0	1.0	1.0	0	-0.024140842053999998	blockFiles/set_40/main_unc/leftBlue\GB_LB_4.xlsx
371	main_unc	True	0.0	723	0	4.0	4.0	1.0	1	right	1.0	1.0	1.0	1	0.0682497592084	blockFiles/set_40/main_unc/leftBlue\GB_LB_4.xlsx
372	main_unc	True	0.0	723	0	4.0	4.0	0.0	1	left	2.0	0.0	1.0	0	-0.061265381556000004	blockFiles/set_40/main_unc/leftBlue\GB_LB_4.xlsx
373	main_unc	True	0.0	723	0	4.0	4.0	0.0	1	left	2.0	0.0	1.0	0	-0.0350193767436	blockFiles/set_40/main_unc/leftBlue\GB_LB_4.xlsx
374	main_unc	True	0.0	723	0	4.0	4.0	0.0	1	left	2.0	1.0	1.0	0	-0.0106530879624	blockFiles/set_40/main_unc/leftBlue\GB_LB_4.xlsx
375	main_unc	True	0.0	723	0	4.0	4.0	0.0	1	left	2.0	1.0	1.0	0	-0.00775333210826	blockFiles/set_40/main_unc/leftBlue\GB_LB_4.xlsx
376	main_unc	True	0.0	723	0	4.0	4.0	0.0	1	left	2.0	1.0	1.0	0	-0.07469600014389999	blockFiles/set_40/main_unc/leftBlue\GB_LB_4.xlsx
377	main_unc	True	0.0	723	0	4.0	4.0	0.0	1	left	2.0	1.0	1.0	0	-0.047373731750999994	blockFiles/set_40/main_unc/leftBlue\GB_LB_4.xlsx
378	main_unc	True	0.0	723	0	5.0	5.0	1.0	1	right	2.0	1.0	1.0	1	0.0664785974845	blockFiles/set_40/main_unc/rightBlue\GB_RB_4.xlsx
379	main_unc	True	0.0	723	0	5.0	5.0	0.0	1	left	1.0	1.0	1.0	0	-0.026146111804999997	blockFiles/set_40/main_unc/rightBlue\GB_RB_4.xlsx
380	main_unc	True	0.0	723	0	5.0	5.0	0.0	1	left	1.0	0.0	1.0	0	-0.0432253273204	blockFiles/set_40/main_unc/rightBlue\GB_RB_4.xlsx
381	main_unc	True	0.0	723	0	5.0	5.0	0.0	1	left	1.0	1.0	1.0	0	-0.0031404957734000004	blockFiles/set_40/main_unc/rightBlue\GB_RB_4.xlsx
382	main_unc	True	0.0	723	0	5.0	5.0	0.0	1	left	1.0	1.0	1.0	0	-0.0221854862943	blockFiles/set_40/main_unc/rightBlue\GB_RB_4.xlsx
383	main_unc	True	0.0	723	0	5.0	5.0	0.0	1	left	1.0	1.0	1.0	0	-0.040519243832699996	blockFiles/set_40/main_unc/rightBlue\GB_RB_4.xlsx
384	main_unc	True	0.0	723	0	5.0	5.0	0.0	1	left	1.0	1.0	1.0	0	-0.0783930966258	blockFiles/set_40/main_unc/rightBlue\GB_RB_4.xlsx
385	main_unc	True	0.0	723	0	5.0	5.0	0.0	0	left	1.0	0.0	0.0	1	0.0338355234638	blockFiles/set_40/main_unc/rightBlue\GB_RB_4.xlsx
386	main_unc	True	0.0	723	0	5.0	5.0	0.0	1	left	1.0	0.0	1.0	0	-0.0319741922431	blockFiles/set_40/main_unc/rightBlue\GB_RB_4.xlsx
387	main_unc	True	0.0	723	0	5.0	5.0	1.0	1	right	2.0	1.0	1.0	1	0.07043240960689999	blockFiles/set_40/main_unc/rightBlue\GB_RB_4.xlsx
388	main_unc	True	0.0	723	0	5.0	5.0	0.0	1	left	1.0	1.0	1.0	0	-0.0192058657482	blockFiles/set_40/main_unc/rightBlue\GB_RB_4.xlsx
389	main_unc	True	0.0	723	0	5.0	5.0	0.0	1	left	1.0	1.0	1.0	0	-0.0212645314261	blockFiles/set_40/main_unc/rightBlue\GB_RB_4.xlsx
390	main_unc	True	0.0	723	0	5.0	5.0	1.0	1	right	2.0	0.0	1.0	1	0.028454826083	blockFiles/set_40/main_unc/rightBlue\GB_RB_4.xlsx
391	main_unc	True	0.0	723	0	5.0	5.0	1.0	1	right	2.0	1.0	1.0	1	0.017846057712999998	blockFiles/set_40/main_unc/rightBlue\GB_RB_4.xlsx
392	main_unc	True	0.0	723	0	5.0	5.0	0.0	1	left	1.0	0.0	1.0	0	-0.06473705865439999	blockFiles/set_40/main_unc/rightBlue\GB_RB_4.xlsx
393	main_unc	True	0.0	723	0	5.0	5.0	1.0	1	right	2.0	0.0	1.0	1	0.0685279185697	blockFiles/set_40/main_unc/rightBlue\GB_RB_4.xlsx
394	main_unc	True	0.0	723	0	5.0	5.0	0.0	1	left	1.0	1.0	1.0	0	-0.0531234961376	blockFiles/set_40/main_unc/rightBlue\GB_RB_4.xlsx
395	main_unc	True	0.0	723	0	5.0	5.0	0.0	1	left	1.0	1.0	1.0	0	-0.0268886143155	blockFiles/set_40/main_unc/rightBlue\GB_RB_4.xlsx
396	main_unc	True	0.0	723	0	5.0	5.0	0.0	0	left	1.0	0.0	0.0	1	0.04889880308880001	blockFiles/set_40/main_unc/rightBlue\GB_RB_4.xlsx
397	main_unc	True	0.0	723	0	5.0	5.0	1.0	1	right	2.0	1.0	1.0	1	0.027003669980900005	blockFiles/set_40/main_unc/rightBlue\GB_RB_4.xlsx
398	main_unc	True	0.0	723	0	5.0	5.0	1.0	1	right	2.0	1.0	1.0	1	0.06560370655730001	blockFiles/set_40/main_unc/rightBlue\GB_RB_4.xlsx
399	main_unc	True	0.0	723	0	5.0	5.0	1.0	1	right	2.0	1.0	1.0	1	0.0161014275625	blockFiles/set_40/main_unc/rightBlue\GB_RB_4.xlsx
400	main_unc	True	0.0	723	0	5.0	5.0	1.0	1	right	2.0	1.0	1.0	1	0.076661665719	blockFiles/set_40/main_unc/rightBlue\GB_RB_4.xlsx
401	main_unc	True	0.0	723	0	5.0	5.0	1.0	1	right	2.0	1.0	1.0	1	0.036712558977300004	blockFiles/set_40/main_unc/rightBlue\GB_RB_4.xlsx
402	main_unc	True	1.0	723	0	5.0	5.0	n/a	0	None	n/a	0.0	n/a	0	-0.0648517535068	blockFiles/set_40/main_unc/rightBlue\GB_RB_4.xlsx
403	main_unc	True	0.0	723	0	5.0	5.0	0.0	1	left	1.0	1.0	1.0	0	-0.0648517535068	blockFiles/set_40/main_unc/rightBlue\GB_RB_4.xlsx
404	main_unc	True	0.0	723	0	6.0	6.0	0.0	0	left	1.0	0.0	0.0	1	0.0546359937452	blockFiles/set_40/main_unc/rightBlue\GB_RB_3.xlsx
405	main_unc	True	0.0	723	0	6.0	6.0	0.0	0	left	1.0	1.0	0.0	1	0.0174664988928	blockFiles/set_40/main_unc/rightBlue\GB_RB_3.xlsx
406	main_unc	True	0.0	723	0	6.0	6.0	1.0	0	right	1.0	1.0	1.0	0	-0.028934100437900002	blockFiles/set_40/main_unc/rightBlue\GB_RB_3.xlsx
407	main_unc	True	0.0	723	0	6.0	6.0	0.0	1	left	1.0	1.0	1.0	0	-0.0302884620056	blockFiles/set_40/main_unc/rightBlue\GB_RB_3.xlsx
408	main_unc	True	0.0	723	0	6.0	6.0	0.0	1	left	1.0	1.0	1.0	0	-0.0653513164446	blockFiles/set_40/main_unc/rightBlue\GB_RB_3.xlsx
409	main_unc	True	0.0	723	0	6.0	6.0	1.0	1	right	2.0	1.0	1.0	1	0.022199967894700003	blockFiles/set_40/main_unc/rightBlue\GB_RB_3.xlsx
410	main_unc	True	0.0	723	0	6.0	6.0	1.0	1	right	2.0	1.0	1.0	1	0.0780986987613	blockFiles/set_40/main_unc/rightBlue\GB_RB_3.xlsx
411	main_unc	True	0.0	723	0	6.0	6.0	1.0	1	right	2.0	0.0	1.0	1	0.0180462150835	blockFiles/set_40/main_unc/rightBlue\GB_RB_3.xlsx
412	main_unc	True	0.0	723	0	6.0	6.0	1.0	1	right	2.0	1.0	1.0	1	0.00304604537785	blockFiles/set_40/main_unc/rightBlue\GB_RB_3.xlsx
413	main_unc	True	0.0	723	0	6.0	6.0	1.0	1	right	2.0	1.0	1.0	1	0.00660449795425	blockFiles/set_40/main_unc/rightBlue\GB_RB_3.xlsx
414	main_unc	True	0.0	723	0	6.0	6.0	1.0	1	right	2.0	1.0	1.0	1	0.0710797853209	blockFiles/set_40/main_unc/rightBlue\GB_RB_3.xlsx
415	main_unc	True	1.0	723	0	6.0	6.0	n/a	0	None	n/a	0.0	n/a	0	-0.0357592067495	blockFiles/set_40/main_unc/rightBlue\GB_RB_3.xlsx
416	main_unc	True	0.0	723	0	6.0	6.0	1.0	1	right	2.0	1.0	1.0	1	0.0421915414743	blockFiles/set_40/main_unc/rightBlue\GB_RB_3.xlsx
417	main_unc	True	0.0	723	0	6.0	6.0	1.0	1	right	2.0	1.0	1.0	1	0.0242628001608	blockFiles/set_40/main_unc/rightBlue\GB_RB_3.xlsx
418	main_unc	True	0.0	723	0	6.0	6.0	0.0	1	left	1.0	0.0	1.0	0	-0.0609806912951	blockFiles/set_40/main_unc/rightBlue\GB_RB_3.xlsx
419	main_unc	True	0.0	723	0	6.0	6.0	0.0	1	left	1.0	0.0	1.0	0	-0.061496619097899996	blockFiles/set_40/main_unc/rightBlue\GB_RB_3.xlsx
420	main_unc	True	0.0	723	0	6.0	6.0	0.0	1	left	1.0	1.0	1.0	0	-0.0700432762876	blockFiles/set_40/main_unc/rightBlue\GB_RB_3.xlsx
421	main_unc	True	0.0	723	0	6.0	6.0	0.0	0	left	1.0	0.0	0.0	1	0.00280537888408	blockFiles/set_40/main_unc/rightBlue\GB_RB_3.xlsx
422	main_unc	True	0.0	723	0	6.0	6.0	0.0	1	left	1.0	1.0	1.0	0	-0.0452823768929	blockFiles/set_40/main_unc/rightBlue\GB_RB_3.xlsx
423	main_unc	True	0.0	723	0	6.0	6.0	0.0	1	left	1.0	1.0	1.0	0	-0.0223027024046	blockFiles/set_40/main_unc/rightBlue\GB_RB_3.xlsx
424	main_unc	True	0.0	723	0	6.0	6.0	0.0	1	left	1.0	1.0	1.0	0	-0.0299367020279	blockFiles/set_40/main_unc/rightBlue\GB_RB_3.xlsx
425	main_unc	True	0.0	723	0	6.0	6.0	1.0	0	right	2.0	0.0	0.0	0	-0.0008498109132050001	blockFiles/set_40/main_unc/rightBlue\GB_RB_3.xlsx
426	main_unc	True	0.0	723	0	6.0	6.0	0.0	1	left	1.0	1.0	1.0	0	-0.0339763883315	blockFiles/set_40/main_unc/rightBlue\GB_RB_3.xlsx
427	main_unc	True	0.0	723	0	6.0	6.0	1.0	1	right	2.0	0.0	1.0	1	0.0643710329384	blockFiles/set_40/main_unc/rightBlue\GB_RB_3.xlsx
428	main_unc	True	0.0	723	0	6.0	6.0	0.0	1	left	1.0	1.0	1.0	0	-0.0433626351506	blockFiles/set_40/main_unc/rightBlue\GB_RB_3.xlsx
429	main_unc	True	0.0	723	0	6.0	6.0	0.0	1	left	1.0	0.0	1.0	0	-0.0357592067495	blockFiles/set_40/main_unc/rightBlue\GB_RB_3.xlsx
430	main_unc	True	0.0	723	0	7.0	7.0	0.0	1	left	1.0	0.0	1.0	0	-0.033121980931599994	blockFiles/set_40/main_unc/rightBlue\GB_RB_2.xlsx
431	main_unc	True	0.0	723	0	7.0	7.0	1.0	1	right	1.0	0.0	0.0	1	0.0142360789329	blockFiles/set_40/main_unc/rightBlue\GB_RB_2.xlsx
432	main_unc	True	0.0	723	0	7.0	7.0	0.0	0	left	1.0	0.0	0.0	1	0.017566591631599997	blockFiles/set_40/main_unc/rightBlue\GB_RB_2.xlsx
433	main_unc	True	0.0	723	0	7.0	7.0	1.0	1	right	1.0	0.0	0.0	1	0.0186606113426	blockFiles/set_40/main_unc/rightBlue\GB_RB_2.xlsx
434	main_unc	True	0.0	723	0	7.0	7.0	0.0	1	left	1.0	1.0	1.0	0	-0.07503488559280001	blockFiles/set_40/main_unc/rightBlue\GB_RB_2.xlsx
435	main_unc	True	1.0	723	0	7.0	7.0	n/a	0	None	n/a	0.0	n/a	1	0.00461871273816	blockFiles/set_40/main_unc/rightBlue\GB_RB_2.xlsx
436	main_unc	True	0.0	723	0	7.0	7.0	1.0	1	right	2.0	1.0	1.0	1	0.0796338586882	blockFiles/set_40/main_unc/rightBlue\GB_RB_2.xlsx
437	main_unc	True	0.0	723	0	7.0	7.0	0.0	0	left	1.0	0.0	0.0	1	0.06430428300049999	blockFiles/set_40/main_unc/rightBlue\GB_RB_2.xlsx
438	main_unc	True	0.0	723	0	7.0	7.0	1.0	1	right	2.0	1.0	1.0	1	0.036992924176199996	blockFiles/set_40/main_unc/rightBlue\GB_RB_2.xlsx
439	main_unc	True	0.0	723	0	7.0	7.0	0.0	0	left	1.0	0.0	0.0	1	0.016165355984100002	blockFiles/set_40/main_unc/rightBlue\GB_RB_2.xlsx
440	main_unc	True	0.0	723	0	7.0	7.0	0.0	1	left	1.0	1.0	1.0	0	-0.0591582717746	blockFiles/set_40/main_unc/rightBlue\GB_RB_2.xlsx
441	main_unc	True	0.0	723	0	7.0	7.0	0.0	1	left	1.0	1.0	1.0	0	-0.0447855062969	blockFiles/set_40/main_unc/rightBlue\GB_RB_2.xlsx
442	main_unc	True	0.0	723	0	7.0	7.0	0.0	0	left	1.0	0.0	0.0	1	0.014657789506000002	blockFiles/set_40/main_unc/rightBlue\GB_RB_2.xlsx
443	main_unc	True	0.0	723	0	7.0	7.0	0.0	1	left	1.0	1.0	1.0	0	-0.04650590332219999	blockFiles/set_40/main_unc/rightBlue\GB_RB_2.xlsx
444	main_unc	True	0.0	723	0	7.0	7.0	0.0	1	left	1.0	1.0	1.0	0	-0.0625668453239	blockFiles/set_40/main_unc/rightBlue\GB_RB_2.xlsx
445	main_unc	True	0.0	723	0	7.0	7.0	0.0	0	left	1.0	0.0	0.0	1	0.0140573199466	blockFiles/set_40/main_unc/rightBlue\GB_RB_2.xlsx
446	main_unc	True	0.0	723	0	7.0	7.0	1.0	0	right	2.0	0.0	0.0	0	-0.0126231027208	blockFiles/set_40/main_unc/rightBlue\GB_RB_2.xlsx
447	main_unc	True	0.0	723	0	7.0	7.0	1.0	1	right	2.0	0.0	1.0	1	0.0754393543862	blockFiles/set_40/main_unc/rightBlue\GB_RB_2.xlsx
448	main_unc	True	0.0	723	0	7.0	7.0	1.0	1	right	2.0	1.0	1.0	1	0.016209522020100002	blockFiles/set_40/main_unc/rightBlue\GB_RB_2.xlsx
449	main_unc	True	0.0	723	0	7.0	7.0	1.0	1	right	2.0	1.0	1.0	1	0.042553846016499995	blockFiles/set_40/main_unc/rightBlue\GB_RB_2.xlsx
450	main_unc	True	0.0	723	0	7.0	7.0	1.0	0	right	2.0	1.0	0.0	0	-0.0017362396605300002	blockFiles/set_40/main_unc/rightBlue\GB_RB_2.xlsx
451	main_unc	True	0.0	723	0	7.0	7.0	1.0	0	right	2.0	0.0	0.0	0	-0.05109306972469999	blockFiles/set_40/main_unc/rightBlue\GB_RB_2.xlsx
452	main_unc	True	0.0	723	0	7.0	7.0	0.0	1	left	2.0	0.0	0.0	0	-0.0705477241054	blockFiles/set_40/main_unc/rightBlue\GB_RB_2.xlsx
453	main_unc	True	0.0	723	0	7.0	7.0	0.0	1	left	1.0	0.0	1.0	0	-0.030049177836599997	blockFiles/set_40/main_unc/rightBlue\GB_RB_2.xlsx
454	main_unc	True	0.0	723	0	7.0	7.0	1.0	0	right	2.0	0.0	0.0	0	-0.0162454954721	blockFiles/set_40/main_unc/rightBlue\GB_RB_2.xlsx
455	main_unc	True	0.0	723	0	7.0	7.0	1.0	1	right	2.0	1.0	1.0	1	0.00461871273816	blockFiles/set_40/main_unc/rightBlue\GB_RB_2.xlsx
456	main_unc	True	0.0	723	0	8.0	8.0	0.0	1	left	1.0	0.0	0.0	0	-0.0521377367899	blockFiles/set_40/main_unc/leftBlue\GB_LB_6.xlsx
457	main_unc	True	0.0	723	0	8.0	8.0	0.0	1	left	1.0	0.0	0.0	0	-0.0358142687753	blockFiles/set_40/main_unc/leftBlue\GB_LB_6.xlsx
458	main_unc	True	0.0	723	0	8.0	8.0	0.0	1	left	2.0	1.0	1.0	0	-0.040240729209	blockFiles/set_40/main_unc/leftBlue\GB_LB_6.xlsx
459	main_unc	True	0.0	723	0	8.0	8.0	1.0	1	right	1.0	1.0	1.0	1	0.0568239610456	blockFiles/set_40/main_unc/leftBlue\GB_LB_6.xlsx
460	main_unc	True	0.0	723	0	8.0	8.0	0.0	1	left	2.0	1.0	1.0	0	-0.031787697468	blockFiles/set_40/main_unc/leftBlue\GB_LB_6.xlsx
461	main_unc	True	0.0	723	0	8.0	8.0	1.0	1	right	1.0	1.0	1.0	1	0.04729157771919999	blockFiles/set_40/main_unc/leftBlue\GB_LB_6.xlsx
462	main_unc	True	0.0	723	0	8.0	8.0	1.0	1	right	1.0	0.0	1.0	1	0.0411463781632	blockFiles/set_40/main_unc/leftBlue\GB_LB_6.xlsx
463	main_unc	True	0.0	723	0	8.0	8.0	0.0	1	left	2.0	1.0	1.0	0	-0.0449279430695	blockFiles/set_40/main_unc/leftBlue\GB_LB_6.xlsx
464	main_unc	True	0.0	723	0	8.0	8.0	0.0	1	left	2.0	1.0	1.0	0	-0.0482058759965	blockFiles/set_40/main_unc/leftBlue\GB_LB_6.xlsx
465	main_unc	True	0.0	723	0	8.0	8.0	0.0	0	left	2.0	1.0	0.0	1	0.00668977610767	blockFiles/set_40/main_unc/leftBlue\GB_LB_6.xlsx
466	main_unc	True	0.0	723	0	8.0	8.0	1.0	1	right	1.0	1.0	1.0	1	0.0396430684067	blockFiles/set_40/main_unc/leftBlue\GB_LB_6.xlsx
467	main_unc	True	0.0	723	0	8.0	8.0	1.0	1	right	1.0	0.0	1.0	1	0.00823404025286	blockFiles/set_40/main_unc/leftBlue\GB_LB_6.xlsx
468	main_unc	True	0.0	723	0	8.0	8.0	1.0	1	right	1.0	1.0	1.0	1	0.043215925581800006	blockFiles/set_40/main_unc/leftBlue\GB_LB_6.xlsx
469	main_unc	True	0.0	723	0	8.0	8.0	0.0	0	left	2.0	0.0	0.0	1	0.0179702744633	blockFiles/set_40/main_unc/leftBlue\GB_LB_6.xlsx
470	main_unc	True	0.0	723	0	8.0	8.0	1.0	1	right	1.0	0.0	1.0	1	0.0772717281058	blockFiles/set_40/main_unc/leftBlue\GB_LB_6.xlsx
471	main_unc	True	0.0	723	0	8.0	8.0	1.0	1	right	1.0	1.0	1.0	1	0.046964481473	blockFiles/set_40/main_unc/leftBlue\GB_LB_6.xlsx
472	main_unc	True	0.0	723	0	8.0	8.0	1.0	0	right	1.0	0.0	0.0	0	-0.07395837862039999	blockFiles/set_40/main_unc/leftBlue\GB_LB_6.xlsx
473	main_unc	True	0.0	723	0	8.0	8.0	1.0	0	right	1.0	0.0	0.0	0	-0.0100817504153	blockFiles/set_40/main_unc/leftBlue\GB_LB_6.xlsx
474	main_unc	True	0.0	723	0	8.0	8.0	0.0	1	left	2.0	0.0	1.0	0	-0.045065117869499995	blockFiles/set_40/main_unc/leftBlue\GB_LB_6.xlsx
475	main_unc	True	0.0	723	0	8.0	8.0	1.0	1	right	1.0	0.0	1.0	1	0.07733377464119999	blockFiles/set_40/main_unc/leftBlue\GB_LB_6.xlsx
476	main_unc	True	0.0	723	0	8.0	8.0	0.0	0	left	2.0	0.0	0.0	1	0.0017481183260699999	blockFiles/set_40/main_unc/leftBlue\GB_LB_6.xlsx
477	main_unc	True	0.0	723	0	8.0	8.0	0.0	1	left	2.0	1.0	1.0	0	-0.0640935518593	blockFiles/set_40/main_unc/leftBlue\GB_LB_6.xlsx
478	main_unc	True	0.0	723	0	8.0	8.0	0.0	1	left	2.0	1.0	1.0	0	-0.0396182596311	blockFiles/set_40/main_unc/leftBlue\GB_LB_6.xlsx
479	main_unc	True	0.0	723	0	8.0	8.0	0.0	1	left	2.0	1.0	1.0	0	-0.0307784057967	blockFiles/set_40/main_unc/leftBlue\GB_LB_6.xlsx
480	main_unc	True	0.0	723	0	8.0	8.0	1.0	1	right	1.0	1.0	1.0	1	0.0441612680256	blockFiles/set_40/main_unc/leftBlue\GB_LB_6.xlsx
481	main_unc	True	0.0	723	0	9.0	9.0	0.0	1	left	2.0	0.0	0.0	0	-0.0451680847444	blockFiles/set_40/main_unc/rightBlue\GB_RB_6.xlsx
482	main_unc	True	0.0	723	0	9.0	9.0	0.0	0	left	2.0	1.0	1.0	1	0.0116991963796	blockFiles/set_40/main_unc/rightBlue\GB_RB_6.xlsx
483	main_unc	True	0.0	723	0	9.0	9.0	0.0	1	left	2.0	0.0	0.0	0	-0.0016520431079	blockFiles/set_40/main_unc/rightBlue\GB_RB_6.xlsx
484	main_unc	True	0.0	723	0	9.0	9.0	1.0	1	right	2.0	0.0	1.0	1	0.07529761532319999	blockFiles/set_40/main_unc/rightBlue\GB_RB_6.xlsx
485	main_unc	True	0.0	723	0	9.0	9.0	0.0	1	left	2.0	1.0	0.0	0	-0.0665907736681	blockFiles/set_40/main_unc/rightBlue\GB_RB_6.xlsx
486	main_unc	True	0.0	723	0	9.0	9.0	1.0	1	right	1.0	0.0	0.0	1	0.0445481844619	blockFiles/set_40/main_unc/rightBlue\GB_RB_6.xlsx
487	main_unc	True	0.0	723	0	9.0	9.0	0.0	1	left	2.0	0.0	0.0	0	-0.04584055935959999	blockFiles/set_40/main_unc/rightBlue\GB_RB_6.xlsx
488	main_unc	True	0.0	723	0	9.0	9.0	1.0	1	right	2.0	1.0	1.0	1	0.023677588459099997	blockFiles/set_40/main_unc/rightBlue\GB_RB_6.xlsx
489	main_unc	True	0.0	723	0	9.0	9.0	0.0	1	left	1.0	1.0	1.0	0	-0.051423449013400006	blockFiles/set_40/main_unc/rightBlue\GB_RB_6.xlsx
490	main_unc	True	1.0	723	0	9.0	9.0	0.0	1	left	n/a	0.0	n/a	0	-0.07540072435510001	blockFiles/set_40/main_unc/rightBlue\GB_RB_6.xlsx
491	main_unc	True	0.0	723	0	9.0	9.0	0.0	1	left	1.0	1.0	1.0	0	-0.011989851519500001	blockFiles/set_40/main_unc/rightBlue\GB_RB_6.xlsx
492	main_unc	True	0.0	723	0	9.0	9.0	0.0	1	left	1.0	1.0	1.0	0	-0.00816835168749	blockFiles/set_40/main_unc/rightBlue\GB_RB_6.xlsx
493	main_unc	True	1.0	723	0	9.0	9.0	n/a	0	None	n/a	0.0	n/a	0	-0.04806420695040001	blockFiles/set_40/main_unc/rightBlue\GB_RB_6.xlsx
494	main_unc	True	0.0	723	0	9.0	9.0	0.0	1	left	1.0	1.0	1.0	0	-0.0735315025598	blockFiles/set_40/main_unc/rightBlue\GB_RB_6.xlsx
495	main_unc	True	0.0	723	0	9.0	9.0	0.0	0	left	1.0	0.0	0.0	1	0.00451677158475	blockFiles/set_40/main_unc/rightBlue\GB_RB_6.xlsx
496	main_unc	True	0.0	723	0	9.0	9.0	0.0	1	left	1.0	1.0	1.0	0	-0.0629496247321	blockFiles/set_40/main_unc/rightBlue\GB_RB_6.xlsx
497	main_unc	True	0.0	723	0	9.0	9.0	0.0	1	left	1.0	1.0	1.0	0	-0.052624763175800005	blockFiles/set_40/main_unc/rightBlue\GB_RB_6.xlsx
498	main_unc	True	0.0	723	0	9.0	9.0	1.0	1	right	2.0	1.0	1.0	1	0.0163935036771	blockFiles/set_40/main_unc/rightBlue\GB_RB_6.xlsx
499	main_unc	True	0.0	723	0	9.0	9.0	1.0	1	right	2.0	1.0	1.0	1	0.055444790665100004	blockFiles/set_40/main_unc/rightBlue\GB_RB_6.xlsx
500	main_unc	True	0.0	723	0	9.0	9.0	1.0	0	right	2.0	0.0	0.0	0	-0.0490870976076	blockFiles/set_40/main_unc/rightBlue\GB_RB_6.xlsx
501	main_unc	True	0.0	723	0	9.0	9.0	1.0	1	right	2.0	0.0	1.0	1	0.0411360606924	blockFiles/set_40/main_unc/rightBlue\GB_RB_6.xlsx
502	main_unc	True	0.0	723	0	9.0	9.0	1.0	1	right	2.0	1.0	1.0	1	0.032513130810099995	blockFiles/set_40/main_unc/rightBlue\GB_RB_6.xlsx
503	main_unc	True	0.0	723	0	9.0	9.0	0.0	1	left	1.0	1.0	1.0	0	-0.0526811672561	blockFiles/set_40/main_unc/rightBlue\GB_RB_6.xlsx
504	main_unc	True	0.0	723	0	9.0	9.0	1.0	1	right	2.0	1.0	1.0	1	0.0680129127949	blockFiles/set_40/main_unc/rightBlue\GB_RB_6.xlsx
505	main_unc	True	0.0	723	0	9.0	9.0	0.0	0	left	1.0	1.0	0.0	1	0.00415056694299	blockFiles/set_40/main_unc/rightBlue\GB_RB_6.xlsx
506	main_unc	True	0.0	723	0	9.0	9.0	0.0	1	left	1.0	0.0	1.0	0	-0.07540072435510001	blockFiles/set_40/main_unc/rightBlue\GB_RB_6.xlsx
507	main_unc	True	0.0	723	0	9.0	9.0	0.0	1	left	1.0	0.0	1.0	0	-0.04806420695040001	blockFiles/set_40/main_unc/rightBlue\GB_RB_6.xlsx
508	main_unc	True	0.0	723	0	10.0	10.0	1.0	1	right	1.0	1.0	1.0	1	0.047164512984499994	blockFiles/set_40/main_unc/leftBlue\GB_LB_2.xlsx
509	main_unc	True	0.0	723	0	10.0	10.0	0.0	0	left	2.0	0.0	0.0	1	0.0237503036112	blockFiles/set_40/main_unc/leftBlue\GB_LB_2.xlsx
510	main_unc	True	0.0	723	0	10.0	10.0	0.0	1	left	2.0	1.0	1.0	0	-0.019253880642400002	blockFiles/set_40/main_unc/leftBlue\GB_LB_2.xlsx
511	main_unc	True	0.0	723	0	10.0	10.0	0.0	1	left	2.0	1.0	1.0	0	-0.0791560969502	blockFiles/set_40/main_unc/leftBlue\GB_LB_2.xlsx
512	main_unc	True	0.0	723	0	10.0	10.0	0.0	1	left	2.0	0.0	1.0	0	-0.00526763493195	blockFiles/set_40/main_unc/leftBlue\GB_LB_2.xlsx
513	main_unc	True	1.0	723	0	10.0	10.0	n/a	0	None	n/a	0.0	n/a	1	0.0346067219786	blockFiles/set_40/main_unc/leftBlue\GB_LB_2.xlsx
514	main_unc	True	0.0	723	0	10.0	10.0	0.0	0	left	2.0	0.0	0.0	1	0.0686293658428	blockFiles/set_40/main_unc/leftBlue\GB_LB_2.xlsx
515	main_unc	True	0.0	723	0	10.0	10.0	0.0	1	left	2.0	1.0	1.0	0	-0.055094375349599996	blockFiles/set_40/main_unc/leftBlue\GB_LB_2.xlsx
516	main_unc	True	0.0	723	0	10.0	10.0	0.0	0	left	2.0	0.0	0.0	1	0.028108267132200004	blockFiles/set_40/main_unc/leftBlue\GB_LB_2.xlsx
517	main_unc	True	0.0	723	0	10.0	10.0	1.0	1	right	1.0	1.0	1.0	1	0.0367579068244	blockFiles/set_40/main_unc/leftBlue\GB_LB_2.xlsx
518	main_unc	True	0.0	723	0	10.0	10.0	1.0	1	right	1.0	1.0	1.0	1	0.060022646989699995	blockFiles/set_40/main_unc/leftBlue\GB_LB_2.xlsx
519	main_unc	True	0.0	723	0	10.0	10.0	0.0	0	left	2.0	1.0	0.0	1	0.011837121099200001	blockFiles/set_40/main_unc/leftBlue\GB_LB_2.xlsx
520	main_unc	True	0.0	723	0	10.0	10.0	0.0	1	left	2.0	0.0	1.0	0	-0.0134219350293	blockFiles/set_40/main_unc/leftBlue\GB_LB_2.xlsx
521	main_unc	True	0.0	723	0	10.0	10.0	0.0	1	left	2.0	1.0	1.0	0	-0.0403673669323	blockFiles/set_40/main_unc/leftBlue\GB_LB_2.xlsx
522	main_unc	True	0.0	723	0	10.0	10.0	0.0	1	left	2.0	1.0	1.0	0	-0.0536649618484	blockFiles/set_40/main_unc/leftBlue\GB_LB_2.xlsx
523	main_unc	True	0.0	723	0	10.0	10.0	0.0	1	left	2.0	1.0	1.0	0	-0.0329784182273	blockFiles/set_40/main_unc/leftBlue\GB_LB_2.xlsx
524	main_unc	True	0.0	723	0	10.0	10.0	0.0	1	left	2.0	1.0	1.0	0	-0.0269922590069	blockFiles/set_40/main_unc/leftBlue\GB_LB_2.xlsx
525	main_unc	True	0.0	723	0	10.0	10.0	1.0	1	right	1.0	1.0	1.0	1	0.0130355224945	blockFiles/set_40/main_unc/leftBlue\GB_LB_2.xlsx
526	main_unc	True	0.0	723	0	10.0	10.0	1.0	1	right	1.0	1.0	1.0	1	0.07190027752889999	blockFiles/set_40/main_unc/leftBlue\GB_LB_2.xlsx
527	main_unc	True	0.0	723	0	10.0	10.0	1.0	0	right	1.0	1.0	0.0	0	-3.31300497055e-05	blockFiles/set_40/main_unc/leftBlue\GB_LB_2.xlsx
528	main_unc	True	0.0	723	0	10.0	10.0	1.0	1	right	1.0	1.0	1.0	1	0.0587058727816	blockFiles/set_40/main_unc/leftBlue\GB_LB_2.xlsx
529	main_unc	True	0.0	723	0	10.0	10.0	1.0	1	right	1.0	1.0	1.0	1	0.0310317311063	blockFiles/set_40/main_unc/leftBlue\GB_LB_2.xlsx
530	main_unc	True	0.0	723	0	10.0	10.0	1.0	1	right	1.0	1.0	1.0	1	0.008509833440180001	blockFiles/set_40/main_unc/leftBlue\GB_LB_2.xlsx
531	main_unc	True	0.0	723	0	10.0	10.0	0.0	1	left	2.0	1.0	1.0	0	-0.06662929562850001	blockFiles/set_40/main_unc/leftBlue\GB_LB_2.xlsx
532	main_unc	True	0.0	723	0	10.0	10.0	1.0	1	right	2.0	1.0	0.0	1	0.0470415670983	blockFiles/set_40/main_unc/leftBlue\GB_LB_2.xlsx
533	main_unc	True	0.0	723	0	10.0	10.0	1.0	1	right	1.0	1.0	1.0	1	0.0346067219786	blockFiles/set_40/main_unc/leftBlue\GB_LB_2.xlsx
534	main_unc	True	0.0	723	0	11.0	11.0	1.0	1	right	1.0	0.0	0.0	1	0.0390767635778	blockFiles/set_40/main_unc/rightBlue\GB_RB_5.xlsx
535	main_unc	True	0.0	723	0	11.0	11.0	1.0	1	right	1.0	0.0	0.0	1	0.005957989618180001	blockFiles/set_40/main_unc/rightBlue\GB_RB_5.xlsx
536	main_unc	True	0.0	723	0	11.0	11.0	1.0	1	right	2.0	1.0	1.0	1	0.06933261841539999	blockFiles/set_40/main_unc/rightBlue\GB_RB_5.xlsx
537	main_unc	True	0.0	723	0	11.0	11.0	0.0	1	left	1.0	1.0	1.0	0	-0.0156223296933	blockFiles/set_40/main_unc/rightBlue\GB_RB_5.xlsx
538	main_unc	True	0.0	723	0	11.0	11.0	0.0	1	left	2.0	0.0	0.0	0	-0.024385965820400004	blockFiles/set_40/main_unc/rightBlue\GB_RB_5.xlsx
539	main_unc	True	0.0	723	0	11.0	11.0	0.0	0	left	1.0	1.0	0.0	1	0.016517836637799998	blockFiles/set_40/main_unc/rightBlue\GB_RB_5.xlsx
540	main_unc	True	0.0	723	0	11.0	11.0	0.0	0	left	1.0	0.0	0.0	1	0.07101743713019999	blockFiles/set_40/main_unc/rightBlue\GB_RB_5.xlsx
541	main_unc	True	0.0	723	0	11.0	11.0	0.0	0	left	1.0	0.0	0.0	1	0.0465657309815	blockFiles/set_40/main_unc/rightBlue\GB_RB_5.xlsx
542	main_unc	True	0.0	723	0	11.0	11.0	1.0	1	right	2.0	0.0	1.0	1	0.05528802899640001	blockFiles/set_40/main_unc/rightBlue\GB_RB_5.xlsx
543	main_unc	True	0.0	723	0	11.0	11.0	1.0	0	right	2.0	0.0	0.0	0	-0.014540765658	blockFiles/set_40/main_unc/rightBlue\GB_RB_5.xlsx
544	main_unc	True	0.0	723	0	11.0	11.0	1.0	0	right	2.0	0.0	0.0	0	-0.0499452221952	blockFiles/set_40/main_unc/rightBlue\GB_RB_5.xlsx
545	main_unc	True	0.0	723	0	11.0	11.0	1.0	1	right	2.0	1.0	1.0	1	0.0178850630671	blockFiles/set_40/main_unc/rightBlue\GB_RB_5.xlsx
546	main_unc	True	0.0	723	0	11.0	11.0	1.0	0	right	2.0	1.0	0.0	0	-0.0397707331926	blockFiles/set_40/main_unc/rightBlue\GB_RB_5.xlsx
547	main_unc	True	0.0	723	0	11.0	11.0	1.0	0	right	2.0	0.0	0.0	0	-0.0401203853451	blockFiles/set_40/main_unc/rightBlue\GB_RB_5.xlsx
548	main_unc	True	0.0	723	0	11.0	11.0	0.0	0	left	1.0	0.0	0.0	1	0.028655780646900005	blockFiles/set_40/main_unc/rightBlue\GB_RB_5.xlsx
549	main_unc	True	0.0	723	0	11.0	11.0	1.0	0	right	2.0	0.0	0.0	0	-0.026557641495	blockFiles/set_40/main_unc/rightBlue\GB_RB_5.xlsx
550	main_unc	True	0.0	723	0	11.0	11.0	0.0	1	left	1.0	1.0	1.0	0	-0.061778015699199995	blockFiles/set_40/main_unc/rightBlue\GB_RB_5.xlsx
551	main_unc	True	0.0	723	0	11.0	11.0	0.0	1	left	1.0	0.0	1.0	0	-0.023153902273599997	blockFiles/set_40/main_unc/rightBlue\GB_RB_5.xlsx
552	main_unc	True	0.0	723	0	11.0	11.0	1.0	1	right	2.0	1.0	1.0	1	0.0673095100187	blockFiles/set_40/main_unc/rightBlue\GB_RB_5.xlsx
553	main_unc	True	0.0	723	0	11.0	11.0	0.0	1	left	1.0	1.0	1.0	0	-0.033604425545799996	blockFiles/set_40/main_unc/rightBlue\GB_RB_5.xlsx
554	main_unc	True	0.0	723	0	11.0	11.0	1.0	1	right	2.0	0.0	1.0	1	0.00670845296234	blockFiles/set_40/main_unc/rightBlue\GB_RB_5.xlsx
555	main_unc	True	0.0	723	0	11.0	11.0	1.0	1	right	2.0	0.0	1.0	1	0.0413045158423	blockFiles/set_40/main_unc/rightBlue\GB_RB_5.xlsx
556	main_unc	True	0.0	723	0	11.0	11.0	1.0	1	right	2.0	1.0	1.0	1	0.0702512138337	blockFiles/set_40/main_unc/rightBlue\GB_RB_5.xlsx
557	main_unc	True	0.0	723	0	11.0	11.0	0.0	1	left	1.0	1.0	1.0	0	-0.06929288003589999	blockFiles/set_40/main_unc/rightBlue\GB_RB_5.xlsx
558	main_unc	True	0.0	723	0	11.0	11.0	1.0	0	right	2.0	0.0	0.0	0	-0.018054360840499998	blockFiles/set_40/main_unc/rightBlue\GB_RB_5.xlsx
