	trial_type	complete	missIndex	participant	id	blockNumber	b_t	d_t	decision1.corr	decision1.keys	a_t	r_t	decision2.corr	s_t	u_t	block_file
0	main_safe	True	0.0	432	0	0.0	0.0	0.0	1	left	1.0	1.0	0.0	0	-0.08	blockFiles/set_50/main_safe/leftBlue\GB_LB_3.xlsx
1	main_safe	True	0.0	432	0	0.0	0.0	1.0	1	right	2.0	0.0	0.0	1	0.08	blockFiles/set_50/main_safe/leftBlue\GB_LB_3.xlsx
2	main_safe	True	0.0	432	0	0.0	0.0	0.0	1	left	1.0	1.0	0.0	0	-0.08	blockFiles/set_50/main_safe/leftBlue\GB_LB_3.xlsx
3	main_safe	True	0.0	432	0	0.0	0.0	0.0	1	left	1.0	0.0	0.0	0	-0.08	blockFiles/set_50/main_safe/leftBlue\GB_LB_3.xlsx
4	main_safe	True	0.0	432	0	0.0	0.0	1.0	1	right	2.0	0.0	0.0	1	0.08	blockFiles/set_50/main_safe/leftBlue\GB_LB_3.xlsx
5	main_safe	True	0.0	432	0	0.0	0.0	1.0	1	right	2.0	0.0	0.0	1	0.08	blockFiles/set_50/main_safe/leftBlue\GB_LB_3.xlsx
6	main_safe	True	0.0	432	0	0.0	0.0	0.0	1	left	2.0	1.0	1.0	0	-0.08	blockFiles/set_50/main_safe/leftBlue\GB_LB_3.xlsx
7	main_safe	True	0.0	432	0	0.0	0.0	0.0	1	left	2.0	1.0	1.0	0	-0.08	blockFiles/set_50/main_safe/leftBlue\GB_LB_3.xlsx
8	main_safe	True	0.0	432	0	0.0	0.0	0.0	1	left	2.0	1.0	1.0	0	-0.08	blockFiles/set_50/main_safe/leftBlue\GB_LB_3.xlsx
9	main_safe	True	0.0	432	0	0.0	0.0	0.0	1	left	2.0	0.0	1.0	0	-0.08	blockFiles/set_50/main_safe/leftBlue\GB_LB_3.xlsx
10	main_safe	True	0.0	432	0	0.0	0.0	0.0	1	left	2.0	1.0	1.0	0	-0.08	blockFiles/set_50/main_safe/leftBlue\GB_LB_3.xlsx
11	main_safe	True	0.0	432	0	0.0	0.0	1.0	1	right	1.0	1.0	1.0	1	0.08	blockFiles/set_50/main_safe/leftBlue\GB_LB_3.xlsx
12	main_safe	True	0.0	432	0	0.0	0.0	1.0	1	right	1.0	1.0	1.0	1	0.08	blockFiles/set_50/main_safe/leftBlue\GB_LB_3.xlsx
13	main_safe	True	0.0	432	0	0.0	0.0	0.0	1	left	2.0	1.0	1.0	0	-0.08	blockFiles/set_50/main_safe/leftBlue\GB_LB_3.xlsx
14	main_safe	True	0.0	432	0	0.0	0.0	1.0	1	right	1.0	0.0	1.0	1	0.08	blockFiles/set_50/main_safe/leftBlue\GB_LB_3.xlsx
15	main_safe	True	0.0	432	0	0.0	0.0	1.0	1	right	1.0	1.0	1.0	1	0.08	blockFiles/set_50/main_safe/leftBlue\GB_LB_3.xlsx
16	main_safe	True	0.0	432	0	0.0	0.0	0.0	1	left	2.0	1.0	1.0	0	-0.08	blockFiles/set_50/main_safe/leftBlue\GB_LB_3.xlsx
17	main_safe	True	0.0	432	0	0.0	0.0	1.0	1	right	1.0	1.0	1.0	1	0.08	blockFiles/set_50/main_safe/leftBlue\GB_LB_3.xlsx
18	main_safe	True	0.0	432	0	0.0	0.0	0.0	1	left	2.0	1.0	1.0	0	-0.08	blockFiles/set_50/main_safe/leftBlue\GB_LB_3.xlsx
19	main_safe	True	0.0	432	0	0.0	0.0	0.0	1	left	2.0	1.0	1.0	0	-0.08	blockFiles/set_50/main_safe/leftBlue\GB_LB_3.xlsx
20	main_safe	True	0.0	432	0	0.0	0.0	1.0	1	right	1.0	1.0	1.0	1	0.08	blockFiles/set_50/main_safe/leftBlue\GB_LB_3.xlsx
21	main_safe	True	0.0	432	0	0.0	0.0	1.0	1	right	1.0	1.0	1.0	1	0.08	blockFiles/set_50/main_safe/leftBlue\GB_LB_3.xlsx
22	main_safe	True	0.0	432	0	0.0	0.0	1.0	1	right	1.0	1.0	1.0	1	0.08	blockFiles/set_50/main_safe/leftBlue\GB_LB_3.xlsx
23	main_safe	True	0.0	432	0	0.0	0.0	0.0	1	left	2.0	0.0	1.0	0	-0.08	blockFiles/set_50/main_safe/leftBlue\GB_LB_3.xlsx
24	main_safe	True	0.0	432	0	0.0	0.0	1.0	1	right	1.0	0.0	1.0	1	0.08	blockFiles/set_50/main_safe/leftBlue\GB_LB_3.xlsx
25	main_safe	True	0.0	432	0	1.0	1.0	1.0	1	right	1.0	0.0	0.0	1	0.08	blockFiles/set_50/main_safe/rightBlue\GB_RB_2.xlsx
26	main_safe	True	0.0	432	0	1.0	1.0	0.0	1	left	1.0	1.0	1.0	0	-0.08	blockFiles/set_50/main_safe/rightBlue\GB_RB_2.xlsx
27	main_safe	True	0.0	432	0	1.0	1.0	0.0	1	left	1.0	1.0	1.0	0	-0.08	blockFiles/set_50/main_safe/rightBlue\GB_RB_2.xlsx
28	main_safe	True	0.0	432	0	1.0	1.0	0.0	1	left	1.0	0.0	1.0	0	-0.08	blockFiles/set_50/main_safe/rightBlue\GB_RB_2.xlsx
29	main_safe	True	0.0	432	0	1.0	1.0	0.0	1	left	1.0	1.0	1.0	0	-0.08	blockFiles/set_50/main_safe/rightBlue\GB_RB_2.xlsx
30	main_safe	True	0.0	432	0	1.0	1.0	0.0	1	left	1.0	1.0	1.0	0	-0.08	blockFiles/set_50/main_safe/rightBlue\GB_RB_2.xlsx
31	main_safe	True	0.0	432	0	1.0	1.0	1.0	1	right	2.0	1.0	1.0	1	0.08	blockFiles/set_50/main_safe/rightBlue\GB_RB_2.xlsx
32	main_safe	True	0.0	432	0	1.0	1.0	1.0	1	right	2.0	0.0	1.0	1	0.08	blockFiles/set_50/main_safe/rightBlue\GB_RB_2.xlsx
33	main_safe	True	0.0	432	0	1.0	1.0	1.0	1	right	2.0	1.0	1.0	1	0.08	blockFiles/set_50/main_safe/rightBlue\GB_RB_2.xlsx
34	main_safe	True	0.0	432	0	1.0	1.0	0.0	1	left	1.0	0.0	1.0	0	-0.08	blockFiles/set_50/main_safe/rightBlue\GB_RB_2.xlsx
35	main_safe	True	0.0	432	0	1.0	1.0	0.0	1	left	1.0	1.0	1.0	0	-0.08	blockFiles/set_50/main_safe/rightBlue\GB_RB_2.xlsx
36	main_safe	True	0.0	432	0	1.0	1.0	0.0	1	left	1.0	1.0	1.0	0	-0.08	blockFiles/set_50/main_safe/rightBlue\GB_RB_2.xlsx
37	main_safe	True	0.0	432	0	1.0	1.0	1.0	1	right	2.0	1.0	1.0	1	0.08	blockFiles/set_50/main_safe/rightBlue\GB_RB_2.xlsx
38	main_safe	True	0.0	432	0	1.0	1.0	1.0	1	right	2.0	1.0	1.0	1	0.08	blockFiles/set_50/main_safe/rightBlue\GB_RB_2.xlsx
39	main_safe	True	0.0	432	0	1.0	1.0	0.0	1	left	1.0	0.0	1.0	0	-0.08	blockFiles/set_50/main_safe/rightBlue\GB_RB_2.xlsx
40	main_safe	True	0.0	432	0	1.0	1.0	1.0	1	right	2.0	0.0	1.0	1	0.08	blockFiles/set_50/main_safe/rightBlue\GB_RB_2.xlsx
41	main_safe	True	0.0	432	0	1.0	1.0	1.0	1	right	2.0	1.0	1.0	1	0.08	blockFiles/set_50/main_safe/rightBlue\GB_RB_2.xlsx
42	main_safe	True	0.0	432	0	1.0	1.0	0.0	1	left	1.0	1.0	1.0	0	-0.08	blockFiles/set_50/main_safe/rightBlue\GB_RB_2.xlsx
43	main_safe	True	0.0	432	0	1.0	1.0	1.0	1	right	2.0	1.0	1.0	1	0.08	blockFiles/set_50/main_safe/rightBlue\GB_RB_2.xlsx
44	main_safe	True	0.0	432	0	1.0	1.0	1.0	1	right	2.0	1.0	1.0	1	0.08	blockFiles/set_50/main_safe/rightBlue\GB_RB_2.xlsx
45	main_safe	True	0.0	432	0	1.0	1.0	1.0	1	right	2.0	1.0	1.0	1	0.08	blockFiles/set_50/main_safe/rightBlue\GB_RB_2.xlsx
46	main_safe	True	0.0	432	0	1.0	1.0	0.0	1	left	1.0	1.0	1.0	0	-0.08	blockFiles/set_50/main_safe/rightBlue\GB_RB_2.xlsx
47	main_safe	True	0.0	432	0	1.0	1.0	1.0	1	right	2.0	1.0	1.0	1	0.08	blockFiles/set_50/main_safe/rightBlue\GB_RB_2.xlsx
48	main_safe	True	0.0	432	0	1.0	1.0	1.0	1	right	2.0	1.0	1.0	1	0.08	blockFiles/set_50/main_safe/rightBlue\GB_RB_2.xlsx
49	main_safe	True	0.0	432	0	1.0	1.0	0.0	1	left	1.0	1.0	1.0	0	-0.08	blockFiles/set_50/main_safe/rightBlue\GB_RB_2.xlsx
50	main_safe	True	0.0	432	0	2.0	2.0	1.0	1	right	1.0	1.0	0.0	1	0.08	blockFiles/set_50/main_safe/rightBlue\GB_RB_1.xlsx
51	main_safe	True	0.0	432	0	2.0	2.0	1.0	1	right	1.0	0.0	0.0	1	0.08	blockFiles/set_50/main_safe/rightBlue\GB_RB_1.xlsx
52	main_safe	True	0.0	432	0	2.0	2.0	0.0	1	left	2.0	0.0	0.0	0	-0.08	blockFiles/set_50/main_safe/rightBlue\GB_RB_1.xlsx
53	main_safe	True	0.0	432	0	2.0	2.0	0.0	1	left	2.0	1.0	0.0	0	-0.08	blockFiles/set_50/main_safe/rightBlue\GB_RB_1.xlsx
54	main_safe	True	0.0	432	0	2.0	2.0	0.0	1	left	2.0	0.0	0.0	0	-0.08	blockFiles/set_50/main_safe/rightBlue\GB_RB_1.xlsx
55	main_safe	True	0.0	432	0	2.0	2.0	1.0	1	right	1.0	0.0	0.0	1	0.08	blockFiles/set_50/main_safe/rightBlue\GB_RB_1.xlsx
56	main_safe	True	0.0	432	0	2.0	2.0	1.0	1	right	2.0	1.0	1.0	1	0.08	blockFiles/set_50/main_safe/rightBlue\GB_RB_1.xlsx
57	main_safe	True	0.0	432	0	2.0	2.0	1.0	1	right	2.0	1.0	1.0	1	0.08	blockFiles/set_50/main_safe/rightBlue\GB_RB_1.xlsx
58	main_safe	True	0.0	432	0	2.0	2.0	0.0	1	left	1.0	1.0	1.0	0	-0.08	blockFiles/set_50/main_safe/rightBlue\GB_RB_1.xlsx
59	main_safe	True	0.0	432	0	2.0	2.0	0.0	1	left	1.0	1.0	1.0	0	-0.08	blockFiles/set_50/main_safe/rightBlue\GB_RB_1.xlsx
60	main_safe	True	0.0	432	0	2.0	2.0	1.0	1	right	2.0	1.0	1.0	1	0.08	blockFiles/set_50/main_safe/rightBlue\GB_RB_1.xlsx
61	main_safe	True	0.0	432	0	2.0	2.0	0.0	1	left	1.0	1.0	1.0	0	-0.08	blockFiles/set_50/main_safe/rightBlue\GB_RB_1.xlsx
62	main_safe	True	0.0	432	0	2.0	2.0	0.0	1	left	1.0	1.0	1.0	0	-0.08	blockFiles/set_50/main_safe/rightBlue\GB_RB_1.xlsx
63	main_safe	True	0.0	432	0	2.0	2.0	1.0	1	right	2.0	1.0	1.0	1	0.08	blockFiles/set_50/main_safe/rightBlue\GB_RB_1.xlsx
64	main_safe	True	0.0	432	0	2.0	2.0	1.0	1	right	2.0	1.0	1.0	1	0.08	blockFiles/set_50/main_safe/rightBlue\GB_RB_1.xlsx
65	main_safe	True	0.0	432	0	2.0	2.0	1.0	1	right	2.0	1.0	1.0	1	0.08	blockFiles/set_50/main_safe/rightBlue\GB_RB_1.xlsx
66	main_safe	True	0.0	432	0	2.0	2.0	1.0	1	right	2.0	1.0	1.0	1	0.08	blockFiles/set_50/main_safe/rightBlue\GB_RB_1.xlsx
67	main_safe	True	0.0	432	0	2.0	2.0	0.0	1	left	1.0	1.0	1.0	0	-0.08	blockFiles/set_50/main_safe/rightBlue\GB_RB_1.xlsx
68	main_safe	True	0.0	432	0	2.0	2.0	1.0	1	right	2.0	0.0	1.0	1	0.08	blockFiles/set_50/main_safe/rightBlue\GB_RB_1.xlsx
69	main_safe	True	0.0	432	0	2.0	2.0	1.0	1	right	2.0	1.0	1.0	1	0.08	blockFiles/set_50/main_safe/rightBlue\GB_RB_1.xlsx
70	main_safe	True	0.0	432	0	2.0	2.0	1.0	1	right	2.0	1.0	1.0	1	0.08	blockFiles/set_50/main_safe/rightBlue\GB_RB_1.xlsx
71	main_safe	True	0.0	432	0	2.0	2.0	0.0	1	left	1.0	1.0	1.0	0	-0.08	blockFiles/set_50/main_safe/rightBlue\GB_RB_1.xlsx
72	main_safe	True	0.0	432	0	2.0	2.0	0.0	1	left	1.0	1.0	1.0	0	-0.08	blockFiles/set_50/main_safe/rightBlue\GB_RB_1.xlsx
73	main_safe	True	0.0	432	0	2.0	2.0	0.0	1	left	1.0	0.0	1.0	0	-0.08	blockFiles/set_50/main_safe/rightBlue\GB_RB_1.xlsx
74	main_safe	True	0.0	432	0	2.0	2.0	0.0	1	left	1.0	1.0	1.0	0	-0.08	blockFiles/set_50/main_safe/rightBlue\GB_RB_1.xlsx
75	main_safe	True	0.0	432	0	3.0	3.0	0.0	1	left	2.0	0.0	1.0	0	-0.08	blockFiles/set_50/main_safe/leftBlue\GB_LB_2.xlsx
76	main_safe	True	0.0	432	0	3.0	3.0	1.0	1	right	2.0	0.0	0.0	1	0.08	blockFiles/set_50/main_safe/leftBlue\GB_LB_2.xlsx
77	main_safe	True	0.0	432	0	3.0	3.0	0.0	1	left	1.0	0.0	0.0	0	-0.08	blockFiles/set_50/main_safe/leftBlue\GB_LB_2.xlsx
78	main_safe	True	0.0	432	0	3.0	3.0	1.0	1	right	1.0	0.0	1.0	1	0.08	blockFiles/set_50/main_safe/leftBlue\GB_LB_2.xlsx
79	main_safe	True	0.0	432	0	3.0	3.0	0.0	1	left	1.0	1.0	0.0	0	-0.08	blockFiles/set_50/main_safe/leftBlue\GB_LB_2.xlsx
80	main_safe	True	0.0	432	0	3.0	3.0	0.0	1	left	1.0	0.0	0.0	0	-0.08	blockFiles/set_50/main_safe/leftBlue\GB_LB_2.xlsx
81	main_safe	True	0.0	432	0	3.0	3.0	0.0	1	left	1.0	0.0	0.0	0	-0.08	blockFiles/set_50/main_safe/leftBlue\GB_LB_2.xlsx
82	main_safe	True	0.0	432	0	3.0	3.0	0.0	1	left	2.0	0.0	1.0	0	-0.08	blockFiles/set_50/main_safe/leftBlue\GB_LB_2.xlsx
83	main_safe	True	0.0	432	0	3.0	3.0	1.0	1	right	1.0	1.0	1.0	1	0.08	blockFiles/set_50/main_safe/leftBlue\GB_LB_2.xlsx
84	main_safe	True	0.0	432	0	3.0	3.0	1.0	1	right	1.0	1.0	1.0	1	0.08	blockFiles/set_50/main_safe/leftBlue\GB_LB_2.xlsx
85	main_safe	True	0.0	432	0	3.0	3.0	0.0	1	left	2.0	1.0	1.0	0	-0.08	blockFiles/set_50/main_safe/leftBlue\GB_LB_2.xlsx
86	main_safe	True	0.0	432	0	3.0	3.0	0.0	1	left	2.0	1.0	1.0	0	-0.08	blockFiles/set_50/main_safe/leftBlue\GB_LB_2.xlsx
87	main_safe	True	0.0	432	0	3.0	3.0	1.0	1	right	1.0	0.0	1.0	1	0.08	blockFiles/set_50/main_safe/leftBlue\GB_LB_2.xlsx
88	main_safe	True	0.0	432	0	3.0	3.0	1.0	1	right	1.0	1.0	1.0	1	0.08	blockFiles/set_50/main_safe/leftBlue\GB_LB_2.xlsx
89	main_safe	True	0.0	432	0	3.0	3.0	0.0	1	left	2.0	1.0	1.0	0	-0.08	blockFiles/set_50/main_safe/leftBlue\GB_LB_2.xlsx
90	main_safe	True	0.0	432	0	3.0	3.0	0.0	1	left	2.0	1.0	1.0	0	-0.08	blockFiles/set_50/main_safe/leftBlue\GB_LB_2.xlsx
91	main_safe	True	0.0	432	0	3.0	3.0	1.0	1	right	1.0	1.0	1.0	1	0.08	blockFiles/set_50/main_safe/leftBlue\GB_LB_2.xlsx
92	main_safe	True	0.0	432	0	3.0	3.0	1.0	1	right	1.0	1.0	1.0	1	0.08	blockFiles/set_50/main_safe/leftBlue\GB_LB_2.xlsx
93	main_safe	True	0.0	432	0	3.0	3.0	1.0	1	right	1.0	1.0	1.0	1	0.08	blockFiles/set_50/main_safe/leftBlue\GB_LB_2.xlsx
94	main_safe	True	0.0	432	0	3.0	3.0	1.0	1	right	1.0	1.0	1.0	1	0.08	blockFiles/set_50/main_safe/leftBlue\GB_LB_2.xlsx
95	main_safe	True	0.0	432	0	3.0	3.0	0.0	1	left	2.0	1.0	1.0	0	-0.08	blockFiles/set_50/main_safe/leftBlue\GB_LB_2.xlsx
96	main_safe	True	0.0	432	0	3.0	3.0	0.0	1	left	2.0	0.0	1.0	0	-0.08	blockFiles/set_50/main_safe/leftBlue\GB_LB_2.xlsx
97	main_safe	True	0.0	432	0	3.0	3.0	1.0	1	right	1.0	1.0	1.0	1	0.08	blockFiles/set_50/main_safe/leftBlue\GB_LB_2.xlsx
98	main_safe	True	0.0	432	0	3.0	3.0	1.0	1	right	1.0	1.0	1.0	1	0.08	blockFiles/set_50/main_safe/leftBlue\GB_LB_2.xlsx
99	main_safe	True	0.0	432	0	3.0	3.0	1.0	1	right	1.0	1.0	1.0	1	0.08	blockFiles/set_50/main_safe/leftBlue\GB_LB_2.xlsx
100	main_safe	True	0.0	432	0	4.0	4.0	1.0	1	right	1.0	0.0	0.0	1	0.08	blockFiles/set_50/main_safe/rightBlue\GB_RB_3.xlsx
101	main_safe	True	0.0	432	0	4.0	4.0	0.0	1	left	1.0	1.0	1.0	0	-0.08	blockFiles/set_50/main_safe/rightBlue\GB_RB_3.xlsx
102	main_safe	True	0.0	432	0	4.0	4.0	0.0	1	left	1.0	0.0	1.0	0	-0.08	blockFiles/set_50/main_safe/rightBlue\GB_RB_3.xlsx
103	main_safe	True	0.0	432	0	4.0	4.0	1.0	1	right	2.0	1.0	1.0	1	0.08	blockFiles/set_50/main_safe/rightBlue\GB_RB_3.xlsx
104	main_safe	True	0.0	432	0	4.0	4.0	0.0	1	left	1.0	1.0	1.0	0	-0.08	blockFiles/set_50/main_safe/rightBlue\GB_RB_3.xlsx
105	main_safe	True	0.0	432	0	4.0	4.0	1.0	1	right	2.0	1.0	1.0	1	0.08	blockFiles/set_50/main_safe/rightBlue\GB_RB_3.xlsx
106	main_safe	True	0.0	432	0	4.0	4.0	1.0	1	right	2.0	1.0	1.0	1	0.08	blockFiles/set_50/main_safe/rightBlue\GB_RB_3.xlsx
107	main_safe	True	0.0	432	0	4.0	4.0	0.0	1	left	1.0	1.0	1.0	0	-0.08	blockFiles/set_50/main_safe/rightBlue\GB_RB_3.xlsx
108	main_safe	True	0.0	432	0	4.0	4.0	1.0	1	right	2.0	1.0	1.0	1	0.08	blockFiles/set_50/main_safe/rightBlue\GB_RB_3.xlsx
109	main_safe	True	0.0	432	0	4.0	4.0	1.0	1	right	2.0	1.0	1.0	1	0.08	blockFiles/set_50/main_safe/rightBlue\GB_RB_3.xlsx
110	main_safe	True	0.0	432	0	4.0	4.0	1.0	1	right	2.0	1.0	1.0	1	0.08	blockFiles/set_50/main_safe/rightBlue\GB_RB_3.xlsx
111	main_safe	True	0.0	432	0	4.0	4.0	1.0	1	right	2.0	1.0	1.0	1	0.08	blockFiles/set_50/main_safe/rightBlue\GB_RB_3.xlsx
112	main_safe	True	0.0	432	0	4.0	4.0	1.0	1	right	2.0	1.0	1.0	1	0.08	blockFiles/set_50/main_safe/rightBlue\GB_RB_3.xlsx
113	main_safe	True	0.0	432	0	4.0	4.0	1.0	1	right	2.0	0.0	1.0	1	0.08	blockFiles/set_50/main_safe/rightBlue\GB_RB_3.xlsx
114	main_safe	True	0.0	432	0	4.0	4.0	0.0	1	left	1.0	1.0	1.0	0	-0.08	blockFiles/set_50/main_safe/rightBlue\GB_RB_3.xlsx
115	main_safe	True	0.0	432	0	4.0	4.0	0.0	1	left	1.0	0.0	1.0	0	-0.08	blockFiles/set_50/main_safe/rightBlue\GB_RB_3.xlsx
116	main_safe	True	0.0	432	0	4.0	4.0	0.0	1	left	1.0	1.0	1.0	0	-0.08	blockFiles/set_50/main_safe/rightBlue\GB_RB_3.xlsx
117	main_safe	True	0.0	432	0	4.0	4.0	0.0	1	left	1.0	1.0	1.0	0	-0.08	blockFiles/set_50/main_safe/rightBlue\GB_RB_3.xlsx
118	main_safe	True	0.0	432	0	4.0	4.0	1.0	1	right	2.0	1.0	1.0	1	0.08	blockFiles/set_50/main_safe/rightBlue\GB_RB_3.xlsx
119	main_safe	True	0.0	432	0	4.0	4.0	0.0	1	left	1.0	1.0	1.0	0	-0.08	blockFiles/set_50/main_safe/rightBlue\GB_RB_3.xlsx
120	main_safe	True	0.0	432	0	4.0	4.0	1.0	1	right	2.0	1.0	1.0	1	0.08	blockFiles/set_50/main_safe/rightBlue\GB_RB_3.xlsx
121	main_safe	True	0.0	432	0	4.0	4.0	1.0	1	right	2.0	1.0	1.0	1	0.08	blockFiles/set_50/main_safe/rightBlue\GB_RB_3.xlsx
122	main_safe	True	0.0	432	0	4.0	4.0	0.0	1	left	1.0	0.0	1.0	0	-0.08	blockFiles/set_50/main_safe/rightBlue\GB_RB_3.xlsx
123	main_safe	True	0.0	432	0	4.0	4.0	0.0	1	left	1.0	1.0	1.0	0	-0.08	blockFiles/set_50/main_safe/rightBlue\GB_RB_3.xlsx
124	main_safe	True	0.0	432	0	4.0	4.0	1.0	1	right	2.0	0.0	1.0	1	0.08	blockFiles/set_50/main_safe/rightBlue\GB_RB_3.xlsx
125	main_safe	True	0.0	432	0	5.0	5.0	0.0	1	left	1.0	0.0	0.0	0	-0.08	blockFiles/set_50/main_safe/leftBlue\GB_LB_1.xlsx
126	main_safe	True	0.0	432	0	5.0	5.0	0.0	1	left	1.0	0.0	0.0	0	-0.08	blockFiles/set_50/main_safe/leftBlue\GB_LB_1.xlsx
127	main_safe	True	0.0	432	0	5.0	5.0	0.0	1	left	2.0	1.0	1.0	0	-0.08	blockFiles/set_50/main_safe/leftBlue\GB_LB_1.xlsx
128	main_safe	True	0.0	432	0	5.0	5.0	0.0	1	left	2.0	1.0	1.0	0	-0.08	blockFiles/set_50/main_safe/leftBlue\GB_LB_1.xlsx
129	main_safe	True	0.0	432	0	5.0	5.0	0.0	1	left	2.0	1.0	1.0	0	-0.08	blockFiles/set_50/main_safe/leftBlue\GB_LB_1.xlsx
130	main_safe	True	0.0	432	0	5.0	5.0	0.0	1	left	2.0	0.0	1.0	0	-0.08	blockFiles/set_50/main_safe/leftBlue\GB_LB_1.xlsx
131	main_safe	True	0.0	432	0	5.0	5.0	1.0	1	right	1.0	1.0	1.0	1	0.08	blockFiles/set_50/main_safe/leftBlue\GB_LB_1.xlsx
132	main_safe	True	0.0	432	0	5.0	5.0	0.0	1	left	2.0	1.0	1.0	0	-0.08	blockFiles/set_50/main_safe/leftBlue\GB_LB_1.xlsx
133	main_safe	True	0.0	432	0	5.0	5.0	1.0	1	right	1.0	1.0	1.0	1	0.08	blockFiles/set_50/main_safe/leftBlue\GB_LB_1.xlsx
134	main_safe	True	0.0	432	0	5.0	5.0	0.0	1	left	2.0	1.0	1.0	0	-0.08	blockFiles/set_50/main_safe/leftBlue\GB_LB_1.xlsx
135	main_safe	True	0.0	432	0	5.0	5.0	1.0	1	right	1.0	0.0	1.0	1	0.08	blockFiles/set_50/main_safe/leftBlue\GB_LB_1.xlsx
136	main_safe	True	0.0	432	0	5.0	5.0	0.0	1	left	1.0	0.0	0.0	0	-0.08	blockFiles/set_50/main_safe/leftBlue\GB_LB_1.xlsx
137	main_safe	True	0.0	432	0	5.0	5.0	1.0	1	right	1.0	1.0	1.0	1	0.08	blockFiles/set_50/main_safe/leftBlue\GB_LB_1.xlsx
138	main_safe	True	0.0	432	0	5.0	5.0	1.0	1	right	1.0	1.0	1.0	1	0.08	blockFiles/set_50/main_safe/leftBlue\GB_LB_1.xlsx
139	main_safe	True	0.0	432	0	5.0	5.0	1.0	1	right	1.0	1.0	1.0	1	0.08	blockFiles/set_50/main_safe/leftBlue\GB_LB_1.xlsx
140	main_safe	True	0.0	432	0	5.0	5.0	1.0	1	right	1.0	1.0	1.0	1	0.08	blockFiles/set_50/main_safe/leftBlue\GB_LB_1.xlsx
141	main_safe	True	0.0	432	0	5.0	5.0	0.0	1	left	2.0	0.0	1.0	0	-0.08	blockFiles/set_50/main_safe/leftBlue\GB_LB_1.xlsx
142	main_safe	True	0.0	432	0	5.0	5.0	0.0	1	left	2.0	1.0	1.0	0	-0.08	blockFiles/set_50/main_safe/leftBlue\GB_LB_1.xlsx
143	main_safe	True	1.0	432	0	5.0	5.0	1.0	1	right	n/a	0.0	n/a	1	0.08	blockFiles/set_50/main_safe/leftBlue\GB_LB_1.xlsx
144	main_safe	True	0.0	432	0	5.0	5.0	1.0	1	right	1.0	1.0	1.0	1	0.08	blockFiles/set_50/main_safe/leftBlue\GB_LB_1.xlsx
145	main_safe	True	0.0	432	0	5.0	5.0	1.0	1	right	1.0	1.0	1.0	1	0.08	blockFiles/set_50/main_safe/leftBlue\GB_LB_1.xlsx
146	main_safe	True	0.0	432	0	5.0	5.0	0.0	1	left	2.0	1.0	1.0	0	-0.08	blockFiles/set_50/main_safe/leftBlue\GB_LB_1.xlsx
147	main_safe	True	0.0	432	0	5.0	5.0	1.0	1	right	1.0	0.0	1.0	1	0.08	blockFiles/set_50/main_safe/leftBlue\GB_LB_1.xlsx
148	main_safe	True	0.0	432	0	5.0	5.0	1.0	1	right	1.0	1.0	1.0	1	0.08	blockFiles/set_50/main_safe/leftBlue\GB_LB_1.xlsx
149	main_safe	True	0.0	432	0	5.0	5.0	0.0	1	left	2.0	1.0	1.0	0	-0.08	blockFiles/set_50/main_safe/leftBlue\GB_LB_1.xlsx
150	main_safe	True	0.0	432	0	5.0	5.0	1.0	1	right	1.0	1.0	1.0	1	0.08	blockFiles/set_50/main_safe/leftBlue\GB_LB_1.xlsx
151	patches	True	n/a	432	0	n/a	n/a	0.0	1	left	n/a	n/a	n/a	0	-0.021935699656599996	blockFiles/set_50/main_PD/GB_runPatches1.xlsx
152	patches	True	n/a	432	0	n/a	n/a	1.0	1	right	n/a	n/a	n/a	1	0.0595036694035	blockFiles/set_50/main_PD/GB_runPatches1.xlsx
153	patches	True	n/a	432	0	n/a	n/a	0.0	0	left	n/a	n/a	n/a	1	0.00625423833728	blockFiles/set_50/main_PD/GB_runPatches1.xlsx
154	patches	True	n/a	432	0	n/a	n/a	1.0	1	right	n/a	n/a	n/a	1	0.028728201258900004	blockFiles/set_50/main_PD/GB_runPatches1.xlsx
155	patches	True	n/a	432	0	n/a	n/a	0.0	1	left	n/a	n/a	n/a	0	-0.017090394292	blockFiles/set_50/main_PD/GB_runPatches1.xlsx
156	patches	True	n/a	432	0	n/a	n/a	0.0	1	left	n/a	n/a	n/a	0	-0.0790717645362	blockFiles/set_50/main_PD/GB_runPatches1.xlsx
157	patches	True	n/a	432	0	n/a	n/a	1.0	1	right	n/a	n/a	n/a	1	0.0313929976709	blockFiles/set_50/main_PD/GB_runPatches1.xlsx
158	patches	True	n/a	432	0	n/a	n/a	0.0	0	left	n/a	n/a	n/a	1	0.0266585213505	blockFiles/set_50/main_PD/GB_runPatches1.xlsx
159	patches	True	n/a	432	0	n/a	n/a	0.0	1	left	n/a	n/a	n/a	0	-0.0760384288058	blockFiles/set_50/main_PD/GB_runPatches1.xlsx
160	patches	True	n/a	432	0	n/a	n/a	1.0	1	right	n/a	n/a	n/a	1	0.0211054767855	blockFiles/set_50/main_PD/GB_runPatches1.xlsx
161	patches	True	n/a	432	0	n/a	n/a	1.0	1	right	n/a	n/a	n/a	1	0.0264155802317	blockFiles/set_50/main_PD/GB_runPatches1.xlsx
162	patches	True	n/a	432	0	n/a	n/a	0.0	0	left	n/a	n/a	n/a	1	0.00403446650133	blockFiles/set_50/main_PD/GB_runPatches1.xlsx
163	patches	True	n/a	432	0	n/a	n/a	0.0	1	left	n/a	n/a	n/a	0	-0.052138096448	blockFiles/set_50/main_PD/GB_runPatches1.xlsx
164	patches	True	n/a	432	0	n/a	n/a	0.0	0	left	n/a	n/a	n/a	1	0.07663283860310001	blockFiles/set_50/main_PD/GB_runPatches1.xlsx
165	patches	True	n/a	432	0	n/a	n/a	0.0	1	left	n/a	n/a	n/a	0	-0.06978902379049999	blockFiles/set_50/main_PD/GB_runPatches1.xlsx
166	patches	True	n/a	432	0	n/a	n/a	0.0	1	left	n/a	n/a	n/a	0	-0.0342256832868	blockFiles/set_50/main_PD/GB_runPatches1.xlsx
167	patches	True	n/a	432	0	n/a	n/a	0.0	1	left	n/a	n/a	n/a	0	-0.010422568879999998	blockFiles/set_50/main_PD/GB_runPatches1.xlsx
168	patches	True	n/a	432	0	n/a	n/a	0.0	1	left	n/a	n/a	n/a	0	-0.0316518152691	blockFiles/set_50/main_PD/GB_runPatches1.xlsx
169	patches	True	n/a	432	0	n/a	n/a	1.0	1	right	n/a	n/a	n/a	1	0.038351825717800006	blockFiles/set_50/main_PD/GB_runPatches1.xlsx
170	patches	True	n/a	432	0	n/a	n/a	n/a	0	None	n/a	n/a	n/a	1	0.0198686648719	blockFiles/set_50/main_PD/GB_runPatches1.xlsx
171	patches	True	n/a	432	0	n/a	n/a	1.0	1	right	n/a	n/a	n/a	1	0.07746710669250001	blockFiles/set_50/main_PD/GB_runPatches1.xlsx
172	patches	True	n/a	432	0	n/a	n/a	1.0	1	right	n/a	n/a	n/a	1	0.0638138485327	blockFiles/set_50/main_PD/GB_runPatches1.xlsx
173	patches	True	n/a	432	0	n/a	n/a	0.0	1	left	n/a	n/a	n/a	0	-0.0424960727431	blockFiles/set_50/main_PD/GB_runPatches1.xlsx
174	patches	True	n/a	432	0	n/a	n/a	0.0	1	left	n/a	n/a	n/a	0	-0.0119432186335	blockFiles/set_50/main_PD/GB_runPatches1.xlsx
175	patches	True	n/a	432	0	n/a	n/a	0.0	1	left	n/a	n/a	n/a	0	-0.0787041890621	blockFiles/set_50/main_PD/GB_runPatches1.xlsx
176	patches	True	n/a	432	0	n/a	n/a	0.0	1	left	n/a	n/a	n/a	0	-0.014037218466399999	blockFiles/set_50/main_PD/GB_runPatches1.xlsx
177	patches	True	n/a	432	0	n/a	n/a	0.0	1	left	n/a	n/a	n/a	0	-0.0311541848257	blockFiles/set_50/main_PD/GB_runPatches1.xlsx
178	patches	True	n/a	432	0	n/a	n/a	1.0	1	right	n/a	n/a	n/a	1	0.023621196839999997	blockFiles/set_50/main_PD/GB_runPatches1.xlsx
179	patches	True	n/a	432	0	n/a	n/a	1.0	1	right	n/a	n/a	n/a	1	0.0519130037725	blockFiles/set_50/main_PD/GB_runPatches1.xlsx
180	patches	True	n/a	432	0	n/a	n/a	0.0	1	left	n/a	n/a	n/a	0	-0.032303691674000004	blockFiles/set_50/main_PD/GB_runPatches1.xlsx
181	patches	True	n/a	432	0	n/a	n/a	1.0	1	right	n/a	n/a	n/a	1	0.0702065471001	blockFiles/set_50/main_PD/GB_runPatches1.xlsx
182	patches	True	n/a	432	0	n/a	n/a	1.0	0	right	n/a	n/a	n/a	0	-0.00612622775137	blockFiles/set_50/main_PD/GB_runPatches1.xlsx
183	patches	True	n/a	432	0	n/a	n/a	0.0	1	left	n/a	n/a	n/a	0	-0.04953836819159999	blockFiles/set_50/main_PD/GB_runPatches1.xlsx
184	patches	True	n/a	432	0	n/a	n/a	1.0	1	right	n/a	n/a	n/a	1	0.00554419234395	blockFiles/set_50/main_PD/GB_runPatches1.xlsx
185	patches	True	n/a	432	0	n/a	n/a	1.0	1	right	n/a	n/a	n/a	1	0.016190502811200002	blockFiles/set_50/main_PD/GB_runPatches1.xlsx
186	patches	True	n/a	432	0	n/a	n/a	n/a	0	None	n/a	n/a	n/a	1	0.0219652525708	blockFiles/set_50/main_PD/GB_runPatches1.xlsx
187	patches	True	n/a	432	0	n/a	n/a	1.0	1	right	n/a	n/a	n/a	1	0.0541381613538	blockFiles/set_50/main_PD/GB_runPatches1.xlsx
188	patches	True	n/a	432	0	n/a	n/a	1.0	0	right	n/a	n/a	n/a	0	-0.04174531351769999	blockFiles/set_50/main_PD/GB_runPatches1.xlsx
189	patches	True	n/a	432	0	n/a	n/a	1.0	1	right	n/a	n/a	n/a	1	0.0546211402863	blockFiles/set_50/main_PD/GB_runPatches1.xlsx
190	patches	True	n/a	432	0	n/a	n/a	n/a	0	None	n/a	n/a	n/a	0	-0.0197869920172	blockFiles/set_50/main_PD/GB_runPatches1.xlsx
191	patches	True	n/a	432	0	n/a	n/a	0.0	1	left	n/a	n/a	n/a	0	-0.0637390348502	blockFiles/set_50/main_PD/GB_runPatches1.xlsx
192	patches	True	n/a	432	0	n/a	n/a	0.0	1	left	n/a	n/a	n/a	0	-0.024888680521400003	blockFiles/set_50/main_PD/GB_runPatches1.xlsx
193	patches	True	n/a	432	0	n/a	n/a	0.0	1	left	n/a	n/a	n/a	0	-0.055048276074199994	blockFiles/set_50/main_PD/GB_runPatches1.xlsx
194	patches	True	n/a	432	0	n/a	n/a	0.0	1	left	n/a	n/a	n/a	0	-0.0676333992928	blockFiles/set_50/main_PD/GB_runPatches1.xlsx
195	patches	True	n/a	432	0	n/a	n/a	1.0	1	right	n/a	n/a	n/a	1	0.0247513805144	blockFiles/set_50/main_PD/GB_runPatches1.xlsx
196	patches	True	n/a	432	0	n/a	n/a	0.0	1	left	n/a	n/a	n/a	0	-0.0668872186169	blockFiles/set_50/main_PD/GB_runPatches1.xlsx
197	patches	True	n/a	432	0	n/a	n/a	1.0	1	right	n/a	n/a	n/a	1	0.06917098406700001	blockFiles/set_50/main_PD/GB_runPatches1.xlsx
198	patches	True	n/a	432	0	n/a	n/a	0.0	0	left	n/a	n/a	n/a	1	0.00843074820936	blockFiles/set_50/main_PD/GB_runPatches1.xlsx
199	patches	True	n/a	432	0	n/a	n/a	0.0	0	left	n/a	n/a	n/a	1	0.00831921815872	blockFiles/set_50/main_PD/GB_runPatches1.xlsx
200	patches	True	n/a	432	0	n/a	n/a	0.0	1	left	n/a	n/a	n/a	0	-0.0329928659461	blockFiles/set_50/main_PD/GB_runPatches1.xlsx
201	patches	True	n/a	432	0	n/a	n/a	1.0	1	right	n/a	n/a	n/a	1	0.0327913902514	blockFiles/set_50/main_PD/GB_runPatches1.xlsx
202	patches	True	n/a	432	0	n/a	n/a	1.0	1	right	n/a	n/a	n/a	1	0.0529169483483	blockFiles/set_50/main_PD/GB_runPatches1.xlsx
203	patches	True	n/a	432	0	n/a	n/a	1.0	1	right	n/a	n/a	n/a	1	0.0223156991042	blockFiles/set_50/main_PD/GB_runPatches1.xlsx
204	patches	True	n/a	432	0	n/a	n/a	0.0	1	left	n/a	n/a	n/a	0	-0.0645456784777	blockFiles/set_50/main_PD/GB_runPatches1.xlsx
205	patches	True	n/a	432	0	n/a	n/a	1.0	1	right	n/a	n/a	n/a	1	0.0480862015299	blockFiles/set_50/main_PD/GB_runPatches1.xlsx
206	patches	True	n/a	432	0	n/a	n/a	0.0	1	left	n/a	n/a	n/a	0	-0.055335807614000004	blockFiles/set_50/main_PD/GB_runPatches1.xlsx
207	patches	True	n/a	432	0	n/a	n/a	1.0	1	right	n/a	n/a	n/a	1	0.044981193784600006	blockFiles/set_50/main_PD/GB_runPatches1.xlsx
208	patches	True	n/a	432	0	n/a	n/a	0.0	1	left	n/a	n/a	n/a	0	-0.0671075526625	blockFiles/set_50/main_PD/GB_runPatches1.xlsx
209	patches	True	n/a	432	0	n/a	n/a	1.0	1	right	n/a	n/a	n/a	1	0.0356318604946	blockFiles/set_50/main_PD/GB_runPatches1.xlsx
210	patches	True	n/a	432	0	n/a	n/a	0.0	1	left	n/a	n/a	n/a	0	-0.036614763289699995	blockFiles/set_50/main_PD/GB_runPatches1.xlsx
211	patches	True	n/a	432	0	n/a	n/a	0.0	0	left	n/a	n/a	n/a	1	0.012036840431399999	blockFiles/set_50/main_PD/GB_runPatches1.xlsx
212	patches	True	n/a	432	0	n/a	n/a	0.0	1	left	n/a	n/a	n/a	0	-0.0679774587788	blockFiles/set_50/main_PD/GB_runPatches1.xlsx
213	patches	True	n/a	432	0	n/a	n/a	0.0	1	left	n/a	n/a	n/a	0	-0.013892169147700001	blockFiles/set_50/main_PD/GB_runPatches1.xlsx
214	patches	True	n/a	432	0	n/a	n/a	1.0	1	right	n/a	n/a	n/a	1	0.044915821682699995	blockFiles/set_50/main_PD/GB_runPatches1.xlsx
215	patches	True	n/a	432	0	n/a	n/a	0.0	1	left	n/a	n/a	n/a	0	-0.0645560877025	blockFiles/set_50/main_PD/GB_runPatches1.xlsx
216	patches	True	n/a	432	0	n/a	n/a	1.0	1	right	n/a	n/a	n/a	1	0.0635512565449	blockFiles/set_50/main_PD/GB_runPatches1.xlsx
217	patches	True	n/a	432	0	n/a	n/a	0.0	1	left	n/a	n/a	n/a	0	-0.0289972998761	blockFiles/set_50/main_PD/GB_runPatches1.xlsx
218	patches	True	n/a	432	0	n/a	n/a	1.0	1	right	n/a	n/a	n/a	1	0.036295572314400004	blockFiles/set_50/main_PD/GB_runPatches1.xlsx
219	patches	True	n/a	432	0	n/a	n/a	0.0	1	left	n/a	n/a	n/a	0	-0.0602524567582	blockFiles/set_50/main_PD/GB_runPatches1.xlsx
220	patches	True	n/a	432	0	n/a	n/a	1.0	1	right	n/a	n/a	n/a	1	0.0668645321578	blockFiles/set_50/main_PD/GB_runPatches1.xlsx
221	patches	True	n/a	432	0	n/a	n/a	1.0	0	right	n/a	n/a	n/a	0	-0.00793053798378	blockFiles/set_50/main_PD/GB_runPatches1.xlsx
222	patches	True	n/a	432	0	n/a	n/a	1.0	1	right	n/a	n/a	n/a	1	0.060984950065599994	blockFiles/set_50/main_PD/GB_runPatches1.xlsx
223	patches	True	n/a	432	0	n/a	n/a	0.0	1	left	n/a	n/a	n/a	0	-0.030574117544999998	blockFiles/set_50/main_PD/GB_runPatches1.xlsx
224	patches	True	n/a	432	0	n/a	n/a	0.0	1	left	n/a	n/a	n/a	0	-0.0353758124262	blockFiles/set_50/main_PD/GB_runPatches1.xlsx
225	patches	True	n/a	432	0	n/a	n/a	1.0	1	right	n/a	n/a	n/a	1	0.0416026213206	blockFiles/set_50/main_PD/GB_runPatches1.xlsx
226	patches	True	n/a	432	0	n/a	n/a	1.0	0	right	n/a	n/a	n/a	0	-0.01050068615	blockFiles/set_50/main_PD/GB_runPatches1.xlsx
227	patches	True	n/a	432	0	n/a	n/a	1.0	1	right	n/a	n/a	n/a	1	0.037822169084099994	blockFiles/set_50/main_PD/GB_runPatches1.xlsx
228	patches	True	n/a	432	0	n/a	n/a	1.0	1	right	n/a	n/a	n/a	1	0.062123377490800005	blockFiles/set_50/main_PD/GB_runPatches1.xlsx
229	patches	True	n/a	432	0	n/a	n/a	1.0	1	right	n/a	n/a	n/a	1	0.0389101741649	blockFiles/set_50/main_PD/GB_runPatches1.xlsx
230	patches	True	n/a	432	0	n/a	n/a	0.0	1	left	n/a	n/a	n/a	0	-0.065170438271	blockFiles/set_50/main_PD/GB_runPatches1.xlsx
231	patches	True	n/a	432	0	n/a	n/a	0.0	1	left	n/a	n/a	n/a	0	-0.0564817520231	blockFiles/set_50/main_PD/GB_runPatches1.xlsx
232	patches	True	n/a	432	0	n/a	n/a	1.0	1	right	n/a	n/a	n/a	1	0.0148714544624	blockFiles/set_50/main_PD/GB_runPatches1.xlsx
233	patches	True	n/a	432	0	n/a	n/a	0.0	1	left	n/a	n/a	n/a	0	-0.0252413511463	blockFiles/set_50/main_PD/GB_runPatches1.xlsx
234	patches	True	n/a	432	0	n/a	n/a	1.0	1	right	n/a	n/a	n/a	1	0.05625851523130001	blockFiles/set_50/main_PD/GB_runPatches1.xlsx
235	patches	True	n/a	432	0	n/a	n/a	1.0	1	right	n/a	n/a	n/a	1	0.06305784478780001	blockFiles/set_50/main_PD/GB_runPatches1.xlsx
236	patches	True	n/a	432	0	n/a	n/a	1.0	0	right	n/a	n/a	n/a	0	-0.0005604000762100001	blockFiles/set_50/main_PD/GB_runPatches1.xlsx
237	patches	True	n/a	432	0	n/a	n/a	0.0	1	left	n/a	n/a	n/a	0	-0.0566813768633	blockFiles/set_50/main_PD/GB_runPatches1.xlsx
238	patches	True	n/a	432	0	n/a	n/a	0.0	1	left	n/a	n/a	n/a	0	-0.039353018999099994	blockFiles/set_50/main_PD/GB_runPatches1.xlsx
239	patches	True	n/a	432	0	n/a	n/a	1.0	1	right	n/a	n/a	n/a	1	0.0447534750029	blockFiles/set_50/main_PD/GB_runPatches1.xlsx
240	patches	True	n/a	432	0	n/a	n/a	1.0	0	right	n/a	n/a	n/a	0	-0.006621729135510001	blockFiles/set_50/main_PD/GB_runPatches1.xlsx
241	patches	True	n/a	432	0	n/a	n/a	0.0	1	left	n/a	n/a	n/a	0	-0.06883131081239999	blockFiles/set_50/main_PD/GB_runPatches1.xlsx
242	patches	True	n/a	432	0	n/a	n/a	1.0	1	right	n/a	n/a	n/a	1	0.055392581876400004	blockFiles/set_50/main_PD/GB_runPatches1.xlsx
243	patches	True	n/a	432	0	n/a	n/a	1.0	1	right	n/a	n/a	n/a	1	0.0480565828085	blockFiles/set_50/main_PD/GB_runPatches1.xlsx
244	patches	True	n/a	432	0	n/a	n/a	0.0	1	left	n/a	n/a	n/a	0	-0.0281292347051	blockFiles/set_50/main_PD/GB_runPatches1.xlsx
245	patches	True	n/a	432	0	n/a	n/a	0.0	1	left	n/a	n/a	n/a	0	-0.0548280115798	blockFiles/set_50/main_PD/GB_runPatches1.xlsx
246	patches	True	n/a	432	0	n/a	n/a	0.0	0	left	n/a	n/a	n/a	1	0.0216136160679	blockFiles/set_50/main_PD/GB_runPatches1.xlsx
247	patches	True	n/a	432	0	n/a	n/a	1.0	1	right	n/a	n/a	n/a	1	0.0179653131962	blockFiles/set_50/main_PD/GB_runPatches1.xlsx
248	patches	True	n/a	432	0	n/a	n/a	1.0	1	right	n/a	n/a	n/a	1	0.07814469985660001	blockFiles/set_50/main_PD/GB_runPatches1.xlsx
249	patches	True	n/a	432	0	n/a	n/a	0.0	1	left	n/a	n/a	n/a	0	-0.0615856999904	blockFiles/set_50/main_PD/GB_runPatches1.xlsx
250	patches	True	n/a	432	0	n/a	n/a	0.0	1	left	n/a	n/a	n/a	0	-0.0510448595323	blockFiles/set_50/main_PD/GB_runPatches1.xlsx
251	main_unc	True	0.0	432	0	0.0	0.0	0.0	1	left	2.0	0.0	0.0	0	-0.0162133353762	blockFiles/set_50/main_unc/rightBlue\GB_RB_2.xlsx
252	main_unc	True	0.0	432	0	0.0	0.0	0.0	1	left	1.0	1.0	1.0	0	-0.024673955813099998	blockFiles/set_50/main_unc/rightBlue\GB_RB_2.xlsx
253	main_unc	True	0.0	432	0	0.0	0.0	1.0	1	right	2.0	1.0	1.0	1	0.0209978508763	blockFiles/set_50/main_unc/rightBlue\GB_RB_2.xlsx
254	main_unc	True	0.0	432	0	0.0	0.0	0.0	1	left	1.0	1.0	1.0	0	-0.0509462002479	blockFiles/set_50/main_unc/rightBlue\GB_RB_2.xlsx
255	main_unc	True	0.0	432	0	0.0	0.0	1.0	1	right	2.0	1.0	1.0	1	0.0770346718282	blockFiles/set_50/main_unc/rightBlue\GB_RB_2.xlsx
256	main_unc	True	0.0	432	0	0.0	0.0	0.0	1	left	1.0	0.0	1.0	0	-0.0552915551886	blockFiles/set_50/main_unc/rightBlue\GB_RB_2.xlsx
257	main_unc	True	0.0	432	0	0.0	0.0	1.0	1	right	2.0	1.0	1.0	1	0.045631388817	blockFiles/set_50/main_unc/rightBlue\GB_RB_2.xlsx
258	main_unc	True	0.0	432	0	0.0	0.0	1.0	1	right	2.0	0.0	1.0	1	0.026707280632099997	blockFiles/set_50/main_unc/rightBlue\GB_RB_2.xlsx
259	main_unc	True	0.0	432	0	0.0	0.0	0.0	1	left	1.0	0.0	1.0	0	-0.042438861914	blockFiles/set_50/main_unc/rightBlue\GB_RB_2.xlsx
260	main_unc	True	0.0	432	0	0.0	0.0	1.0	1	right	2.0	1.0	1.0	1	0.000764130894095	blockFiles/set_50/main_unc/rightBlue\GB_RB_2.xlsx
261	main_unc	True	0.0	432	0	0.0	0.0	1.0	1	right	2.0	0.0	1.0	1	0.016850657668	blockFiles/set_50/main_unc/rightBlue\GB_RB_2.xlsx
262	main_unc	True	0.0	432	0	0.0	0.0	1.0	1	right	2.0	1.0	1.0	1	0.07394353188569999	blockFiles/set_50/main_unc/rightBlue\GB_RB_2.xlsx
263	main_unc	True	0.0	432	0	0.0	0.0	0.0	1	left	1.0	1.0	1.0	0	-0.0798175377212	blockFiles/set_50/main_unc/rightBlue\GB_RB_2.xlsx
264	main_unc	True	0.0	432	0	0.0	0.0	0.0	1	left	1.0	1.0	1.0	0	-0.043334046863	blockFiles/set_50/main_unc/rightBlue\GB_RB_2.xlsx
265	main_unc	True	0.0	432	0	0.0	0.0	0.0	1	left	1.0	1.0	1.0	0	-0.06821549642830001	blockFiles/set_50/main_unc/rightBlue\GB_RB_2.xlsx
266	main_unc	True	0.0	432	0	0.0	0.0	0.0	1	left	1.0	0.0	1.0	0	-0.0172112873197	blockFiles/set_50/main_unc/rightBlue\GB_RB_2.xlsx
267	main_unc	True	0.0	432	0	0.0	0.0	0.0	1	left	2.0	0.0	0.0	0	-0.0186214375682	blockFiles/set_50/main_unc/rightBlue\GB_RB_2.xlsx
268	main_unc	True	0.0	432	0	0.0	0.0	1.0	1	right	2.0	1.0	1.0	1	0.0549198808521	blockFiles/set_50/main_unc/rightBlue\GB_RB_2.xlsx
269	main_unc	True	0.0	432	0	0.0	0.0	1.0	1	right	2.0	1.0	1.0	1	0.0112112472951	blockFiles/set_50/main_unc/rightBlue\GB_RB_2.xlsx
270	main_unc	True	0.0	432	0	0.0	0.0	1.0	1	right	2.0	1.0	1.0	1	0.0293056895956	blockFiles/set_50/main_unc/rightBlue\GB_RB_2.xlsx
271	main_unc	True	0.0	432	0	0.0	0.0	1.0	1	right	2.0	1.0	1.0	1	0.06321963215250001	blockFiles/set_50/main_unc/rightBlue\GB_RB_2.xlsx
272	main_unc	True	0.0	432	0	0.0	0.0	0.0	1	left	1.0	1.0	1.0	0	-0.0102482289076	blockFiles/set_50/main_unc/rightBlue\GB_RB_2.xlsx
273	main_unc	True	0.0	432	0	0.0	0.0	0.0	1	left	1.0	1.0	1.0	0	-0.041549856811800005	blockFiles/set_50/main_unc/rightBlue\GB_RB_2.xlsx
274	main_unc	True	0.0	432	0	0.0	0.0	0.0	1	left	1.0	1.0	1.0	0	-0.029474722780299997	blockFiles/set_50/main_unc/rightBlue\GB_RB_2.xlsx
275	main_unc	True	0.0	432	0	0.0	0.0	1.0	1	right	2.0	1.0	1.0	1	0.0011234302259999999	blockFiles/set_50/main_unc/rightBlue\GB_RB_2.xlsx
276	main_unc	True	1.0	432	0	1.0	1.0	n/a	0	None	n/a	0.0	n/a	0	-0.0291238817945	blockFiles/set_50/main_unc/rightBlue\GB_RB_4.xlsx
277	main_unc	True	0.0	432	0	1.0	1.0	0.0	0	left	1.0	0.0	0.0	1	0.0126134998538	blockFiles/set_50/main_unc/rightBlue\GB_RB_4.xlsx
278	main_unc	True	0.0	432	0	1.0	1.0	1.0	1	right	1.0	0.0	0.0	1	0.022171230372	blockFiles/set_50/main_unc/rightBlue\GB_RB_4.xlsx
279	main_unc	True	0.0	432	0	1.0	1.0	0.0	1	left	2.0	0.0	0.0	0	-0.035378739126	blockFiles/set_50/main_unc/rightBlue\GB_RB_4.xlsx
280	main_unc	True	0.0	432	0	1.0	1.0	1.0	1	right	1.0	0.0	0.0	1	0.06930847782639998	blockFiles/set_50/main_unc/rightBlue\GB_RB_4.xlsx
281	main_unc	True	0.0	432	0	1.0	1.0	0.0	1	left	1.0	0.0	1.0	0	-0.0469188728742	blockFiles/set_50/main_unc/rightBlue\GB_RB_4.xlsx
282	main_unc	True	0.0	432	0	1.0	1.0	1.0	1	right	1.0	0.0	0.0	1	0.047576726451500004	blockFiles/set_50/main_unc/rightBlue\GB_RB_4.xlsx
283	main_unc	True	0.0	432	0	1.0	1.0	0.0	1	left	1.0	1.0	1.0	0	-0.0633040503599	blockFiles/set_50/main_unc/rightBlue\GB_RB_4.xlsx
284	main_unc	True	0.0	432	0	1.0	1.0	1.0	1	right	2.0	1.0	1.0	1	0.0208550524339	blockFiles/set_50/main_unc/rightBlue\GB_RB_4.xlsx
285	main_unc	True	0.0	432	0	1.0	1.0	1.0	1	right	2.0	0.0	1.0	1	0.0226383954845	blockFiles/set_50/main_unc/rightBlue\GB_RB_4.xlsx
286	main_unc	True	0.0	432	0	1.0	1.0	1.0	1	right	2.0	1.0	1.0	1	0.044819468166699995	blockFiles/set_50/main_unc/rightBlue\GB_RB_4.xlsx
287	main_unc	True	0.0	432	0	1.0	1.0	1.0	1	right	2.0	1.0	1.0	1	0.0417583546974	blockFiles/set_50/main_unc/rightBlue\GB_RB_4.xlsx
288	main_unc	True	0.0	432	0	1.0	1.0	1.0	1	right	2.0	1.0	1.0	1	0.0119361777045	blockFiles/set_50/main_unc/rightBlue\GB_RB_4.xlsx
289	main_unc	True	0.0	432	0	1.0	1.0	0.0	1	left	1.0	1.0	1.0	0	-0.0383193033189	blockFiles/set_50/main_unc/rightBlue\GB_RB_4.xlsx
290	main_unc	True	0.0	432	0	1.0	1.0	0.0	1	left	1.0	1.0	1.0	0	-0.0588024681248	blockFiles/set_50/main_unc/rightBlue\GB_RB_4.xlsx
291	main_unc	True	0.0	432	0	1.0	1.0	1.0	1	right	2.0	0.0	1.0	1	0.0725748195872	blockFiles/set_50/main_unc/rightBlue\GB_RB_4.xlsx
292	main_unc	True	0.0	432	0	1.0	1.0	0.0	1	left	1.0	1.0	1.0	0	-0.0115878191404	blockFiles/set_50/main_unc/rightBlue\GB_RB_4.xlsx
293	main_unc	True	0.0	432	0	1.0	1.0	1.0	1	right	2.0	1.0	1.0	1	0.0355345831625	blockFiles/set_50/main_unc/rightBlue\GB_RB_4.xlsx
294	main_unc	True	0.0	432	0	1.0	1.0	0.0	1	left	1.0	1.0	1.0	0	-0.0784997134656	blockFiles/set_50/main_unc/rightBlue\GB_RB_4.xlsx
295	main_unc	True	0.0	432	0	1.0	1.0	0.0	1	left	1.0	1.0	1.0	0	-0.0263862025551	blockFiles/set_50/main_unc/rightBlue\GB_RB_4.xlsx
296	main_unc	True	0.0	432	0	1.0	1.0	0.0	1	left	1.0	1.0	1.0	0	-0.07136852305380001	blockFiles/set_50/main_unc/rightBlue\GB_RB_4.xlsx
297	main_unc	True	0.0	432	0	1.0	1.0	1.0	1	right	2.0	1.0	1.0	1	0.037038822341699994	blockFiles/set_50/main_unc/rightBlue\GB_RB_4.xlsx
298	main_unc	True	0.0	432	0	1.0	1.0	0.0	0	left	2.0	1.0	1.0	1	0.0008382748439910001	blockFiles/set_50/main_unc/rightBlue\GB_RB_4.xlsx
299	main_unc	True	0.0	432	0	1.0	1.0	1.0	1	right	2.0	0.0	1.0	1	0.0649427719973	blockFiles/set_50/main_unc/rightBlue\GB_RB_4.xlsx
300	main_unc	True	0.0	432	0	1.0	1.0	0.0	1	left	1.0	1.0	1.0	0	-0.0270599363744	blockFiles/set_50/main_unc/rightBlue\GB_RB_4.xlsx
301	main_unc	True	0.0	432	0	1.0	1.0	0.0	1	left	1.0	1.0	1.0	0	-0.0291238817945	blockFiles/set_50/main_unc/rightBlue\GB_RB_4.xlsx
302	main_unc	True	0.0	432	0	2.0	2.0	0.0	1	left	2.0	0.0	0.0	0	-0.0585004058667	blockFiles/set_50/main_unc/rightBlue\GB_RB_5.xlsx
303	main_unc	True	0.0	432	0	2.0	2.0	1.0	0	right	2.0	0.0	0.0	0	-0.00656833723187	blockFiles/set_50/main_unc/rightBlue\GB_RB_5.xlsx
304	main_unc	True	0.0	432	0	2.0	2.0	0.0	0	left	1.0	1.0	0.0	1	0.00399936420843	blockFiles/set_50/main_unc/rightBlue\GB_RB_5.xlsx
305	main_unc	True	0.0	432	0	2.0	2.0	0.0	1	left	1.0	1.0	1.0	0	-0.0567614003085	blockFiles/set_50/main_unc/rightBlue\GB_RB_5.xlsx
306	main_unc	True	0.0	432	0	2.0	2.0	1.0	0	right	2.0	0.0	0.0	0	-0.0351460644789	blockFiles/set_50/main_unc/rightBlue\GB_RB_5.xlsx
307	main_unc	True	0.0	432	0	2.0	2.0	1.0	1	right	2.0	1.0	1.0	1	0.0554035115615	blockFiles/set_50/main_unc/rightBlue\GB_RB_5.xlsx
308	main_unc	True	0.0	432	0	2.0	2.0	1.0	1	right	2.0	0.0	1.0	1	0.0370361363888	blockFiles/set_50/main_unc/rightBlue\GB_RB_5.xlsx
309	main_unc	True	0.0	432	0	2.0	2.0	0.0	1	left	1.0	1.0	1.0	0	-0.0344381700829	blockFiles/set_50/main_unc/rightBlue\GB_RB_5.xlsx
310	main_unc	True	0.0	432	0	2.0	2.0	0.0	1	left	1.0	1.0	1.0	0	-0.0639150364511	blockFiles/set_50/main_unc/rightBlue\GB_RB_5.xlsx
311	main_unc	True	0.0	432	0	2.0	2.0	0.0	1	left	1.0	1.0	1.0	0	-0.0346233401075	blockFiles/set_50/main_unc/rightBlue\GB_RB_5.xlsx
312	main_unc	True	0.0	432	0	2.0	2.0	1.0	1	right	2.0	1.0	1.0	1	0.0405132966489	blockFiles/set_50/main_unc/rightBlue\GB_RB_5.xlsx
313	main_unc	True	0.0	432	0	2.0	2.0	1.0	1	right	2.0	1.0	1.0	1	0.026356282085199998	blockFiles/set_50/main_unc/rightBlue\GB_RB_5.xlsx
314	main_unc	True	0.0	432	0	2.0	2.0	0.0	1	left	1.0	1.0	1.0	0	-0.0107537447847	blockFiles/set_50/main_unc/rightBlue\GB_RB_5.xlsx
315	main_unc	True	0.0	432	0	2.0	2.0	1.0	1	right	2.0	0.0	1.0	1	0.0710873709433	blockFiles/set_50/main_unc/rightBlue\GB_RB_5.xlsx
316	main_unc	True	0.0	432	0	2.0	2.0	0.0	1	left	1.0	1.0	1.0	0	-0.028198337908799997	blockFiles/set_50/main_unc/rightBlue\GB_RB_5.xlsx
317	main_unc	True	0.0	432	0	2.0	2.0	1.0	1	right	2.0	1.0	1.0	1	0.0618380061723	blockFiles/set_50/main_unc/rightBlue\GB_RB_5.xlsx
318	main_unc	True	0.0	432	0	2.0	2.0	0.0	1	left	1.0	1.0	1.0	0	-0.0034762915410100005	blockFiles/set_50/main_unc/rightBlue\GB_RB_5.xlsx
319	main_unc	True	0.0	432	0	2.0	2.0	1.0	1	right	2.0	1.0	1.0	1	0.0659184797481	blockFiles/set_50/main_unc/rightBlue\GB_RB_5.xlsx
320	main_unc	True	0.0	432	0	2.0	2.0	0.0	1	left	1.0	1.0	1.0	0	-0.0133670133911	blockFiles/set_50/main_unc/rightBlue\GB_RB_5.xlsx
321	main_unc	True	0.0	432	0	2.0	2.0	0.0	1	left	1.0	1.0	1.0	0	-0.0515206762031	blockFiles/set_50/main_unc/rightBlue\GB_RB_5.xlsx
322	main_unc	True	0.0	432	0	2.0	2.0	1.0	1	right	2.0	1.0	1.0	1	0.0300930700079	blockFiles/set_50/main_unc/rightBlue\GB_RB_5.xlsx
323	main_unc	True	0.0	432	0	2.0	2.0	0.0	1	left	1.0	1.0	1.0	0	-0.052335324659900005	blockFiles/set_50/main_unc/rightBlue\GB_RB_5.xlsx
324	main_unc	True	0.0	432	0	2.0	2.0	1.0	1	right	2.0	0.0	1.0	1	0.0250234892219	blockFiles/set_50/main_unc/rightBlue\GB_RB_5.xlsx
325	main_unc	True	0.0	432	0	2.0	2.0	1.0	1	right	2.0	0.0	1.0	1	0.014197637122100001	blockFiles/set_50/main_unc/rightBlue\GB_RB_5.xlsx
326	main_unc	True	0.0	432	0	2.0	2.0	0.0	1	left	1.0	1.0	1.0	0	-0.06864623483269999	blockFiles/set_50/main_unc/rightBlue\GB_RB_5.xlsx
327	main_unc	True	0.0	432	0	3.0	3.0	1.0	1	right	1.0	0.0	1.0	1	0.0754114685766	blockFiles/set_50/main_unc/leftBlue\GB_LB_2.xlsx
328	main_unc	True	0.0	432	0	3.0	3.0	0.0	1	left	2.0	1.0	1.0	0	-0.0365939483233	blockFiles/set_50/main_unc/leftBlue\GB_LB_2.xlsx
329	main_unc	True	0.0	432	0	3.0	3.0	0.0	1	left	2.0	0.0	1.0	0	-0.0293897908181	blockFiles/set_50/main_unc/leftBlue\GB_LB_2.xlsx
330	main_unc	True	0.0	432	0	3.0	3.0	0.0	1	left	2.0	1.0	1.0	0	-0.0675640947372	blockFiles/set_50/main_unc/leftBlue\GB_LB_2.xlsx
331	main_unc	True	0.0	432	0	3.0	3.0	1.0	1	right	2.0	0.0	0.0	1	0.0108807617426	blockFiles/set_50/main_unc/leftBlue\GB_LB_2.xlsx
332	main_unc	True	1.0	432	0	3.0	3.0	n/a	0	None	n/a	0.0	n/a	0	-0.031169965043700003	blockFiles/set_50/main_unc/leftBlue\GB_LB_2.xlsx
333	main_unc	True	0.0	432	0	3.0	3.0	1.0	1	right	1.0	1.0	1.0	1	0.0146750941686	blockFiles/set_50/main_unc/leftBlue\GB_LB_2.xlsx
334	main_unc	True	0.0	432	0	3.0	3.0	0.0	1	left	2.0	1.0	1.0	0	-0.060630955454000005	blockFiles/set_50/main_unc/leftBlue\GB_LB_2.xlsx
335	main_unc	True	0.0	432	0	3.0	3.0	0.0	1	left	2.0	0.0	1.0	0	-0.0431511024758	blockFiles/set_50/main_unc/leftBlue\GB_LB_2.xlsx
336	main_unc	True	0.0	432	0	3.0	3.0	0.0	1	left	2.0	0.0	1.0	0	-0.0763025956601	blockFiles/set_50/main_unc/leftBlue\GB_LB_2.xlsx
337	main_unc	True	0.0	432	0	3.0	3.0	1.0	1	right	1.0	1.0	1.0	1	0.03915611865	blockFiles/set_50/main_unc/leftBlue\GB_LB_2.xlsx
338	main_unc	True	0.0	432	0	3.0	3.0	1.0	1	right	1.0	1.0	1.0	1	0.037118826918300006	blockFiles/set_50/main_unc/leftBlue\GB_LB_2.xlsx
339	main_unc	True	0.0	432	0	3.0	3.0	1.0	1	right	1.0	1.0	1.0	1	0.00509566634893	blockFiles/set_50/main_unc/leftBlue\GB_LB_2.xlsx
340	main_unc	True	0.0	432	0	3.0	3.0	1.0	1	right	1.0	1.0	1.0	1	0.039716972634199994	blockFiles/set_50/main_unc/leftBlue\GB_LB_2.xlsx
341	main_unc	True	0.0	432	0	3.0	3.0	0.0	1	left	2.0	0.0	1.0	0	-0.0611139125191	blockFiles/set_50/main_unc/leftBlue\GB_LB_2.xlsx
342	main_unc	True	0.0	432	0	3.0	3.0	1.0	1	right	1.0	1.0	1.0	1	0.05773475289340001	blockFiles/set_50/main_unc/leftBlue\GB_LB_2.xlsx
343	main_unc	True	0.0	432	0	3.0	3.0	1.0	1	right	1.0	0.0	1.0	1	0.06263179041450001	blockFiles/set_50/main_unc/leftBlue\GB_LB_2.xlsx
344	main_unc	True	0.0	432	0	3.0	3.0	1.0	1	right	1.0	1.0	1.0	1	0.0549181664549	blockFiles/set_50/main_unc/leftBlue\GB_LB_2.xlsx
345	main_unc	True	0.0	432	0	3.0	3.0	1.0	1	right	1.0	1.0	1.0	1	0.047098120599999994	blockFiles/set_50/main_unc/leftBlue\GB_LB_2.xlsx
346	main_unc	True	0.0	432	0	3.0	3.0	0.0	1	left	2.0	1.0	1.0	0	-0.0162092966214	blockFiles/set_50/main_unc/leftBlue\GB_LB_2.xlsx
347	main_unc	True	0.0	432	0	3.0	3.0	1.0	1	right	1.0	1.0	1.0	1	0.04996580790730001	blockFiles/set_50/main_unc/leftBlue\GB_LB_2.xlsx
348	main_unc	True	0.0	432	0	3.0	3.0	0.0	1	left	2.0	1.0	1.0	0	-0.0252037580125	blockFiles/set_50/main_unc/leftBlue\GB_LB_2.xlsx
349	main_unc	True	0.0	432	0	3.0	3.0	1.0	1	right	1.0	1.0	1.0	1	0.0204935987294	blockFiles/set_50/main_unc/leftBlue\GB_LB_2.xlsx
350	main_unc	True	0.0	432	0	3.0	3.0	1.0	1	right	1.0	1.0	1.0	1	0.022677822466899998	blockFiles/set_50/main_unc/leftBlue\GB_LB_2.xlsx
351	main_unc	True	0.0	432	0	3.0	3.0	1.0	0	right	1.0	0.0	0.0	0	-0.0161279998347	blockFiles/set_50/main_unc/leftBlue\GB_LB_2.xlsx
352	main_unc	True	0.0	432	0	3.0	3.0	0.0	1	left	2.0	1.0	1.0	0	-0.031169965043700003	blockFiles/set_50/main_unc/leftBlue\GB_LB_2.xlsx
353	main_unc	True	0.0	432	0	4.0	4.0	1.0	1	right	1.0	1.0	1.0	1	0.0564259849861	blockFiles/set_50/main_unc/leftBlue\GB_LB_5.xlsx
354	main_unc	True	0.0	432	0	4.0	4.0	1.0	1	right	1.0	1.0	1.0	1	0.0634860209189	blockFiles/set_50/main_unc/leftBlue\GB_LB_5.xlsx
355	main_unc	True	0.0	432	0	4.0	4.0	1.0	0	right	2.0	1.0	1.0	0	-0.019479852858900002	blockFiles/set_50/main_unc/leftBlue\GB_LB_5.xlsx
356	main_unc	True	0.0	432	0	4.0	4.0	0.0	1	left	2.0	1.0	1.0	0	-0.0414279763214	blockFiles/set_50/main_unc/leftBlue\GB_LB_5.xlsx
357	main_unc	True	0.0	432	0	4.0	4.0	0.0	1	left	2.0	0.0	1.0	0	-0.0555620170571	blockFiles/set_50/main_unc/leftBlue\GB_LB_5.xlsx
358	main_unc	True	0.0	432	0	4.0	4.0	1.0	1	right	1.0	1.0	1.0	1	0.0753227116726	blockFiles/set_50/main_unc/leftBlue\GB_LB_5.xlsx
359	main_unc	True	0.0	432	0	4.0	4.0	0.0	1	left	2.0	1.0	1.0	0	-0.0207175536267	blockFiles/set_50/main_unc/leftBlue\GB_LB_5.xlsx
360	main_unc	True	0.0	432	0	4.0	4.0	1.0	1	right	1.0	1.0	1.0	1	0.0124423431791	blockFiles/set_50/main_unc/leftBlue\GB_LB_5.xlsx
361	main_unc	True	0.0	432	0	4.0	4.0	0.0	1	left	2.0	1.0	1.0	0	-0.0620947344042	blockFiles/set_50/main_unc/leftBlue\GB_LB_5.xlsx
362	main_unc	True	0.0	432	0	4.0	4.0	1.0	1	right	1.0	0.0	1.0	1	0.0455878594704	blockFiles/set_50/main_unc/leftBlue\GB_LB_5.xlsx
363	main_unc	True	0.0	432	0	4.0	4.0	0.0	0	left	1.0	1.0	1.0	1	0.0121425203234	blockFiles/set_50/main_unc/leftBlue\GB_LB_5.xlsx
364	main_unc	True	0.0	432	0	4.0	4.0	0.0	1	left	2.0	1.0	1.0	0	-0.040401053223800006	blockFiles/set_50/main_unc/leftBlue\GB_LB_5.xlsx
365	main_unc	True	0.0	432	0	4.0	4.0	1.0	1	right	1.0	0.0	1.0	1	0.06582250438630001	blockFiles/set_50/main_unc/leftBlue\GB_LB_5.xlsx
366	main_unc	True	0.0	432	0	4.0	4.0	0.0	1	left	2.0	1.0	1.0	0	-0.0205083358847	blockFiles/set_50/main_unc/leftBlue\GB_LB_5.xlsx
367	main_unc	True	0.0	432	0	4.0	4.0	1.0	1	right	1.0	1.0	1.0	1	0.04718283744530001	blockFiles/set_50/main_unc/leftBlue\GB_LB_5.xlsx
368	main_unc	True	0.0	432	0	4.0	4.0	1.0	1	right	1.0	1.0	1.0	1	0.041997118163900005	blockFiles/set_50/main_unc/leftBlue\GB_LB_5.xlsx
369	main_unc	True	0.0	432	0	4.0	4.0	0.0	1	left	1.0	0.0	0.0	0	-0.022539297360900004	blockFiles/set_50/main_unc/leftBlue\GB_LB_5.xlsx
370	main_unc	True	0.0	432	0	4.0	4.0	1.0	1	right	1.0	1.0	1.0	1	0.0407579215989	blockFiles/set_50/main_unc/leftBlue\GB_LB_5.xlsx
371	main_unc	True	0.0	432	0	4.0	4.0	0.0	1	left	2.0	1.0	1.0	0	-0.0744633290544	blockFiles/set_50/main_unc/leftBlue\GB_LB_5.xlsx
372	main_unc	True	0.0	432	0	4.0	4.0	0.0	1	left	2.0	0.0	1.0	0	-0.023814456034499998	blockFiles/set_50/main_unc/leftBlue\GB_LB_5.xlsx
373	main_unc	True	0.0	432	0	4.0	4.0	0.0	1	left	2.0	1.0	1.0	0	-0.0638579762727	blockFiles/set_50/main_unc/leftBlue\GB_LB_5.xlsx
374	main_unc	True	0.0	432	0	4.0	4.0	0.0	1	left	1.0	0.0	0.0	0	-0.007007423769680001	blockFiles/set_50/main_unc/leftBlue\GB_LB_5.xlsx
375	main_unc	True	0.0	432	0	4.0	4.0	1.0	1	right	1.0	0.0	1.0	1	0.048774085734	blockFiles/set_50/main_unc/leftBlue\GB_LB_5.xlsx
376	main_unc	True	0.0	432	0	4.0	4.0	1.0	1	right	1.0	1.0	1.0	1	0.011731393448999998	blockFiles/set_50/main_unc/leftBlue\GB_LB_5.xlsx
377	main_unc	True	0.0	432	0	4.0	4.0	1.0	1	right	1.0	1.0	1.0	1	0.0779363509826	blockFiles/set_50/main_unc/leftBlue\GB_LB_5.xlsx
378	main_unc	True	0.0	432	0	5.0	5.0	1.0	1	right	1.0	0.0	0.0	1	0.0776550725661	blockFiles/set_50/main_unc/rightBlue\GB_RB_3.xlsx
379	main_unc	True	0.0	432	0	5.0	5.0	0.0	1	left	2.0	0.0	0.0	0	-0.030084488429099998	blockFiles/set_50/main_unc/rightBlue\GB_RB_3.xlsx
380	main_unc	True	0.0	432	0	5.0	5.0	0.0	1	left	2.0	0.0	0.0	0	-0.071572589241	blockFiles/set_50/main_unc/rightBlue\GB_RB_3.xlsx
381	main_unc	True	0.0	432	0	5.0	5.0	0.0	1	left	1.0	1.0	1.0	0	-0.0243860136531	blockFiles/set_50/main_unc/rightBlue\GB_RB_3.xlsx
382	main_unc	True	0.0	432	0	5.0	5.0	1.0	1	right	2.0	1.0	1.0	1	0.0594639515318	blockFiles/set_50/main_unc/rightBlue\GB_RB_3.xlsx
383	main_unc	True	0.0	432	0	5.0	5.0	1.0	1	right	2.0	1.0	1.0	1	0.0163099385984	blockFiles/set_50/main_unc/rightBlue\GB_RB_3.xlsx
384	main_unc	True	0.0	432	0	5.0	5.0	1.0	1	right	2.0	1.0	1.0	1	0.0253081336059	blockFiles/set_50/main_unc/rightBlue\GB_RB_3.xlsx
385	main_unc	True	0.0	432	0	5.0	5.0	1.0	1	right	2.0	1.0	1.0	1	0.079806109909	blockFiles/set_50/main_unc/rightBlue\GB_RB_3.xlsx
386	main_unc	True	0.0	432	0	5.0	5.0	1.0	1	right	2.0	1.0	1.0	1	0.0430349663086	blockFiles/set_50/main_unc/rightBlue\GB_RB_3.xlsx
387	main_unc	True	0.0	432	0	5.0	5.0	1.0	1	right	2.0	1.0	1.0	1	0.06529127642509999	blockFiles/set_50/main_unc/rightBlue\GB_RB_3.xlsx
388	main_unc	True	0.0	432	0	5.0	5.0	1.0	1	right	2.0	0.0	1.0	1	0.0219407499768	blockFiles/set_50/main_unc/rightBlue\GB_RB_3.xlsx
389	main_unc	True	0.0	432	0	5.0	5.0	0.0	1	left	1.0	1.0	1.0	0	-0.049432550873600004	blockFiles/set_50/main_unc/rightBlue\GB_RB_3.xlsx
390	main_unc	True	0.0	432	0	5.0	5.0	0.0	1	left	1.0	1.0	1.0	0	-0.024591660778999998	blockFiles/set_50/main_unc/rightBlue\GB_RB_3.xlsx
391	main_unc	True	0.0	432	0	5.0	5.0	0.0	1	left	1.0	1.0	1.0	0	-0.009002716857940001	blockFiles/set_50/main_unc/rightBlue\GB_RB_3.xlsx
392	main_unc	True	0.0	432	0	5.0	5.0	0.0	1	left	1.0	1.0	1.0	0	-0.06887537749480001	blockFiles/set_50/main_unc/rightBlue\GB_RB_3.xlsx
393	main_unc	True	0.0	432	0	5.0	5.0	0.0	1	left	1.0	1.0	1.0	0	-0.0351017123647	blockFiles/set_50/main_unc/rightBlue\GB_RB_3.xlsx
394	main_unc	True	0.0	432	0	5.0	5.0	0.0	1	left	1.0	1.0	1.0	0	-0.0413769367896	blockFiles/set_50/main_unc/rightBlue\GB_RB_3.xlsx
395	main_unc	True	0.0	432	0	5.0	5.0	0.0	1	left	1.0	0.0	1.0	0	-0.055714131388800006	blockFiles/set_50/main_unc/rightBlue\GB_RB_3.xlsx
396	main_unc	True	0.0	432	0	5.0	5.0	1.0	1	right	2.0	1.0	1.0	1	0.0578829594329	blockFiles/set_50/main_unc/rightBlue\GB_RB_3.xlsx
397	main_unc	True	0.0	432	0	5.0	5.0	1.0	1	right	2.0	0.0	1.0	1	0.018185404725400003	blockFiles/set_50/main_unc/rightBlue\GB_RB_3.xlsx
398	main_unc	True	0.0	432	0	5.0	5.0	1.0	1	right	2.0	1.0	1.0	1	0.023986785076599997	blockFiles/set_50/main_unc/rightBlue\GB_RB_3.xlsx
399	main_unc	True	0.0	432	0	5.0	5.0	0.0	1	left	1.0	1.0	1.0	0	-0.07767824042589999	blockFiles/set_50/main_unc/rightBlue\GB_RB_3.xlsx
400	main_unc	True	0.0	432	0	5.0	5.0	1.0	1	right	2.0	1.0	1.0	1	0.0258525919169	blockFiles/set_50/main_unc/rightBlue\GB_RB_3.xlsx
401	main_unc	True	0.0	432	0	5.0	5.0	1.0	1	right	2.0	1.0	1.0	1	0.043859342373900004	blockFiles/set_50/main_unc/rightBlue\GB_RB_3.xlsx
402	main_unc	True	0.0	432	0	5.0	5.0	0.0	1	left	1.0	1.0	1.0	0	-0.0458548544906	blockFiles/set_50/main_unc/rightBlue\GB_RB_3.xlsx
403	main_unc	True	0.0	432	0	6.0	6.0	0.0	1	left	2.0	1.0	1.0	0	-0.0243702723086	blockFiles/set_50/main_unc/leftBlue\GB_LB_4.xlsx
404	main_unc	True	0.0	432	0	6.0	6.0	0.0	1	left	2.0	1.0	1.0	0	-0.040058020278800004	blockFiles/set_50/main_unc/leftBlue\GB_LB_4.xlsx
405	main_unc	True	0.0	432	0	6.0	6.0	0.0	1	left	2.0	1.0	1.0	0	-0.0791413660161	blockFiles/set_50/main_unc/leftBlue\GB_LB_4.xlsx
406	main_unc	True	0.0	432	0	6.0	6.0	1.0	1	right	1.0	1.0	1.0	1	0.023940723706	blockFiles/set_50/main_unc/leftBlue\GB_LB_4.xlsx
407	main_unc	True	0.0	432	0	6.0	6.0	0.0	0	left	2.0	0.0	0.0	1	0.0025352112762600004	blockFiles/set_50/main_unc/leftBlue\GB_LB_4.xlsx
408	main_unc	True	0.0	432	0	6.0	6.0	0.0	1	left	2.0	1.0	1.0	0	-0.037167191077	blockFiles/set_50/main_unc/leftBlue\GB_LB_4.xlsx
409	main_unc	True	0.0	432	0	6.0	6.0	1.0	1	right	1.0	1.0	1.0	1	0.015264251492899998	blockFiles/set_50/main_unc/leftBlue\GB_LB_4.xlsx
410	main_unc	True	0.0	432	0	6.0	6.0	0.0	1	left	2.0	0.0	1.0	0	-0.0774005098082	blockFiles/set_50/main_unc/leftBlue\GB_LB_4.xlsx
411	main_unc	True	0.0	432	0	6.0	6.0	0.0	1	left	2.0	0.0	1.0	0	-0.047763877827699995	blockFiles/set_50/main_unc/leftBlue\GB_LB_4.xlsx
412	main_unc	True	1.0	432	0	6.0	6.0	n/a	0	None	n/a	0.0	n/a	1	0.0404829933122	blockFiles/set_50/main_unc/leftBlue\GB_LB_4.xlsx
413	main_unc	True	0.0	432	0	6.0	6.0	1.0	1	right	1.0	0.0	1.0	1	0.00338881406933	blockFiles/set_50/main_unc/leftBlue\GB_LB_4.xlsx
414	main_unc	True	0.0	432	0	6.0	6.0	1.0	1	right	1.0	1.0	1.0	1	0.0792160117812	blockFiles/set_50/main_unc/leftBlue\GB_LB_4.xlsx
415	main_unc	True	0.0	432	0	6.0	6.0	0.0	1	left	2.0	1.0	1.0	0	-0.0404806922935	blockFiles/set_50/main_unc/leftBlue\GB_LB_4.xlsx
416	main_unc	True	0.0	432	0	6.0	6.0	0.0	1	left	2.0	0.0	1.0	0	-0.055001431796699994	blockFiles/set_50/main_unc/leftBlue\GB_LB_4.xlsx
417	main_unc	True	0.0	432	0	6.0	6.0	0.0	1	left	2.0	1.0	1.0	0	-0.0378893765807	blockFiles/set_50/main_unc/leftBlue\GB_LB_4.xlsx
418	main_unc	True	0.0	432	0	6.0	6.0	0.0	1	left	2.0	1.0	1.0	0	-0.0552161754109	blockFiles/set_50/main_unc/leftBlue\GB_LB_4.xlsx
419	main_unc	True	0.0	432	0	6.0	6.0	1.0	1	right	1.0	0.0	1.0	1	0.0329633932374	blockFiles/set_50/main_unc/leftBlue\GB_LB_4.xlsx
420	main_unc	True	0.0	432	0	6.0	6.0	0.0	1	left	2.0	1.0	1.0	0	-0.0252776532806	blockFiles/set_50/main_unc/leftBlue\GB_LB_4.xlsx
421	main_unc	True	0.0	432	0	6.0	6.0	1.0	1	right	1.0	1.0	1.0	1	0.040023637600199995	blockFiles/set_50/main_unc/leftBlue\GB_LB_4.xlsx
422	main_unc	True	0.0	432	0	6.0	6.0	0.0	1	left	2.0	1.0	1.0	0	-0.0687897529639	blockFiles/set_50/main_unc/leftBlue\GB_LB_4.xlsx
423	main_unc	True	0.0	432	0	6.0	6.0	0.0	1	left	2.0	0.0	1.0	0	-0.0645316638984	blockFiles/set_50/main_unc/leftBlue\GB_LB_4.xlsx
424	main_unc	True	0.0	432	0	6.0	6.0	1.0	1	right	1.0	1.0	1.0	1	0.0034702042117699997	blockFiles/set_50/main_unc/leftBlue\GB_LB_4.xlsx
425	main_unc	True	0.0	432	0	6.0	6.0	1.0	1	right	1.0	1.0	1.0	1	0.0692014186457	blockFiles/set_50/main_unc/leftBlue\GB_LB_4.xlsx
426	main_unc	True	0.0	432	0	6.0	6.0	1.0	1	right	1.0	1.0	1.0	1	0.0342903901078	blockFiles/set_50/main_unc/leftBlue\GB_LB_4.xlsx
427	main_unc	True	0.0	432	0	6.0	6.0	1.0	1	right	1.0	1.0	1.0	1	0.034740083869500005	blockFiles/set_50/main_unc/leftBlue\GB_LB_4.xlsx
428	main_unc	True	0.0	432	0	6.0	6.0	1.0	1	right	n/a	0.0	n/a	1	0.0404829933122	blockFiles/set_50/main_unc/leftBlue\GB_LB_4.xlsx
429	main_unc	True	0.0	432	0	6.0	6.0	1.0	1	right	1.0	1.0	1.0	1	0.0404829933122	blockFiles/set_50/main_unc/leftBlue\GB_LB_4.xlsx
430	main_unc	True	0.0	432	0	7.0	7.0	1.0	1	right	1.0	0.0	0.0	1	0.0229191456176	blockFiles/set_50/main_unc/rightBlue\GB_RB_1.xlsx
431	main_unc	True	0.0	432	0	7.0	7.0	0.0	1	left	1.0	1.0	1.0	0	-0.05539942078290001	blockFiles/set_50/main_unc/rightBlue\GB_RB_1.xlsx
432	main_unc	True	0.0	432	0	7.0	7.0	1.0	1	right	2.0	0.0	1.0	1	0.07994690673430001	blockFiles/set_50/main_unc/rightBlue\GB_RB_1.xlsx
433	main_unc	True	0.0	432	0	7.0	7.0	1.0	1	right	2.0	1.0	1.0	1	0.0404115108401	blockFiles/set_50/main_unc/rightBlue\GB_RB_1.xlsx
434	main_unc	True	0.0	432	0	7.0	7.0	1.0	1	right	2.0	1.0	1.0	1	0.0118297483027	blockFiles/set_50/main_unc/rightBlue\GB_RB_1.xlsx
435	main_unc	True	0.0	432	0	7.0	7.0	1.0	1	right	2.0	1.0	1.0	1	0.00959290387109	blockFiles/set_50/main_unc/rightBlue\GB_RB_1.xlsx
436	main_unc	True	0.0	432	0	7.0	7.0	0.0	1	left	1.0	1.0	1.0	0	-0.031985920649	blockFiles/set_50/main_unc/rightBlue\GB_RB_1.xlsx
437	main_unc	True	0.0	432	0	7.0	7.0	0.0	1	left	1.0	1.0	1.0	0	-0.032914847601200004	blockFiles/set_50/main_unc/rightBlue\GB_RB_1.xlsx
438	main_unc	True	0.0	432	0	7.0	7.0	1.0	1	right	2.0	1.0	1.0	1	0.032565950993400004	blockFiles/set_50/main_unc/rightBlue\GB_RB_1.xlsx
439	main_unc	True	0.0	432	0	7.0	7.0	0.0	1	left	1.0	0.0	1.0	0	-0.0590368751623	blockFiles/set_50/main_unc/rightBlue\GB_RB_1.xlsx
440	main_unc	True	0.0	432	0	7.0	7.0	1.0	1	right	2.0	1.0	1.0	1	0.0761378588527	blockFiles/set_50/main_unc/rightBlue\GB_RB_1.xlsx
441	main_unc	True	0.0	432	0	7.0	7.0	0.0	0	left	2.0	0.0	1.0	1	0.037716719601300006	blockFiles/set_50/main_unc/rightBlue\GB_RB_1.xlsx
442	main_unc	True	0.0	432	0	7.0	7.0	1.0	1	right	1.0	1.0	0.0	1	0.0417991155945	blockFiles/set_50/main_unc/rightBlue\GB_RB_1.xlsx
443	main_unc	True	0.0	432	0	7.0	7.0	0.0	1	left	2.0	0.0	0.0	0	-0.045616606343499996	blockFiles/set_50/main_unc/rightBlue\GB_RB_1.xlsx
444	main_unc	True	0.0	432	0	7.0	7.0	1.0	1	right	2.0	1.0	1.0	1	0.009076222460719999	blockFiles/set_50/main_unc/rightBlue\GB_RB_1.xlsx
445	main_unc	True	0.0	432	0	7.0	7.0	0.0	1	left	1.0	1.0	1.0	0	-0.0778764937073	blockFiles/set_50/main_unc/rightBlue\GB_RB_1.xlsx
446	main_unc	True	1.0	432	0	7.0	7.0	n/a	0	None	n/a	0.0	n/a	1	0.0022856161370900002	blockFiles/set_50/main_unc/rightBlue\GB_RB_1.xlsx
447	main_unc	True	0.0	432	0	7.0	7.0	1.0	0	right	2.0	0.0	0.0	0	-0.005694573894140001	blockFiles/set_50/main_unc/rightBlue\GB_RB_1.xlsx
448	main_unc	True	0.0	432	0	7.0	7.0	1.0	1	right	2.0	1.0	1.0	1	0.0573348820582	blockFiles/set_50/main_unc/rightBlue\GB_RB_1.xlsx
449	main_unc	True	0.0	432	0	7.0	7.0	0.0	1	left	1.0	1.0	1.0	0	-0.0786291606538	blockFiles/set_50/main_unc/rightBlue\GB_RB_1.xlsx
450	main_unc	True	1.0	432	0	7.0	7.0	0.0	1	left	n/a	0.0	n/a	0	-0.0446733878553	blockFiles/set_50/main_unc/rightBlue\GB_RB_1.xlsx
451	main_unc	True	0.0	432	0	7.0	7.0	0.0	1	left	1.0	1.0	1.0	0	-0.0155977422744	blockFiles/set_50/main_unc/rightBlue\GB_RB_1.xlsx
452	main_unc	True	0.0	432	0	7.0	7.0	0.0	1	left	1.0	1.0	1.0	0	-0.034837912842599995	blockFiles/set_50/main_unc/rightBlue\GB_RB_1.xlsx
453	main_unc	True	0.0	432	0	7.0	7.0	0.0	0	left	1.0	0.0	0.0	1	0.029266051817700003	blockFiles/set_50/main_unc/rightBlue\GB_RB_1.xlsx
454	main_unc	True	0.0	432	0	7.0	7.0	1.0	1	right	2.0	1.0	1.0	1	0.0340070314705	blockFiles/set_50/main_unc/rightBlue\GB_RB_1.xlsx
455	main_unc	True	0.0	432	0	7.0	7.0	0.0	0	left	1.0	1.0	0.0	1	0.0022856161370900002	blockFiles/set_50/main_unc/rightBlue\GB_RB_1.xlsx
456	main_unc	True	0.0	432	0	7.0	7.0	0.0	1	left	2.0	0.0	0.0	0	-0.0446733878553	blockFiles/set_50/main_unc/rightBlue\GB_RB_1.xlsx
457	main_unc	True	1.0	432	0	8.0	8.0	n/a	0	None	n/a	0.0	n/a	0	-0.025966660156799996	blockFiles/set_50/main_unc/leftBlue\GB_LB_1.xlsx
458	main_unc	True	0.0	432	0	8.0	8.0	0.0	1	left	1.0	0.0	0.0	0	-0.0434069468267	blockFiles/set_50/main_unc/leftBlue\GB_LB_1.xlsx
459	main_unc	True	0.0	432	0	8.0	8.0	1.0	1	right	1.0	1.0	1.0	1	0.054885647427300004	blockFiles/set_50/main_unc/leftBlue\GB_LB_1.xlsx
460	main_unc	True	0.0	432	0	8.0	8.0	0.0	1	left	2.0	0.0	1.0	0	-0.0652835058048	blockFiles/set_50/main_unc/leftBlue\GB_LB_1.xlsx
461	main_unc	True	0.0	432	0	8.0	8.0	0.0	1	left	2.0	1.0	1.0	0	-0.029816538374900003	blockFiles/set_50/main_unc/leftBlue\GB_LB_1.xlsx
462	main_unc	True	0.0	432	0	8.0	8.0	1.0	1	right	1.0	1.0	1.0	1	0.041413330771	blockFiles/set_50/main_unc/leftBlue\GB_LB_1.xlsx
463	main_unc	True	0.0	432	0	8.0	8.0	1.0	1	right	1.0	1.0	1.0	1	0.0033983582071999995	blockFiles/set_50/main_unc/leftBlue\GB_LB_1.xlsx
464	main_unc	True	0.0	432	0	8.0	8.0	1.0	1	right	1.0	1.0	1.0	1	0.0779979778267	blockFiles/set_50/main_unc/leftBlue\GB_LB_1.xlsx
465	main_unc	True	0.0	432	0	8.0	8.0	0.0	1	left	2.0	1.0	1.0	0	-0.048451846968400006	blockFiles/set_50/main_unc/leftBlue\GB_LB_1.xlsx
466	main_unc	True	0.0	432	0	8.0	8.0	0.0	1	left	2.0	1.0	1.0	0	-0.0462072314695	blockFiles/set_50/main_unc/leftBlue\GB_LB_1.xlsx
467	main_unc	True	0.0	432	0	8.0	8.0	1.0	1	right	1.0	1.0	1.0	1	0.014926414228999998	blockFiles/set_50/main_unc/leftBlue\GB_LB_1.xlsx
468	main_unc	True	0.0	432	0	8.0	8.0	1.0	1	right	1.0	1.0	1.0	1	0.0702320479043	blockFiles/set_50/main_unc/leftBlue\GB_LB_1.xlsx
469	main_unc	True	0.0	432	0	8.0	8.0	1.0	0	right	1.0	0.0	0.0	0	-0.00777653556317	blockFiles/set_50/main_unc/leftBlue\GB_LB_1.xlsx
470	main_unc	True	0.0	432	0	8.0	8.0	0.0	1	left	2.0	1.0	1.0	0	-0.049364910628599996	blockFiles/set_50/main_unc/leftBlue\GB_LB_1.xlsx
471	main_unc	True	0.0	432	0	8.0	8.0	1.0	1	right	1.0	1.0	1.0	1	0.0524820186943	blockFiles/set_50/main_unc/leftBlue\GB_LB_1.xlsx
472	main_unc	True	0.0	432	0	8.0	8.0	0.0	1	left	2.0	0.0	1.0	0	-0.07104142695669999	blockFiles/set_50/main_unc/leftBlue\GB_LB_1.xlsx
473	main_unc	True	0.0	432	0	8.0	8.0	1.0	1	right	1.0	1.0	1.0	1	0.0305284059234	blockFiles/set_50/main_unc/leftBlue\GB_LB_1.xlsx
474	main_unc	True	0.0	432	0	8.0	8.0	1.0	0	right	1.0	1.0	0.0	0	-0.025732689630200003	blockFiles/set_50/main_unc/leftBlue\GB_LB_1.xlsx
475	main_unc	True	0.0	432	0	8.0	8.0	1.0	1	right	1.0	1.0	1.0	1	0.0791068950295	blockFiles/set_50/main_unc/leftBlue\GB_LB_1.xlsx
476	main_unc	True	0.0	432	0	8.0	8.0	1.0	1	right	1.0	1.0	1.0	1	0.0641729996353	blockFiles/set_50/main_unc/leftBlue\GB_LB_1.xlsx
477	main_unc	True	0.0	432	0	8.0	8.0	1.0	1	right	2.0	1.0	0.0	1	0.0132948112302	blockFiles/set_50/main_unc/leftBlue\GB_LB_1.xlsx
478	main_unc	True	0.0	432	0	8.0	8.0	0.0	1	left	2.0	1.0	1.0	0	-0.0553433384746	blockFiles/set_50/main_unc/leftBlue\GB_LB_1.xlsx
479	main_unc	True	0.0	432	0	8.0	8.0	1.0	1	right	1.0	1.0	1.0	1	0.0529153271206	blockFiles/set_50/main_unc/leftBlue\GB_LB_1.xlsx
480	main_unc	True	0.0	432	0	8.0	8.0	0.0	1	left	2.0	1.0	1.0	0	-0.0255674726143	blockFiles/set_50/main_unc/leftBlue\GB_LB_1.xlsx
481	main_unc	True	0.0	432	0	8.0	8.0	1.0	1	right	1.0	0.0	1.0	1	0.05495331056419999	blockFiles/set_50/main_unc/leftBlue\GB_LB_1.xlsx
482	main_unc	True	0.0	432	0	8.0	8.0	0.0	1	left	2.0	1.0	1.0	0	-0.025966660156799996	blockFiles/set_50/main_unc/leftBlue\GB_LB_1.xlsx
483	main_unc	True	0.0	432	0	9.0	9.0	1.0	1	right	1.0	0.0	1.0	1	0.0343624424003	blockFiles/set_50/main_unc/leftBlue\GB_LB_3.xlsx
484	main_unc	True	0.0	432	0	9.0	9.0	1.0	1	right	2.0	0.0	0.0	1	0.066497399658	blockFiles/set_50/main_unc/leftBlue\GB_LB_3.xlsx
485	main_unc	True	0.0	432	0	9.0	9.0	1.0	1	right	2.0	0.0	0.0	1	0.0179573415779	blockFiles/set_50/main_unc/leftBlue\GB_LB_3.xlsx
486	main_unc	True	0.0	432	0	9.0	9.0	0.0	1	left	2.0	1.0	1.0	0	-0.049534296300300006	blockFiles/set_50/main_unc/leftBlue\GB_LB_3.xlsx
487	main_unc	True	0.0	432	0	9.0	9.0	1.0	1	right	1.0	1.0	1.0	1	0.023883470706599998	blockFiles/set_50/main_unc/leftBlue\GB_LB_3.xlsx
488	main_unc	True	0.0	432	0	9.0	9.0	1.0	1	right	1.0	0.0	1.0	1	0.073016343955	blockFiles/set_50/main_unc/leftBlue\GB_LB_3.xlsx
489	main_unc	True	0.0	432	0	9.0	9.0	0.0	1	left	2.0	1.0	1.0	0	-0.030115104802	blockFiles/set_50/main_unc/leftBlue\GB_LB_3.xlsx
490	main_unc	True	0.0	432	0	9.0	9.0	0.0	1	left	2.0	0.0	1.0	0	-0.0533409503475	blockFiles/set_50/main_unc/leftBlue\GB_LB_3.xlsx
491	main_unc	True	0.0	432	0	9.0	9.0	0.0	1	left	2.0	1.0	1.0	0	-0.00789583232254	blockFiles/set_50/main_unc/leftBlue\GB_LB_3.xlsx
492	main_unc	True	0.0	432	0	9.0	9.0	0.0	1	left	2.0	1.0	1.0	0	-0.0743131280504	blockFiles/set_50/main_unc/leftBlue\GB_LB_3.xlsx
493	main_unc	True	0.0	432	0	9.0	9.0	0.0	1	left	2.0	1.0	1.0	0	-0.0187574210763	blockFiles/set_50/main_unc/leftBlue\GB_LB_3.xlsx
494	main_unc	True	0.0	432	0	9.0	9.0	0.0	1	left	1.0	0.0	0.0	0	-0.012639750856899999	blockFiles/set_50/main_unc/leftBlue\GB_LB_3.xlsx
495	main_unc	True	0.0	432	0	9.0	9.0	0.0	1	left	2.0	1.0	1.0	0	-0.0383141323179	blockFiles/set_50/main_unc/leftBlue\GB_LB_3.xlsx
496	main_unc	True	0.0	432	0	9.0	9.0	1.0	1	right	1.0	1.0	1.0	1	0.0479268402047	blockFiles/set_50/main_unc/leftBlue\GB_LB_3.xlsx
497	main_unc	True	0.0	432	0	9.0	9.0	1.0	1	right	1.0	1.0	1.0	1	0.0557940599322	blockFiles/set_50/main_unc/leftBlue\GB_LB_3.xlsx
498	main_unc	True	0.0	432	0	9.0	9.0	1.0	1	right	1.0	0.0	1.0	1	0.0784545557201	blockFiles/set_50/main_unc/leftBlue\GB_LB_3.xlsx
499	main_unc	True	0.0	432	0	9.0	9.0	1.0	1	right	1.0	1.0	1.0	1	0.043336302041999994	blockFiles/set_50/main_unc/leftBlue\GB_LB_3.xlsx
500	main_unc	True	0.0	432	0	9.0	9.0	0.0	1	left	2.0	1.0	1.0	0	-0.006662449538709999	blockFiles/set_50/main_unc/leftBlue\GB_LB_3.xlsx
501	main_unc	True	0.0	432	0	9.0	9.0	1.0	1	right	1.0	1.0	1.0	1	0.0185469466448	blockFiles/set_50/main_unc/leftBlue\GB_LB_3.xlsx
502	main_unc	True	0.0	432	0	9.0	9.0	1.0	1	right	1.0	1.0	1.0	1	0.0596052060463	blockFiles/set_50/main_unc/leftBlue\GB_LB_3.xlsx
503	main_unc	True	0.0	432	0	9.0	9.0	0.0	1	left	2.0	1.0	1.0	0	-0.0656149046868	blockFiles/set_50/main_unc/leftBlue\GB_LB_3.xlsx
504	main_unc	True	0.0	432	0	9.0	9.0	0.0	1	left	2.0	1.0	1.0	0	-0.041179231461099995	blockFiles/set_50/main_unc/leftBlue\GB_LB_3.xlsx
505	main_unc	True	0.0	432	0	9.0	9.0	0.0	1	left	2.0	1.0	1.0	0	-0.041566473115199995	blockFiles/set_50/main_unc/leftBlue\GB_LB_3.xlsx
506	main_unc	True	0.0	432	0	9.0	9.0	1.0	1	right	1.0	1.0	1.0	1	0.032650230471	blockFiles/set_50/main_unc/leftBlue\GB_LB_3.xlsx
507	main_unc	True	0.0	432	0	9.0	9.0	0.0	1	left	2.0	1.0	1.0	0	-0.0220412555896	blockFiles/set_50/main_unc/leftBlue\GB_LB_3.xlsx
508	main_unc	True	0.0	432	0	10.0	10.0	0.0	1	left	2.0	1.0	1.0	0	-0.0113356012292	blockFiles/set_50/main_unc/leftBlue\GB_LB_6.xlsx
509	main_unc	True	0.0	432	0	10.0	10.0	0.0	1	left	2.0	1.0	1.0	0	-0.077950816527	blockFiles/set_50/main_unc/leftBlue\GB_LB_6.xlsx
510	main_unc	True	0.0	432	0	10.0	10.0	1.0	0	right	2.0	1.0	1.0	0	-0.025424620863099996	blockFiles/set_50/main_unc/leftBlue\GB_LB_6.xlsx
511	main_unc	True	0.0	432	0	10.0	10.0	0.0	1	left	2.0	1.0	1.0	0	-0.0358502581343	blockFiles/set_50/main_unc/leftBlue\GB_LB_6.xlsx
512	main_unc	True	0.0	432	0	10.0	10.0	0.0	1	left	2.0	0.0	1.0	0	-0.0731532739103	blockFiles/set_50/main_unc/leftBlue\GB_LB_6.xlsx
513	main_unc	True	0.0	432	0	10.0	10.0	1.0	1	right	1.0	1.0	1.0	1	0.046000921037	blockFiles/set_50/main_unc/leftBlue\GB_LB_6.xlsx
514	main_unc	True	0.0	432	0	10.0	10.0	0.0	1	left	2.0	1.0	1.0	0	-0.0484376359358	blockFiles/set_50/main_unc/leftBlue\GB_LB_6.xlsx
515	main_unc	True	1.0	432	0	10.0	10.0	1.0	1	right	n/a	0.0	n/a	1	0.0443817726709	blockFiles/set_50/main_unc/leftBlue\GB_LB_6.xlsx
516	main_unc	True	0.0	432	0	10.0	10.0	1.0	0	right	1.0	0.0	0.0	0	-0.015433702841399999	blockFiles/set_50/main_unc/leftBlue\GB_LB_6.xlsx
517	main_unc	True	0.0	432	0	10.0	10.0	0.0	0	left	2.0	0.0	0.0	1	0.0007984751462939999	blockFiles/set_50/main_unc/leftBlue\GB_LB_6.xlsx
518	main_unc	True	0.0	432	0	10.0	10.0	0.0	1	left	2.0	0.0	1.0	0	-0.0561294547841	blockFiles/set_50/main_unc/leftBlue\GB_LB_6.xlsx
519	main_unc	True	0.0	432	0	10.0	10.0	1.0	1	right	1.0	1.0	1.0	1	0.0623434628546	blockFiles/set_50/main_unc/leftBlue\GB_LB_6.xlsx
520	main_unc	True	0.0	432	0	10.0	10.0	1.0	1	right	1.0	1.0	1.0	1	0.0418062590435	blockFiles/set_50/main_unc/leftBlue\GB_LB_6.xlsx
521	main_unc	True	0.0	432	0	10.0	10.0	1.0	0	right	2.0	1.0	1.0	0	-0.005200356002899999	blockFiles/set_50/main_unc/leftBlue\GB_LB_6.xlsx
522	main_unc	True	0.0	432	0	10.0	10.0	1.0	1	right	2.0	1.0	0.0	1	0.0702430132031	blockFiles/set_50/main_unc/leftBlue\GB_LB_6.xlsx
523	main_unc	True	0.0	432	0	10.0	10.0	1.0	1	right	1.0	1.0	1.0	1	6.85920752585e-05	blockFiles/set_50/main_unc/leftBlue\GB_LB_6.xlsx
524	main_unc	True	0.0	432	0	10.0	10.0	1.0	1	right	1.0	1.0	1.0	1	0.0688325835578	blockFiles/set_50/main_unc/leftBlue\GB_LB_6.xlsx
525	main_unc	True	0.0	432	0	10.0	10.0	0.0	1	left	2.0	1.0	1.0	0	-0.0524085834064	blockFiles/set_50/main_unc/leftBlue\GB_LB_6.xlsx
526	main_unc	True	0.0	432	0	10.0	10.0	1.0	1	right	1.0	1.0	1.0	1	0.03908330744130001	blockFiles/set_50/main_unc/leftBlue\GB_LB_6.xlsx
527	main_unc	True	1.0	432	0	10.0	10.0	0.0	1	left	n/a	0.0	n/a	0	-0.0022753527946799998	blockFiles/set_50/main_unc/leftBlue\GB_LB_6.xlsx
528	main_unc	True	1.0	432	0	10.0	10.0	n/a	0	None	n/a	0.0	n/a	0	-0.007396392300720001	blockFiles/set_50/main_unc/leftBlue\GB_LB_6.xlsx
529	main_unc	True	0.0	432	0	10.0	10.0	1.0	1	right	1.0	1.0	1.0	1	0.0515232389607	blockFiles/set_50/main_unc/leftBlue\GB_LB_6.xlsx
530	main_unc	True	0.0	432	0	10.0	10.0	0.0	0	left	2.0	0.0	0.0	1	0.0190179193206	blockFiles/set_50/main_unc/leftBlue\GB_LB_6.xlsx
531	main_unc	True	0.0	432	0	10.0	10.0	1.0	1	right	1.0	1.0	1.0	1	0.055870551597300006	blockFiles/set_50/main_unc/leftBlue\GB_LB_6.xlsx
532	main_unc	True	0.0	432	0	10.0	10.0	0.0	1	left	2.0	1.0	1.0	0	-0.07597550474110001	blockFiles/set_50/main_unc/leftBlue\GB_LB_6.xlsx
533	main_unc	True	0.0	432	0	10.0	10.0	1.0	1	right	1.0	1.0	1.0	1	0.0443817726709	blockFiles/set_50/main_unc/leftBlue\GB_LB_6.xlsx
534	main_unc	True	0.0	432	0	10.0	10.0	1.0	0	right	1.0	1.0	0.0	0	-0.0022753527946799998	blockFiles/set_50/main_unc/leftBlue\GB_LB_6.xlsx
535	main_unc	True	0.0	432	0	10.0	10.0	1.0	0	right	1.0	1.0	0.0	0	-0.007396392300720001	blockFiles/set_50/main_unc/leftBlue\GB_LB_6.xlsx
536	main_unc	True	0.0	432	0	11.0	11.0	1.0	1	right	2.0	1.0	1.0	1	0.034320591762700005	blockFiles/set_50/main_unc/rightBlue\GB_RB_6.xlsx
537	main_unc	True	0.0	432	0	11.0	11.0	1.0	1	right	2.0	1.0	1.0	1	0.0557015607879	blockFiles/set_50/main_unc/rightBlue\GB_RB_6.xlsx
538	main_unc	True	0.0	432	0	11.0	11.0	0.0	1	left	2.0	0.0	0.0	0	-0.000836785882711	blockFiles/set_50/main_unc/rightBlue\GB_RB_6.xlsx
539	main_unc	True	0.0	432	0	11.0	11.0	0.0	1	left	1.0	1.0	1.0	0	-0.07247285127639999	blockFiles/set_50/main_unc/rightBlue\GB_RB_6.xlsx
540	main_unc	True	0.0	432	0	11.0	11.0	0.0	1	left	1.0	1.0	1.0	0	-0.07455505276100001	blockFiles/set_50/main_unc/rightBlue\GB_RB_6.xlsx
541	main_unc	True	0.0	432	0	11.0	11.0	1.0	1	right	2.0	1.0	1.0	1	0.046747242678	blockFiles/set_50/main_unc/rightBlue\GB_RB_6.xlsx
542	main_unc	True	0.0	432	0	11.0	11.0	1.0	1	right	2.0	1.0	1.0	1	0.0172086964175	blockFiles/set_50/main_unc/rightBlue\GB_RB_6.xlsx
543	main_unc	True	0.0	432	0	11.0	11.0	0.0	1	left	1.0	1.0	1.0	0	-0.040335796363699994	blockFiles/set_50/main_unc/rightBlue\GB_RB_6.xlsx
544	main_unc	True	0.0	432	0	11.0	11.0	1.0	1	right	2.0	1.0	1.0	1	0.0721130684204	blockFiles/set_50/main_unc/rightBlue\GB_RB_6.xlsx
545	main_unc	True	0.0	432	0	11.0	11.0	1.0	1	right	2.0	1.0	1.0	1	0.007928430214520001	blockFiles/set_50/main_unc/rightBlue\GB_RB_6.xlsx
546	main_unc	True	0.0	432	0	11.0	11.0	1.0	1	right	2.0	1.0	1.0	1	0.0515868986771	blockFiles/set_50/main_unc/rightBlue\GB_RB_6.xlsx
547	main_unc	True	0.0	432	0	11.0	11.0	1.0	1	right	2.0	1.0	1.0	1	0.048821227643599995	blockFiles/set_50/main_unc/rightBlue\GB_RB_6.xlsx
548	main_unc	True	0.0	432	0	11.0	11.0	1.0	1	right	2.0	1.0	1.0	1	0.06925160003830001	blockFiles/set_50/main_unc/rightBlue\GB_RB_6.xlsx
549	main_unc	True	0.0	432	0	11.0	11.0	1.0	0	right	2.0	0.0	0.0	0	-0.00130783010274	blockFiles/set_50/main_unc/rightBlue\GB_RB_6.xlsx
550	main_unc	True	0.0	432	0	11.0	11.0	1.0	1	right	2.0	1.0	1.0	1	0.0408105787076	blockFiles/set_50/main_unc/rightBlue\GB_RB_6.xlsx
551	main_unc	True	0.0	432	0	11.0	11.0	1.0	0	right	1.0	1.0	1.0	0	-0.0145928934962	blockFiles/set_50/main_unc/rightBlue\GB_RB_6.xlsx
552	main_unc	True	0.0	432	0	11.0	11.0	0.0	1	left	1.0	0.0	1.0	0	-0.0410715159029	blockFiles/set_50/main_unc/rightBlue\GB_RB_6.xlsx
553	main_unc	True	0.0	432	0	11.0	11.0	1.0	1	right	2.0	0.0	1.0	1	0.07970258854330001	blockFiles/set_50/main_unc/rightBlue\GB_RB_6.xlsx
554	main_unc	True	0.0	432	0	11.0	11.0	0.0	1	left	1.0	1.0	1.0	0	-0.06974289368839999	blockFiles/set_50/main_unc/rightBlue\GB_RB_6.xlsx
555	main_unc	True	1.0	432	0	11.0	11.0	n/a	0	None	n/a	0.0	n/a	1	0.0201227645203	blockFiles/set_50/main_unc/rightBlue\GB_RB_6.xlsx
556	main_unc	True	0.0	432	0	11.0	11.0	0.0	1	left	1.0	0.0	1.0	0	-0.038625095468	blockFiles/set_50/main_unc/rightBlue\GB_RB_6.xlsx
557	main_unc	True	0.0	432	0	11.0	11.0	0.0	1	left	1.0	1.0	1.0	0	-0.020117870234	blockFiles/set_50/main_unc/rightBlue\GB_RB_6.xlsx
558	main_unc	True	0.0	432	0	11.0	11.0	0.0	1	left	1.0	0.0	1.0	0	-0.010825038291499998	blockFiles/set_50/main_unc/rightBlue\GB_RB_6.xlsx
559	main_unc	True	0.0	432	0	11.0	11.0	0.0	1	left	1.0	1.0	1.0	0	-0.0488571694866	blockFiles/set_50/main_unc/rightBlue\GB_RB_6.xlsx
560	main_unc	True	0.0	432	0	11.0	11.0	0.0	1	left	1.0	1.0	1.0	0	-0.0619912831672	blockFiles/set_50/main_unc/rightBlue\GB_RB_6.xlsx
561	main_unc	True	0.0	432	0	11.0	11.0	1.0	1	right	2.0	1.0	1.0	1	0.0201227645203	blockFiles/set_50/main_unc/rightBlue\GB_RB_6.xlsx
