	trial_type	complete	missIndex	participant	id	blockNumber	b_t	d_t	decision1.corr	decision1.keys	a_t	r_t	decision2.corr	s_t	u_t	block_file
0	main_safe	True	0.0	268	0	0.0	0.0	1.0	1	right	2.0	1.0	0.0	1	0.08	blockFiles/set_37/main_safe/leftBlue\GB_LB_2.xlsx
1	main_safe	True	0.0	268	0	0.0	0.0	1.0	1	right	2.0	0.0	0.0	1	0.08	blockFiles/set_37/main_safe/leftBlue\GB_LB_2.xlsx
2	main_safe	True	0.0	268	0	0.0	0.0	0.0	1	left	1.0	0.0	0.0	0	-0.08	blockFiles/set_37/main_safe/leftBlue\GB_LB_2.xlsx
3	main_safe	True	0.0	268	0	0.0	0.0	0.0	1	left	1.0	0.0	0.0	0	-0.08	blockFiles/set_37/main_safe/leftBlue\GB_LB_2.xlsx
4	main_safe	True	0.0	268	0	0.0	0.0	1.0	1	right	1.0	1.0	1.0	1	0.08	blockFiles/set_37/main_safe/leftBlue\GB_LB_2.xlsx
5	main_safe	True	0.0	268	0	0.0	0.0	0.0	1	left	2.0	1.0	1.0	0	-0.08	blockFiles/set_37/main_safe/leftBlue\GB_LB_2.xlsx
6	main_safe	True	0.0	268	0	0.0	0.0	1.0	1	right	1.0	1.0	1.0	1	0.08	blockFiles/set_37/main_safe/leftBlue\GB_LB_2.xlsx
7	main_safe	True	0.0	268	0	0.0	0.0	0.0	1	left	2.0	1.0	1.0	0	-0.08	blockFiles/set_37/main_safe/leftBlue\GB_LB_2.xlsx
8	main_safe	True	0.0	268	0	0.0	0.0	0.0	1	left	2.0	1.0	1.0	0	-0.08	blockFiles/set_37/main_safe/leftBlue\GB_LB_2.xlsx
9	main_safe	True	0.0	268	0	0.0	0.0	0.0	1	left	2.0	0.0	1.0	0	-0.08	blockFiles/set_37/main_safe/leftBlue\GB_LB_2.xlsx
10	main_safe	True	0.0	268	0	0.0	0.0	1.0	1	right	1.0	1.0	1.0	1	0.08	blockFiles/set_37/main_safe/leftBlue\GB_LB_2.xlsx
11	main_safe	True	1.0	268	0	0.0	0.0	n/a	0	None	n/a	0.0	n/a	0	-0.08	blockFiles/set_37/main_safe/leftBlue\GB_LB_2.xlsx
12	main_safe	True	0.0	268	0	0.0	0.0	0.0	1	left	2.0	1.0	1.0	0	-0.08	blockFiles/set_37/main_safe/leftBlue\GB_LB_2.xlsx
13	main_safe	True	0.0	268	0	0.0	0.0	0.0	1	left	2.0	1.0	1.0	0	-0.08	blockFiles/set_37/main_safe/leftBlue\GB_LB_2.xlsx
14	main_safe	True	0.0	268	0	0.0	0.0	1.0	1	right	1.0	1.0	1.0	1	0.08	blockFiles/set_37/main_safe/leftBlue\GB_LB_2.xlsx
15	main_safe	True	1.0	268	0	0.0	0.0	0.0	1	left	n/a	0.0	n/a	0	-0.08	blockFiles/set_37/main_safe/leftBlue\GB_LB_2.xlsx
16	main_safe	True	0.0	268	0	0.0	0.0	0.0	1	left	2.0	0.0	1.0	0	-0.08	blockFiles/set_37/main_safe/leftBlue\GB_LB_2.xlsx
17	main_safe	True	0.0	268	0	0.0	0.0	1.0	1	right	1.0	1.0	1.0	1	0.08	blockFiles/set_37/main_safe/leftBlue\GB_LB_2.xlsx
18	main_safe	True	0.0	268	0	0.0	0.0	1.0	1	right	1.0	1.0	1.0	1	0.08	blockFiles/set_37/main_safe/leftBlue\GB_LB_2.xlsx
19	main_safe	True	0.0	268	0	0.0	0.0	1.0	1	right	1.0	1.0	1.0	1	0.08	blockFiles/set_37/main_safe/leftBlue\GB_LB_2.xlsx
20	main_safe	True	0.0	268	0	0.0	0.0	1.0	1	right	1.0	1.0	1.0	1	0.08	blockFiles/set_37/main_safe/leftBlue\GB_LB_2.xlsx
21	main_safe	True	0.0	268	0	0.0	0.0	1.0	1	right	1.0	1.0	1.0	1	0.08	blockFiles/set_37/main_safe/leftBlue\GB_LB_2.xlsx
22	main_safe	True	0.0	268	0	0.0	0.0	1.0	1	right	1.0	1.0	1.0	1	0.08	blockFiles/set_37/main_safe/leftBlue\GB_LB_2.xlsx
23	main_safe	True	0.0	268	0	0.0	0.0	0.0	1	left	1.0	1.0	0.0	0	-0.08	blockFiles/set_37/main_safe/leftBlue\GB_LB_2.xlsx
24	main_safe	True	0.0	268	0	0.0	0.0	1.0	0	right	2.0	1.0	1.0	0	-0.08	blockFiles/set_37/main_safe/leftBlue\GB_LB_2.xlsx
25	main_safe	True	0.0	268	0	0.0	0.0	0.0	1	left	2.0	1.0	1.0	0	-0.08	blockFiles/set_37/main_safe/leftBlue\GB_LB_2.xlsx
26	main_safe	True	0.0	268	0	0.0	0.0	0.0	1	left	2.0	0.0	1.0	0	-0.08	blockFiles/set_37/main_safe/leftBlue\GB_LB_2.xlsx
27	main_safe	True	1.0	268	0	1.0	1.0	n/a	0	None	n/a	0.0	n/a	1	0.08	blockFiles/set_37/main_safe/rightBlue\GB_RB_1.xlsx
28	main_safe	True	0.0	268	0	1.0	1.0	1.0	1	right	2.0	1.0	1.0	1	0.08	blockFiles/set_37/main_safe/rightBlue\GB_RB_1.xlsx
29	main_safe	True	0.0	268	0	1.0	1.0	0.0	1	left	1.0	1.0	1.0	0	-0.08	blockFiles/set_37/main_safe/rightBlue\GB_RB_1.xlsx
30	main_safe	True	0.0	268	0	1.0	1.0	1.0	1	right	2.0	1.0	1.0	1	0.08	blockFiles/set_37/main_safe/rightBlue\GB_RB_1.xlsx
31	main_safe	True	0.0	268	0	1.0	1.0	1.0	1	right	2.0	1.0	1.0	1	0.08	blockFiles/set_37/main_safe/rightBlue\GB_RB_1.xlsx
32	main_safe	True	0.0	268	0	1.0	1.0	0.0	1	left	1.0	1.0	1.0	0	-0.08	blockFiles/set_37/main_safe/rightBlue\GB_RB_1.xlsx
33	main_safe	True	0.0	268	0	1.0	1.0	1.0	1	right	2.0	1.0	1.0	1	0.08	blockFiles/set_37/main_safe/rightBlue\GB_RB_1.xlsx
34	main_safe	True	0.0	268	0	1.0	1.0	1.0	1	right	2.0	1.0	1.0	1	0.08	blockFiles/set_37/main_safe/rightBlue\GB_RB_1.xlsx
35	main_safe	True	0.0	268	0	1.0	1.0	0.0	1	left	1.0	1.0	1.0	0	-0.08	blockFiles/set_37/main_safe/rightBlue\GB_RB_1.xlsx
36	main_safe	True	0.0	268	0	1.0	1.0	0.0	1	left	1.0	1.0	1.0	0	-0.08	blockFiles/set_37/main_safe/rightBlue\GB_RB_1.xlsx
37	main_safe	True	0.0	268	0	1.0	1.0	0.0	1	left	1.0	1.0	1.0	0	-0.08	blockFiles/set_37/main_safe/rightBlue\GB_RB_1.xlsx
38	main_safe	True	0.0	268	0	1.0	1.0	1.0	1	right	1.0	0.0	0.0	1	0.08	blockFiles/set_37/main_safe/rightBlue\GB_RB_1.xlsx
39	main_safe	True	0.0	268	0	1.0	1.0	0.0	1	left	1.0	1.0	1.0	0	-0.08	blockFiles/set_37/main_safe/rightBlue\GB_RB_1.xlsx
40	main_safe	True	0.0	268	0	1.0	1.0	1.0	1	right	2.0	0.0	1.0	1	0.08	blockFiles/set_37/main_safe/rightBlue\GB_RB_1.xlsx
41	main_safe	True	0.0	268	0	1.0	1.0	1.0	1	right	2.0	1.0	1.0	1	0.08	blockFiles/set_37/main_safe/rightBlue\GB_RB_1.xlsx
42	main_safe	True	0.0	268	0	1.0	1.0	0.0	1	left	1.0	0.0	1.0	0	-0.08	blockFiles/set_37/main_safe/rightBlue\GB_RB_1.xlsx
43	main_safe	True	0.0	268	0	1.0	1.0	0.0	1	left	1.0	1.0	1.0	0	-0.08	blockFiles/set_37/main_safe/rightBlue\GB_RB_1.xlsx
44	main_safe	True	1.0	268	0	1.0	1.0	1.0	1	right	n/a	0.0	n/a	1	0.08	blockFiles/set_37/main_safe/rightBlue\GB_RB_1.xlsx
45	main_safe	True	0.0	268	0	1.0	1.0	0.0	1	left	1.0	0.0	1.0	0	-0.08	blockFiles/set_37/main_safe/rightBlue\GB_RB_1.xlsx
46	main_safe	True	0.0	268	0	1.0	1.0	0.0	1	left	1.0	1.0	1.0	0	-0.08	blockFiles/set_37/main_safe/rightBlue\GB_RB_1.xlsx
47	main_safe	True	0.0	268	0	1.0	1.0	1.0	1	right	2.0	1.0	1.0	1	0.08	blockFiles/set_37/main_safe/rightBlue\GB_RB_1.xlsx
48	main_safe	True	0.0	268	0	1.0	1.0	0.0	1	left	2.0	1.0	0.0	0	-0.08	blockFiles/set_37/main_safe/rightBlue\GB_RB_1.xlsx
49	main_safe	True	0.0	268	0	1.0	1.0	1.0	1	right	2.0	1.0	1.0	1	0.08	blockFiles/set_37/main_safe/rightBlue\GB_RB_1.xlsx
50	main_safe	True	0.0	268	0	1.0	1.0	0.0	1	left	1.0	1.0	1.0	0	-0.08	blockFiles/set_37/main_safe/rightBlue\GB_RB_1.xlsx
51	main_safe	True	0.0	268	0	1.0	1.0	1.0	1	right	2.0	1.0	1.0	1	0.08	blockFiles/set_37/main_safe/rightBlue\GB_RB_1.xlsx
52	main_safe	True	0.0	268	0	1.0	1.0	1.0	1	right	2.0	1.0	1.0	1	0.08	blockFiles/set_37/main_safe/rightBlue\GB_RB_1.xlsx
53	main_safe	True	0.0	268	0	1.0	1.0	1.0	1	right	2.0	0.0	1.0	1	0.08	blockFiles/set_37/main_safe/rightBlue\GB_RB_1.xlsx
54	main_safe	True	0.0	268	0	2.0	2.0	1.0	1	right	1.0	0.0	1.0	1	0.08	blockFiles/set_37/main_safe/leftBlue\GB_LB_1.xlsx
55	main_safe	True	0.0	268	0	2.0	2.0	0.0	1	left	1.0	0.0	0.0	0	-0.08	blockFiles/set_37/main_safe/leftBlue\GB_LB_1.xlsx
56	main_safe	True	0.0	268	0	2.0	2.0	0.0	1	left	1.0	0.0	0.0	0	-0.08	blockFiles/set_37/main_safe/leftBlue\GB_LB_1.xlsx
57	main_safe	True	0.0	268	0	2.0	2.0	1.0	1	right	1.0	1.0	1.0	1	0.08	blockFiles/set_37/main_safe/leftBlue\GB_LB_1.xlsx
58	main_safe	True	0.0	268	0	2.0	2.0	1.0	1	right	1.0	0.0	1.0	1	0.08	blockFiles/set_37/main_safe/leftBlue\GB_LB_1.xlsx
59	main_safe	True	0.0	268	0	2.0	2.0	0.0	1	left	2.0	1.0	1.0	0	-0.08	blockFiles/set_37/main_safe/leftBlue\GB_LB_1.xlsx
60	main_safe	True	0.0	268	0	2.0	2.0	0.0	1	left	2.0	1.0	1.0	0	-0.08	blockFiles/set_37/main_safe/leftBlue\GB_LB_1.xlsx
61	main_safe	True	0.0	268	0	2.0	2.0	0.0	1	left	2.0	1.0	1.0	0	-0.08	blockFiles/set_37/main_safe/leftBlue\GB_LB_1.xlsx
62	main_safe	True	0.0	268	0	2.0	2.0	1.0	1	right	1.0	1.0	1.0	1	0.08	blockFiles/set_37/main_safe/leftBlue\GB_LB_1.xlsx
63	main_safe	True	0.0	268	0	2.0	2.0	1.0	1	right	1.0	1.0	1.0	1	0.08	blockFiles/set_37/main_safe/leftBlue\GB_LB_1.xlsx
64	main_safe	True	0.0	268	0	2.0	2.0	1.0	1	right	1.0	1.0	1.0	1	0.08	blockFiles/set_37/main_safe/leftBlue\GB_LB_1.xlsx
65	main_safe	True	0.0	268	0	2.0	2.0	1.0	1	right	1.0	1.0	1.0	1	0.08	blockFiles/set_37/main_safe/leftBlue\GB_LB_1.xlsx
66	main_safe	True	0.0	268	0	2.0	2.0	1.0	1	right	1.0	0.0	1.0	1	0.08	blockFiles/set_37/main_safe/leftBlue\GB_LB_1.xlsx
67	main_safe	True	0.0	268	0	2.0	2.0	1.0	1	right	1.0	1.0	1.0	1	0.08	blockFiles/set_37/main_safe/leftBlue\GB_LB_1.xlsx
68	main_safe	True	0.0	268	0	2.0	2.0	0.0	1	left	2.0	1.0	1.0	0	-0.08	blockFiles/set_37/main_safe/leftBlue\GB_LB_1.xlsx
69	main_safe	True	0.0	268	0	2.0	2.0	1.0	1	right	1.0	1.0	1.0	1	0.08	blockFiles/set_37/main_safe/leftBlue\GB_LB_1.xlsx
70	main_safe	True	0.0	268	0	2.0	2.0	0.0	1	left	2.0	1.0	1.0	0	-0.08	blockFiles/set_37/main_safe/leftBlue\GB_LB_1.xlsx
71	main_safe	True	0.0	268	0	2.0	2.0	0.0	1	left	2.0	1.0	1.0	0	-0.08	blockFiles/set_37/main_safe/leftBlue\GB_LB_1.xlsx
72	main_safe	True	0.0	268	0	2.0	2.0	0.0	1	left	2.0	1.0	1.0	0	-0.08	blockFiles/set_37/main_safe/leftBlue\GB_LB_1.xlsx
73	main_safe	True	0.0	268	0	2.0	2.0	0.0	1	left	2.0	0.0	1.0	0	-0.08	blockFiles/set_37/main_safe/leftBlue\GB_LB_1.xlsx
74	main_safe	True	0.0	268	0	2.0	2.0	1.0	1	right	1.0	1.0	1.0	1	0.08	blockFiles/set_37/main_safe/leftBlue\GB_LB_1.xlsx
75	main_safe	True	0.0	268	0	2.0	2.0	0.0	1	left	2.0	1.0	1.0	0	-0.08	blockFiles/set_37/main_safe/leftBlue\GB_LB_1.xlsx
76	main_safe	True	0.0	268	0	2.0	2.0	1.0	1	right	1.0	1.0	1.0	1	0.08	blockFiles/set_37/main_safe/leftBlue\GB_LB_1.xlsx
77	main_safe	True	0.0	268	0	2.0	2.0	0.0	1	left	2.0	1.0	1.0	0	-0.08	blockFiles/set_37/main_safe/leftBlue\GB_LB_1.xlsx
78	main_safe	True	0.0	268	0	2.0	2.0	1.0	1	right	1.0	1.0	1.0	1	0.08	blockFiles/set_37/main_safe/leftBlue\GB_LB_1.xlsx
79	main_safe	True	0.0	268	0	3.0	3.0	0.0	1	left	1.0	0.0	0.0	0	-0.08	blockFiles/set_37/main_safe/leftBlue\GB_LB_3.xlsx
80	main_safe	True	1.0	268	0	3.0	3.0	0.0	1	left	n/a	0.0	n/a	0	-0.08	blockFiles/set_37/main_safe/leftBlue\GB_LB_3.xlsx
81	main_safe	True	0.0	268	0	3.0	3.0	0.0	1	left	2.0	1.0	1.0	0	-0.08	blockFiles/set_37/main_safe/leftBlue\GB_LB_3.xlsx
82	main_safe	True	0.0	268	0	3.0	3.0	0.0	1	left	2.0	1.0	1.0	0	-0.08	blockFiles/set_37/main_safe/leftBlue\GB_LB_3.xlsx
83	main_safe	True	0.0	268	0	3.0	3.0	1.0	1	right	1.0	1.0	1.0	1	0.08	blockFiles/set_37/main_safe/leftBlue\GB_LB_3.xlsx
84	main_safe	True	0.0	268	0	3.0	3.0	0.0	1	left	2.0	1.0	1.0	0	-0.08	blockFiles/set_37/main_safe/leftBlue\GB_LB_3.xlsx
85	main_safe	True	0.0	268	0	3.0	3.0	1.0	1	right	1.0	1.0	1.0	1	0.08	blockFiles/set_37/main_safe/leftBlue\GB_LB_3.xlsx
86	main_safe	True	0.0	268	0	3.0	3.0	0.0	1	left	2.0	1.0	1.0	0	-0.08	blockFiles/set_37/main_safe/leftBlue\GB_LB_3.xlsx
87	main_safe	True	0.0	268	0	3.0	3.0	1.0	1	right	1.0	1.0	1.0	1	0.08	blockFiles/set_37/main_safe/leftBlue\GB_LB_3.xlsx
88	main_safe	True	0.0	268	0	3.0	3.0	0.0	1	left	2.0	1.0	1.0	0	-0.08	blockFiles/set_37/main_safe/leftBlue\GB_LB_3.xlsx
89	main_safe	True	0.0	268	0	3.0	3.0	1.0	1	right	1.0	0.0	1.0	1	0.08	blockFiles/set_37/main_safe/leftBlue\GB_LB_3.xlsx
90	main_safe	True	0.0	268	0	3.0	3.0	1.0	1	right	1.0	1.0	1.0	1	0.08	blockFiles/set_37/main_safe/leftBlue\GB_LB_3.xlsx
91	main_safe	True	0.0	268	0	3.0	3.0	0.0	1	left	2.0	0.0	1.0	0	-0.08	blockFiles/set_37/main_safe/leftBlue\GB_LB_3.xlsx
92	main_safe	True	0.0	268	0	3.0	3.0	1.0	1	right	1.0	1.0	1.0	1	0.08	blockFiles/set_37/main_safe/leftBlue\GB_LB_3.xlsx
93	main_safe	True	0.0	268	0	3.0	3.0	0.0	1	left	2.0	1.0	1.0	0	-0.08	blockFiles/set_37/main_safe/leftBlue\GB_LB_3.xlsx
94	main_safe	True	0.0	268	0	3.0	3.0	1.0	1	right	1.0	1.0	1.0	1	0.08	blockFiles/set_37/main_safe/leftBlue\GB_LB_3.xlsx
95	main_safe	True	0.0	268	0	3.0	3.0	0.0	1	left	2.0	1.0	1.0	0	-0.08	blockFiles/set_37/main_safe/leftBlue\GB_LB_3.xlsx
96	main_safe	True	0.0	268	0	3.0	3.0	1.0	1	right	1.0	1.0	1.0	1	0.08	blockFiles/set_37/main_safe/leftBlue\GB_LB_3.xlsx
97	main_safe	True	0.0	268	0	3.0	3.0	0.0	1	left	2.0	1.0	1.0	0	-0.08	blockFiles/set_37/main_safe/leftBlue\GB_LB_3.xlsx
98	main_safe	True	0.0	268	0	3.0	3.0	1.0	1	right	1.0	1.0	1.0	1	0.08	blockFiles/set_37/main_safe/leftBlue\GB_LB_3.xlsx
99	main_safe	True	0.0	268	0	3.0	3.0	1.0	1	right	1.0	1.0	1.0	1	0.08	blockFiles/set_37/main_safe/leftBlue\GB_LB_3.xlsx
100	main_safe	True	0.0	268	0	3.0	3.0	0.0	1	left	2.0	1.0	1.0	0	-0.08	blockFiles/set_37/main_safe/leftBlue\GB_LB_3.xlsx
101	main_safe	True	0.0	268	0	3.0	3.0	1.0	1	right	1.0	0.0	1.0	1	0.08	blockFiles/set_37/main_safe/leftBlue\GB_LB_3.xlsx
102	main_safe	True	0.0	268	0	3.0	3.0	0.0	1	left	2.0	1.0	1.0	0	-0.08	blockFiles/set_37/main_safe/leftBlue\GB_LB_3.xlsx
103	main_safe	True	0.0	268	0	3.0	3.0	0.0	1	left	2.0	0.0	1.0	0	-0.08	blockFiles/set_37/main_safe/leftBlue\GB_LB_3.xlsx
104	main_safe	True	0.0	268	0	3.0	3.0	0.0	1	left	2.0	0.0	1.0	0	-0.08	blockFiles/set_37/main_safe/leftBlue\GB_LB_3.xlsx
105	main_safe	True	0.0	268	0	4.0	4.0	1.0	1	right	2.0	1.0	1.0	1	0.08	blockFiles/set_37/main_safe/rightBlue\GB_RB_3.xlsx
106	main_safe	True	0.0	268	0	4.0	4.0	0.0	1	left	1.0	1.0	1.0	0	-0.08	blockFiles/set_37/main_safe/rightBlue\GB_RB_3.xlsx
107	main_safe	True	0.0	268	0	4.0	4.0	0.0	1	left	1.0	1.0	1.0	0	-0.08	blockFiles/set_37/main_safe/rightBlue\GB_RB_3.xlsx
108	main_safe	True	0.0	268	0	4.0	4.0	0.0	1	left	1.0	1.0	1.0	0	-0.08	blockFiles/set_37/main_safe/rightBlue\GB_RB_3.xlsx
109	main_safe	True	0.0	268	0	4.0	4.0	1.0	1	right	2.0	1.0	1.0	1	0.08	blockFiles/set_37/main_safe/rightBlue\GB_RB_3.xlsx
110	main_safe	True	0.0	268	0	4.0	4.0	0.0	1	left	1.0	1.0	1.0	0	-0.08	blockFiles/set_37/main_safe/rightBlue\GB_RB_3.xlsx
111	main_safe	True	0.0	268	0	4.0	4.0	1.0	1	right	2.0	1.0	1.0	1	0.08	blockFiles/set_37/main_safe/rightBlue\GB_RB_3.xlsx
112	main_safe	True	0.0	268	0	4.0	4.0	0.0	1	left	1.0	0.0	1.0	0	-0.08	blockFiles/set_37/main_safe/rightBlue\GB_RB_3.xlsx
113	main_safe	True	0.0	268	0	4.0	4.0	1.0	1	right	2.0	1.0	1.0	1	0.08	blockFiles/set_37/main_safe/rightBlue\GB_RB_3.xlsx
114	main_safe	True	0.0	268	0	4.0	4.0	0.0	1	left	1.0	0.0	1.0	0	-0.08	blockFiles/set_37/main_safe/rightBlue\GB_RB_3.xlsx
115	main_safe	True	0.0	268	0	4.0	4.0	0.0	1	left	1.0	0.0	1.0	0	-0.08	blockFiles/set_37/main_safe/rightBlue\GB_RB_3.xlsx
116	main_safe	True	0.0	268	0	4.0	4.0	0.0	1	left	1.0	1.0	1.0	0	-0.08	blockFiles/set_37/main_safe/rightBlue\GB_RB_3.xlsx
117	main_safe	True	0.0	268	0	4.0	4.0	1.0	1	right	2.0	1.0	1.0	1	0.08	blockFiles/set_37/main_safe/rightBlue\GB_RB_3.xlsx
118	main_safe	True	0.0	268	0	4.0	4.0	0.0	1	left	1.0	1.0	1.0	0	-0.08	blockFiles/set_37/main_safe/rightBlue\GB_RB_3.xlsx
119	main_safe	True	0.0	268	0	4.0	4.0	1.0	1	right	2.0	1.0	1.0	1	0.08	blockFiles/set_37/main_safe/rightBlue\GB_RB_3.xlsx
120	main_safe	True	0.0	268	0	4.0	4.0	0.0	1	left	1.0	1.0	1.0	0	-0.08	blockFiles/set_37/main_safe/rightBlue\GB_RB_3.xlsx
121	main_safe	True	0.0	268	0	4.0	4.0	0.0	1	left	1.0	1.0	1.0	0	-0.08	blockFiles/set_37/main_safe/rightBlue\GB_RB_3.xlsx
122	main_safe	True	0.0	268	0	4.0	4.0	0.0	1	left	1.0	0.0	1.0	0	-0.08	blockFiles/set_37/main_safe/rightBlue\GB_RB_3.xlsx
123	main_safe	True	0.0	268	0	4.0	4.0	1.0	1	right	2.0	1.0	1.0	1	0.08	blockFiles/set_37/main_safe/rightBlue\GB_RB_3.xlsx
124	main_safe	True	0.0	268	0	4.0	4.0	1.0	1	right	2.0	1.0	1.0	1	0.08	blockFiles/set_37/main_safe/rightBlue\GB_RB_3.xlsx
125	main_safe	True	0.0	268	0	4.0	4.0	0.0	1	left	1.0	1.0	1.0	0	-0.08	blockFiles/set_37/main_safe/rightBlue\GB_RB_3.xlsx
126	main_safe	True	0.0	268	0	4.0	4.0	1.0	1	right	2.0	1.0	1.0	1	0.08	blockFiles/set_37/main_safe/rightBlue\GB_RB_3.xlsx
127	main_safe	True	0.0	268	0	4.0	4.0	1.0	1	right	2.0	1.0	1.0	1	0.08	blockFiles/set_37/main_safe/rightBlue\GB_RB_3.xlsx
128	main_safe	True	0.0	268	0	4.0	4.0	1.0	1	right	2.0	1.0	1.0	1	0.08	blockFiles/set_37/main_safe/rightBlue\GB_RB_3.xlsx
129	main_safe	True	0.0	268	0	4.0	4.0	1.0	1	right	2.0	1.0	1.0	1	0.08	blockFiles/set_37/main_safe/rightBlue\GB_RB_3.xlsx
130	main_safe	True	0.0	268	0	5.0	5.0	1.0	1	right	2.0	1.0	1.0	1	0.08	blockFiles/set_37/main_safe/rightBlue\GB_RB_2.xlsx
131	main_safe	True	0.0	268	0	5.0	5.0	0.0	1	left	1.0	1.0	1.0	0	-0.08	blockFiles/set_37/main_safe/rightBlue\GB_RB_2.xlsx
132	main_safe	True	0.0	268	0	5.0	5.0	0.0	1	left	1.0	0.0	1.0	0	-0.08	blockFiles/set_37/main_safe/rightBlue\GB_RB_2.xlsx
133	main_safe	True	0.0	268	0	5.0	5.0	1.0	1	right	2.0	1.0	1.0	1	0.08	blockFiles/set_37/main_safe/rightBlue\GB_RB_2.xlsx
134	main_safe	True	0.0	268	0	5.0	5.0	0.0	1	left	1.0	1.0	1.0	0	-0.08	blockFiles/set_37/main_safe/rightBlue\GB_RB_2.xlsx
135	main_safe	True	0.0	268	0	5.0	5.0	0.0	1	left	1.0	1.0	1.0	0	-0.08	blockFiles/set_37/main_safe/rightBlue\GB_RB_2.xlsx
136	main_safe	True	0.0	268	0	5.0	5.0	1.0	1	right	2.0	1.0	1.0	1	0.08	blockFiles/set_37/main_safe/rightBlue\GB_RB_2.xlsx
137	main_safe	True	0.0	268	0	5.0	5.0	0.0	1	left	1.0	1.0	1.0	0	-0.08	blockFiles/set_37/main_safe/rightBlue\GB_RB_2.xlsx
138	main_safe	True	0.0	268	0	5.0	5.0	1.0	1	right	2.0	1.0	1.0	1	0.08	blockFiles/set_37/main_safe/rightBlue\GB_RB_2.xlsx
139	main_safe	True	0.0	268	0	5.0	5.0	1.0	1	right	2.0	1.0	1.0	1	0.08	blockFiles/set_37/main_safe/rightBlue\GB_RB_2.xlsx
140	main_safe	True	0.0	268	0	5.0	5.0	1.0	1	right	2.0	1.0	1.0	1	0.08	blockFiles/set_37/main_safe/rightBlue\GB_RB_2.xlsx
141	main_safe	True	0.0	268	0	5.0	5.0	1.0	1	right	2.0	0.0	1.0	1	0.08	blockFiles/set_37/main_safe/rightBlue\GB_RB_2.xlsx
142	main_safe	True	0.0	268	0	5.0	5.0	0.0	1	left	1.0	1.0	1.0	0	-0.08	blockFiles/set_37/main_safe/rightBlue\GB_RB_2.xlsx
143	main_safe	True	0.0	268	0	5.0	5.0	1.0	1	right	2.0	1.0	1.0	1	0.08	blockFiles/set_37/main_safe/rightBlue\GB_RB_2.xlsx
144	main_safe	True	0.0	268	0	5.0	5.0	1.0	1	right	2.0	0.0	1.0	1	0.08	blockFiles/set_37/main_safe/rightBlue\GB_RB_2.xlsx
145	main_safe	True	0.0	268	0	5.0	5.0	1.0	1	right	2.0	1.0	1.0	1	0.08	blockFiles/set_37/main_safe/rightBlue\GB_RB_2.xlsx
146	main_safe	True	0.0	268	0	5.0	5.0	0.0	1	left	1.0	1.0	1.0	0	-0.08	blockFiles/set_37/main_safe/rightBlue\GB_RB_2.xlsx
147	main_safe	True	0.0	268	0	5.0	5.0	0.0	1	left	1.0	1.0	1.0	0	-0.08	blockFiles/set_37/main_safe/rightBlue\GB_RB_2.xlsx
148	main_safe	True	0.0	268	0	5.0	5.0	1.0	1	right	2.0	1.0	1.0	1	0.08	blockFiles/set_37/main_safe/rightBlue\GB_RB_2.xlsx
149	main_safe	True	0.0	268	0	5.0	5.0	1.0	1	right	2.0	1.0	1.0	1	0.08	blockFiles/set_37/main_safe/rightBlue\GB_RB_2.xlsx
150	main_safe	True	0.0	268	0	5.0	5.0	0.0	1	left	1.0	1.0	1.0	0	-0.08	blockFiles/set_37/main_safe/rightBlue\GB_RB_2.xlsx
151	main_safe	True	0.0	268	0	5.0	5.0	0.0	1	left	1.0	1.0	1.0	0	-0.08	blockFiles/set_37/main_safe/rightBlue\GB_RB_2.xlsx
152	main_safe	True	0.0	268	0	5.0	5.0	0.0	1	left	1.0	1.0	1.0	0	-0.08	blockFiles/set_37/main_safe/rightBlue\GB_RB_2.xlsx
153	main_safe	True	0.0	268	0	5.0	5.0	1.0	1	right	2.0	0.0	1.0	1	0.08	blockFiles/set_37/main_safe/rightBlue\GB_RB_2.xlsx
154	main_safe	True	0.0	268	0	5.0	5.0	0.0	1	left	1.0	0.0	1.0	0	-0.08	blockFiles/set_37/main_safe/rightBlue\GB_RB_2.xlsx
155	patches	True	n/a	268	0	n/a	n/a	0.0	0	left	n/a	n/a	n/a	1	0.0381815231033	blockFiles/set_37/main_PD/GB_runPatches1.xlsx
156	patches	True	n/a	268	0	n/a	n/a	1.0	1	right	n/a	n/a	n/a	1	0.0469360539876	blockFiles/set_37/main_PD/GB_runPatches1.xlsx
157	patches	True	n/a	268	0	n/a	n/a	0.0	1	left	n/a	n/a	n/a	0	-0.0380093072169	blockFiles/set_37/main_PD/GB_runPatches1.xlsx
158	patches	True	n/a	268	0	n/a	n/a	0.0	0	left	n/a	n/a	n/a	1	0.0198000320233	blockFiles/set_37/main_PD/GB_runPatches1.xlsx
159	patches	True	n/a	268	0	n/a	n/a	0.0	0	left	n/a	n/a	n/a	1	0.04888875536619999	blockFiles/set_37/main_PD/GB_runPatches1.xlsx
160	patches	True	n/a	268	0	n/a	n/a	0.0	1	left	n/a	n/a	n/a	0	-0.0296246999688	blockFiles/set_37/main_PD/GB_runPatches1.xlsx
161	patches	True	n/a	268	0	n/a	n/a	1.0	1	right	n/a	n/a	n/a	1	0.065266654212	blockFiles/set_37/main_PD/GB_runPatches1.xlsx
162	patches	True	n/a	268	0	n/a	n/a	0.0	1	left	n/a	n/a	n/a	0	-0.06371206671	blockFiles/set_37/main_PD/GB_runPatches1.xlsx
163	patches	True	n/a	268	0	n/a	n/a	1.0	1	right	n/a	n/a	n/a	1	0.00588504709303	blockFiles/set_37/main_PD/GB_runPatches1.xlsx
164	patches	True	n/a	268	0	n/a	n/a	1.0	1	right	n/a	n/a	n/a	1	0.0715248446167	blockFiles/set_37/main_PD/GB_runPatches1.xlsx
165	patches	True	n/a	268	0	n/a	n/a	1.0	1	right	n/a	n/a	n/a	1	0.05471331812440001	blockFiles/set_37/main_PD/GB_runPatches1.xlsx
166	patches	True	n/a	268	0	n/a	n/a	n/a	0	None	n/a	n/a	n/a	0	-0.022203755397299997	blockFiles/set_37/main_PD/GB_runPatches1.xlsx
167	patches	True	n/a	268	0	n/a	n/a	1.0	1	right	n/a	n/a	n/a	1	0.0227642688155	blockFiles/set_37/main_PD/GB_runPatches1.xlsx
168	patches	True	n/a	268	0	n/a	n/a	1.0	1	right	n/a	n/a	n/a	1	0.05055901236830001	blockFiles/set_37/main_PD/GB_runPatches1.xlsx
169	patches	True	n/a	268	0	n/a	n/a	1.0	1	right	n/a	n/a	n/a	1	0.0301063756272	blockFiles/set_37/main_PD/GB_runPatches1.xlsx
170	patches	True	n/a	268	0	n/a	n/a	0.0	1	left	n/a	n/a	n/a	0	-0.0640437673964	blockFiles/set_37/main_PD/GB_runPatches1.xlsx
171	patches	True	n/a	268	0	n/a	n/a	1.0	1	right	n/a	n/a	n/a	1	0.05801885297519999	blockFiles/set_37/main_PD/GB_runPatches1.xlsx
172	patches	True	n/a	268	0	n/a	n/a	1.0	1	right	n/a	n/a	n/a	1	0.0482454205118	blockFiles/set_37/main_PD/GB_runPatches1.xlsx
173	patches	True	n/a	268	0	n/a	n/a	0.0	1	left	n/a	n/a	n/a	0	-0.027835232671400003	blockFiles/set_37/main_PD/GB_runPatches1.xlsx
174	patches	True	n/a	268	0	n/a	n/a	0.0	1	left	n/a	n/a	n/a	0	-0.0327231750451	blockFiles/set_37/main_PD/GB_runPatches1.xlsx
175	patches	True	n/a	268	0	n/a	n/a	0.0	1	left	n/a	n/a	n/a	0	-0.0777477025986	blockFiles/set_37/main_PD/GB_runPatches1.xlsx
176	patches	True	n/a	268	0	n/a	n/a	0.0	1	left	n/a	n/a	n/a	0	-0.019497846979599998	blockFiles/set_37/main_PD/GB_runPatches1.xlsx
177	patches	True	n/a	268	0	n/a	n/a	0.0	0	left	n/a	n/a	n/a	1	0.00343570856377	blockFiles/set_37/main_PD/GB_runPatches1.xlsx
178	patches	True	n/a	268	0	n/a	n/a	1.0	1	right	n/a	n/a	n/a	1	0.051629571747	blockFiles/set_37/main_PD/GB_runPatches1.xlsx
179	patches	True	n/a	268	0	n/a	n/a	1.0	1	right	n/a	n/a	n/a	1	0.0360242544115	blockFiles/set_37/main_PD/GB_runPatches1.xlsx
180	patches	True	n/a	268	0	n/a	n/a	0.0	1	left	n/a	n/a	n/a	0	-0.00520418064669	blockFiles/set_37/main_PD/GB_runPatches1.xlsx
181	patches	True	n/a	268	0	n/a	n/a	1.0	1	right	n/a	n/a	n/a	1	0.07557319117710001	blockFiles/set_37/main_PD/GB_runPatches1.xlsx
182	patches	True	n/a	268	0	n/a	n/a	1.0	1	right	n/a	n/a	n/a	1	0.00538799863309	blockFiles/set_37/main_PD/GB_runPatches1.xlsx
183	patches	True	n/a	268	0	n/a	n/a	1.0	1	right	n/a	n/a	n/a	1	0.0660665536858	blockFiles/set_37/main_PD/GB_runPatches1.xlsx
184	patches	True	n/a	268	0	n/a	n/a	1.0	0	right	n/a	n/a	n/a	0	-0.010468951799	blockFiles/set_37/main_PD/GB_runPatches1.xlsx
185	patches	True	n/a	268	0	n/a	n/a	0.0	1	left	n/a	n/a	n/a	0	-0.0794701550528	blockFiles/set_37/main_PD/GB_runPatches1.xlsx
186	patches	True	n/a	268	0	n/a	n/a	0.0	1	left	n/a	n/a	n/a	0	-0.07714864864950001	blockFiles/set_37/main_PD/GB_runPatches1.xlsx
187	patches	True	n/a	268	0	n/a	n/a	1.0	1	right	n/a	n/a	n/a	1	0.03874040145430001	blockFiles/set_37/main_PD/GB_runPatches1.xlsx
188	patches	True	n/a	268	0	n/a	n/a	0.0	1	left	n/a	n/a	n/a	0	-0.042299558259500006	blockFiles/set_37/main_PD/GB_runPatches1.xlsx
189	patches	True	n/a	268	0	n/a	n/a	1.0	1	right	n/a	n/a	n/a	1	0.022152574509400003	blockFiles/set_37/main_PD/GB_runPatches1.xlsx
190	patches	True	n/a	268	0	n/a	n/a	0.0	0	left	n/a	n/a	n/a	1	0.0346869844384	blockFiles/set_37/main_PD/GB_runPatches1.xlsx
191	patches	True	n/a	268	0	n/a	n/a	0.0	1	left	n/a	n/a	n/a	0	-0.057857261933399996	blockFiles/set_37/main_PD/GB_runPatches1.xlsx
192	patches	True	n/a	268	0	n/a	n/a	0.0	1	left	n/a	n/a	n/a	0	-0.043118968922600004	blockFiles/set_37/main_PD/GB_runPatches1.xlsx
193	patches	True	n/a	268	0	n/a	n/a	1.0	1	right	n/a	n/a	n/a	1	0.0507083952241	blockFiles/set_37/main_PD/GB_runPatches1.xlsx
194	patches	True	n/a	268	0	n/a	n/a	1.0	0	right	n/a	n/a	n/a	0	-0.031293494012199996	blockFiles/set_37/main_PD/GB_runPatches1.xlsx
195	patches	True	n/a	268	0	n/a	n/a	1.0	0	right	n/a	n/a	n/a	0	-0.0236714404635	blockFiles/set_37/main_PD/GB_runPatches1.xlsx
196	patches	True	n/a	268	0	n/a	n/a	1.0	0	right	n/a	n/a	n/a	0	-0.0389948589541	blockFiles/set_37/main_PD/GB_runPatches1.xlsx
197	patches	True	n/a	268	0	n/a	n/a	1.0	1	right	n/a	n/a	n/a	1	0.065206485372	blockFiles/set_37/main_PD/GB_runPatches1.xlsx
198	patches	True	n/a	268	0	n/a	n/a	0.0	1	left	n/a	n/a	n/a	0	-0.035405984185599995	blockFiles/set_37/main_PD/GB_runPatches1.xlsx
199	patches	True	n/a	268	0	n/a	n/a	0.0	0	left	n/a	n/a	n/a	1	0.012094154935299998	blockFiles/set_37/main_PD/GB_runPatches1.xlsx
200	patches	True	n/a	268	0	n/a	n/a	0.0	1	left	n/a	n/a	n/a	0	-0.057076009456099995	blockFiles/set_37/main_PD/GB_runPatches1.xlsx
201	patches	True	n/a	268	0	n/a	n/a	0.0	1	left	n/a	n/a	n/a	0	-0.0330756814778	blockFiles/set_37/main_PD/GB_runPatches1.xlsx
202	patches	True	n/a	268	0	n/a	n/a	0.0	1	left	n/a	n/a	n/a	0	-0.0457070128247	blockFiles/set_37/main_PD/GB_runPatches1.xlsx
203	patches	True	n/a	268	0	n/a	n/a	1.0	1	right	n/a	n/a	n/a	1	0.0652714274824	blockFiles/set_37/main_PD/GB_runPatches1.xlsx
204	patches	True	n/a	268	0	n/a	n/a	0.0	1	left	n/a	n/a	n/a	0	-0.0415337926149	blockFiles/set_37/main_PD/GB_runPatches1.xlsx
205	patches	True	n/a	268	0	n/a	n/a	1.0	0	right	n/a	n/a	n/a	0	-0.0185989278741	blockFiles/set_37/main_PD/GB_runPatches1.xlsx
206	patches	True	n/a	268	0	n/a	n/a	0.0	1	left	n/a	n/a	n/a	0	-0.0517932303622	blockFiles/set_37/main_PD/GB_runPatches1.xlsx
207	patches	True	n/a	268	0	n/a	n/a	1.0	1	right	n/a	n/a	n/a	1	0.013625780008700001	blockFiles/set_37/main_PD/GB_runPatches1.xlsx
208	patches	True	n/a	268	0	n/a	n/a	1.0	0	right	n/a	n/a	n/a	0	-0.0455336179957	blockFiles/set_37/main_PD/GB_runPatches1.xlsx
209	patches	True	n/a	268	0	n/a	n/a	1.0	1	right	n/a	n/a	n/a	1	0.0152498793043	blockFiles/set_37/main_PD/GB_runPatches1.xlsx
210	patches	True	n/a	268	0	n/a	n/a	0.0	1	left	n/a	n/a	n/a	0	-0.07242520796139999	blockFiles/set_37/main_PD/GB_runPatches1.xlsx
211	patches	True	n/a	268	0	n/a	n/a	1.0	1	right	n/a	n/a	n/a	1	0.0692824893445	blockFiles/set_37/main_PD/GB_runPatches1.xlsx
212	patches	True	n/a	268	0	n/a	n/a	1.0	0	right	n/a	n/a	n/a	0	-0.0343583619222	blockFiles/set_37/main_PD/GB_runPatches1.xlsx
213	patches	True	n/a	268	0	n/a	n/a	1.0	1	right	n/a	n/a	n/a	1	0.00387515151873	blockFiles/set_37/main_PD/GB_runPatches1.xlsx
214	patches	True	n/a	268	0	n/a	n/a	0.0	1	left	n/a	n/a	n/a	0	-0.0207358336635	blockFiles/set_37/main_PD/GB_runPatches1.xlsx
215	patches	True	n/a	268	0	n/a	n/a	1.0	1	right	n/a	n/a	n/a	1	0.018095082771000002	blockFiles/set_37/main_PD/GB_runPatches1.xlsx
216	patches	True	n/a	268	0	n/a	n/a	0.0	1	left	n/a	n/a	n/a	0	-0.0741656472348	blockFiles/set_37/main_PD/GB_runPatches1.xlsx
217	patches	True	n/a	268	0	n/a	n/a	1.0	1	right	n/a	n/a	n/a	1	0.0413479169086	blockFiles/set_37/main_PD/GB_runPatches1.xlsx
218	patches	True	n/a	268	0	n/a	n/a	0.0	1	left	n/a	n/a	n/a	0	-0.0521828819811	blockFiles/set_37/main_PD/GB_runPatches1.xlsx
219	patches	True	n/a	268	0	n/a	n/a	1.0	1	right	n/a	n/a	n/a	1	0.00816616507247	blockFiles/set_37/main_PD/GB_runPatches1.xlsx
220	patches	True	n/a	268	0	n/a	n/a	1.0	0	right	n/a	n/a	n/a	0	-0.0525226463191	blockFiles/set_37/main_PD/GB_runPatches1.xlsx
221	patches	True	n/a	268	0	n/a	n/a	0.0	1	left	n/a	n/a	n/a	0	-0.00585111927241	blockFiles/set_37/main_PD/GB_runPatches1.xlsx
222	patches	True	n/a	268	0	n/a	n/a	1.0	1	right	n/a	n/a	n/a	1	0.0479518064111	blockFiles/set_37/main_PD/GB_runPatches1.xlsx
223	patches	True	n/a	268	0	n/a	n/a	1.0	1	right	n/a	n/a	n/a	1	0.07347277946769999	blockFiles/set_37/main_PD/GB_runPatches1.xlsx
224	patches	True	n/a	268	0	n/a	n/a	1.0	1	right	n/a	n/a	n/a	1	0.06486659483980001	blockFiles/set_37/main_PD/GB_runPatches1.xlsx
225	patches	True	n/a	268	0	n/a	n/a	1.0	0	right	n/a	n/a	n/a	0	-0.0023467505537	blockFiles/set_37/main_PD/GB_runPatches1.xlsx
226	patches	True	n/a	268	0	n/a	n/a	1.0	1	right	n/a	n/a	n/a	1	0.052865037173	blockFiles/set_37/main_PD/GB_runPatches1.xlsx
227	patches	True	n/a	268	0	n/a	n/a	1.0	0	right	n/a	n/a	n/a	0	-0.041969301682	blockFiles/set_37/main_PD/GB_runPatches1.xlsx
228	patches	True	n/a	268	0	n/a	n/a	n/a	0	None	n/a	n/a	n/a	0	-0.0282448803633	blockFiles/set_37/main_PD/GB_runPatches1.xlsx
229	patches	True	n/a	268	0	n/a	n/a	0.0	0	left	n/a	n/a	n/a	1	0.0583456177451	blockFiles/set_37/main_PD/GB_runPatches1.xlsx
230	patches	True	n/a	268	0	n/a	n/a	0.0	1	left	n/a	n/a	n/a	0	-0.0119591490179	blockFiles/set_37/main_PD/GB_runPatches1.xlsx
231	patches	True	n/a	268	0	n/a	n/a	0.0	1	left	n/a	n/a	n/a	0	-0.0530238022096	blockFiles/set_37/main_PD/GB_runPatches1.xlsx
232	patches	True	n/a	268	0	n/a	n/a	1.0	1	right	n/a	n/a	n/a	1	0.0525226426683	blockFiles/set_37/main_PD/GB_runPatches1.xlsx
233	patches	True	n/a	268	0	n/a	n/a	0.0	1	left	n/a	n/a	n/a	0	-0.0610360013321	blockFiles/set_37/main_PD/GB_runPatches1.xlsx
234	patches	True	n/a	268	0	n/a	n/a	1.0	1	right	n/a	n/a	n/a	1	0.0645267645456	blockFiles/set_37/main_PD/GB_runPatches1.xlsx
235	patches	True	n/a	268	0	n/a	n/a	1.0	1	right	n/a	n/a	n/a	1	0.0186860893108	blockFiles/set_37/main_PD/GB_runPatches1.xlsx
236	patches	True	n/a	268	0	n/a	n/a	0.0	1	left	n/a	n/a	n/a	0	-0.0461580239795	blockFiles/set_37/main_PD/GB_runPatches1.xlsx
237	patches	True	n/a	268	0	n/a	n/a	0.0	0	left	n/a	n/a	n/a	1	0.0203501839563	blockFiles/set_37/main_PD/GB_runPatches1.xlsx
238	patches	True	n/a	268	0	n/a	n/a	0.0	1	left	n/a	n/a	n/a	0	-0.0289053371176	blockFiles/set_37/main_PD/GB_runPatches1.xlsx
239	patches	True	n/a	268	0	n/a	n/a	0.0	1	left	n/a	n/a	n/a	0	-0.0410620682128	blockFiles/set_37/main_PD/GB_runPatches1.xlsx
240	patches	True	n/a	268	0	n/a	n/a	0.0	0	left	n/a	n/a	n/a	1	0.039809462539900003	blockFiles/set_37/main_PD/GB_runPatches1.xlsx
241	patches	True	n/a	268	0	n/a	n/a	0.0	1	left	n/a	n/a	n/a	0	-0.0676790230535	blockFiles/set_37/main_PD/GB_runPatches1.xlsx
242	patches	True	n/a	268	0	n/a	n/a	1.0	1	right	n/a	n/a	n/a	1	0.055645388662800006	blockFiles/set_37/main_PD/GB_runPatches1.xlsx
243	patches	True	n/a	268	0	n/a	n/a	0.0	1	left	n/a	n/a	n/a	0	-0.010949799791000001	blockFiles/set_37/main_PD/GB_runPatches1.xlsx
244	patches	True	n/a	268	0	n/a	n/a	0.0	0	left	n/a	n/a	n/a	1	0.0527637053467	blockFiles/set_37/main_PD/GB_runPatches1.xlsx
245	patches	True	n/a	268	0	n/a	n/a	0.0	1	left	n/a	n/a	n/a	0	-0.0773442029767	blockFiles/set_37/main_PD/GB_runPatches1.xlsx
246	patches	True	n/a	268	0	n/a	n/a	1.0	1	right	n/a	n/a	n/a	1	0.010745653510100001	blockFiles/set_37/main_PD/GB_runPatches1.xlsx
247	patches	True	n/a	268	0	n/a	n/a	1.0	1	right	n/a	n/a	n/a	1	0.060289952196199995	blockFiles/set_37/main_PD/GB_runPatches1.xlsx
248	patches	True	n/a	268	0	n/a	n/a	0.0	0	left	n/a	n/a	n/a	1	0.00849386835471	blockFiles/set_37/main_PD/GB_runPatches1.xlsx
249	patches	True	n/a	268	0	n/a	n/a	0.0	0	left	n/a	n/a	n/a	1	0.0171808448248	blockFiles/set_37/main_PD/GB_runPatches1.xlsx
250	patches	True	n/a	268	0	n/a	n/a	1.0	1	right	n/a	n/a	n/a	1	0.0381031938456	blockFiles/set_37/main_PD/GB_runPatches1.xlsx
251	patches	True	n/a	268	0	n/a	n/a	0.0	1	left	n/a	n/a	n/a	0	-0.06788004569709999	blockFiles/set_37/main_PD/GB_runPatches1.xlsx
252	patches	True	n/a	268	0	n/a	n/a	0.0	1	left	n/a	n/a	n/a	0	-0.0446287620254	blockFiles/set_37/main_PD/GB_runPatches1.xlsx
253	patches	True	n/a	268	0	n/a	n/a	0.0	1	left	n/a	n/a	n/a	0	-0.0472772802785	blockFiles/set_37/main_PD/GB_runPatches1.xlsx
254	patches	True	n/a	268	0	n/a	n/a	0.0	1	left	n/a	n/a	n/a	0	-0.000345323570073	blockFiles/set_37/main_PD/GB_runPatches1.xlsx
255	main_unc	True	0.0	268	0	0.0	0.0	0.0	1	left	1.0	1.0	1.0	0	-0.0254746387713	blockFiles/set_37/main_unc/rightBlue\GB_RB_5.xlsx
256	main_unc	True	0.0	268	0	0.0	0.0	0.0	1	left	1.0	1.0	1.0	0	-0.0478398043476	blockFiles/set_37/main_unc/rightBlue\GB_RB_5.xlsx
257	main_unc	True	0.0	268	0	0.0	0.0	1.0	1	right	2.0	1.0	1.0	1	0.0539732385799	blockFiles/set_37/main_unc/rightBlue\GB_RB_5.xlsx
258	main_unc	True	0.0	268	0	0.0	0.0	0.0	1	left	1.0	1.0	1.0	0	-0.024816238023299998	blockFiles/set_37/main_unc/rightBlue\GB_RB_5.xlsx
259	main_unc	True	0.0	268	0	0.0	0.0	1.0	1	right	2.0	1.0	1.0	1	0.025112444814299997	blockFiles/set_37/main_unc/rightBlue\GB_RB_5.xlsx
260	main_unc	True	0.0	268	0	0.0	0.0	0.0	1	left	1.0	1.0	1.0	0	-0.0174293981306	blockFiles/set_37/main_unc/rightBlue\GB_RB_5.xlsx
261	main_unc	True	0.0	268	0	0.0	0.0	1.0	1	right	2.0	1.0	1.0	1	0.050117701329300005	blockFiles/set_37/main_unc/rightBlue\GB_RB_5.xlsx
262	main_unc	True	0.0	268	0	0.0	0.0	1.0	1	right	2.0	1.0	1.0	1	0.0786906359345	blockFiles/set_37/main_unc/rightBlue\GB_RB_5.xlsx
263	main_unc	True	0.0	268	0	0.0	0.0	0.0	1	left	1.0	0.0	1.0	0	-0.00635026147589	blockFiles/set_37/main_unc/rightBlue\GB_RB_5.xlsx
264	main_unc	True	0.0	268	0	0.0	0.0	0.0	1	left	1.0	1.0	1.0	0	-0.06814841108400001	blockFiles/set_37/main_unc/rightBlue\GB_RB_5.xlsx
265	main_unc	True	0.0	268	0	0.0	0.0	1.0	1	right	2.0	1.0	1.0	1	0.053657372500700004	blockFiles/set_37/main_unc/rightBlue\GB_RB_5.xlsx
266	main_unc	True	0.0	268	0	0.0	0.0	1.0	0	right	2.0	0.0	0.0	0	-0.0236125942506	blockFiles/set_37/main_unc/rightBlue\GB_RB_5.xlsx
267	main_unc	True	0.0	268	0	0.0	0.0	1.0	1	right	2.0	0.0	1.0	1	0.043158768843900006	blockFiles/set_37/main_unc/rightBlue\GB_RB_5.xlsx
268	main_unc	True	0.0	268	0	0.0	0.0	0.0	1	left	1.0	1.0	1.0	0	-0.0683345460147	blockFiles/set_37/main_unc/rightBlue\GB_RB_5.xlsx
269	main_unc	True	0.0	268	0	0.0	0.0	0.0	1	left	1.0	1.0	1.0	0	-0.00764940576628	blockFiles/set_37/main_unc/rightBlue\GB_RB_5.xlsx
270	main_unc	True	0.0	268	0	0.0	0.0	1.0	1	right	2.0	1.0	1.0	1	0.0483200966194	blockFiles/set_37/main_unc/rightBlue\GB_RB_5.xlsx
271	main_unc	True	0.0	268	0	0.0	0.0	0.0	1	left	1.0	1.0	1.0	0	-0.0463234058395	blockFiles/set_37/main_unc/rightBlue\GB_RB_5.xlsx
272	main_unc	True	0.0	268	0	0.0	0.0	1.0	1	right	2.0	1.0	1.0	1	0.029255669862	blockFiles/set_37/main_unc/rightBlue\GB_RB_5.xlsx
273	main_unc	True	0.0	268	0	0.0	0.0	1.0	1	right	2.0	1.0	1.0	1	0.0628389267251	blockFiles/set_37/main_unc/rightBlue\GB_RB_5.xlsx
274	main_unc	True	0.0	268	0	0.0	0.0	0.0	1	left	1.0	1.0	1.0	0	-0.0786952199414	blockFiles/set_37/main_unc/rightBlue\GB_RB_5.xlsx
275	main_unc	True	1.0	268	0	0.0	0.0	n/a	0	None	n/a	0.0	n/a	0	-0.0053300765343000005	blockFiles/set_37/main_unc/rightBlue\GB_RB_5.xlsx
276	main_unc	True	0.0	268	0	0.0	0.0	0.0	1	left	1.0	1.0	1.0	0	-0.0111298380606	blockFiles/set_37/main_unc/rightBlue\GB_RB_5.xlsx
277	main_unc	True	0.0	268	0	0.0	0.0	1.0	1	right	2.0	0.0	1.0	1	0.0646156085841	blockFiles/set_37/main_unc/rightBlue\GB_RB_5.xlsx
278	main_unc	True	0.0	268	0	0.0	0.0	1.0	1	right	2.0	1.0	1.0	1	0.0448983909935	blockFiles/set_37/main_unc/rightBlue\GB_RB_5.xlsx
279	main_unc	True	0.0	268	0	0.0	0.0	1.0	1	right	2.0	1.0	1.0	1	0.066996328067	blockFiles/set_37/main_unc/rightBlue\GB_RB_5.xlsx
280	main_unc	True	0.0	268	0	0.0	0.0	0.0	1	left	1.0	1.0	1.0	0	-0.0053300765343000005	blockFiles/set_37/main_unc/rightBlue\GB_RB_5.xlsx
281	main_unc	True	0.0	268	0	1.0	1.0	0.0	1	left	2.0	0.0	1.0	0	-0.06038973355669999	blockFiles/set_37/main_unc/leftBlue\GB_LB_5.xlsx
282	main_unc	True	0.0	268	0	1.0	1.0	0.0	1	left	1.0	0.0	0.0	0	-0.0573100028746	blockFiles/set_37/main_unc/leftBlue\GB_LB_5.xlsx
283	main_unc	True	0.0	268	0	1.0	1.0	0.0	1	left	2.0	0.0	1.0	0	-0.00818082625046	blockFiles/set_37/main_unc/leftBlue\GB_LB_5.xlsx
284	main_unc	True	0.0	268	0	1.0	1.0	0.0	1	left	1.0	0.0	0.0	0	-0.06479678709060001	blockFiles/set_37/main_unc/leftBlue\GB_LB_5.xlsx
285	main_unc	True	0.0	268	0	1.0	1.0	1.0	1	right	2.0	0.0	0.0	1	0.0658782452717	blockFiles/set_37/main_unc/leftBlue\GB_LB_5.xlsx
286	main_unc	True	0.0	268	0	1.0	1.0	1.0	1	right	2.0	1.0	0.0	1	0.0023760514147600003	blockFiles/set_37/main_unc/leftBlue\GB_LB_5.xlsx
287	main_unc	True	0.0	268	0	1.0	1.0	0.0	1	left	1.0	0.0	0.0	0	-0.0428261956573	blockFiles/set_37/main_unc/leftBlue\GB_LB_5.xlsx
288	main_unc	True	0.0	268	0	1.0	1.0	0.0	1	left	1.0	0.0	0.0	0	-0.0163649721444	blockFiles/set_37/main_unc/leftBlue\GB_LB_5.xlsx
289	main_unc	True	0.0	268	0	1.0	1.0	0.0	1	left	2.0	1.0	1.0	0	-0.0546748430282	blockFiles/set_37/main_unc/leftBlue\GB_LB_5.xlsx
290	main_unc	True	0.0	268	0	1.0	1.0	0.0	1	left	2.0	1.0	1.0	0	-0.0368638543412	blockFiles/set_37/main_unc/leftBlue\GB_LB_5.xlsx
291	main_unc	True	0.0	268	0	1.0	1.0	1.0	1	right	1.0	1.0	1.0	1	0.0525809111632	blockFiles/set_37/main_unc/leftBlue\GB_LB_5.xlsx
292	main_unc	True	0.0	268	0	1.0	1.0	0.0	1	left	2.0	1.0	1.0	0	-0.00229289811105	blockFiles/set_37/main_unc/leftBlue\GB_LB_5.xlsx
293	main_unc	True	0.0	268	0	1.0	1.0	1.0	1	right	1.0	1.0	1.0	1	0.0345995145664	blockFiles/set_37/main_unc/leftBlue\GB_LB_5.xlsx
294	main_unc	True	0.0	268	0	1.0	1.0	0.0	1	left	2.0	1.0	1.0	0	-0.071313850414	blockFiles/set_37/main_unc/leftBlue\GB_LB_5.xlsx
295	main_unc	True	0.0	268	0	1.0	1.0	0.0	1	left	2.0	1.0	1.0	0	-0.060167611111000004	blockFiles/set_37/main_unc/leftBlue\GB_LB_5.xlsx
296	main_unc	True	0.0	268	0	1.0	1.0	0.0	0	left	2.0	0.0	0.0	1	0.00431869916618	blockFiles/set_37/main_unc/leftBlue\GB_LB_5.xlsx
297	main_unc	True	0.0	268	0	1.0	1.0	1.0	1	right	1.0	1.0	1.0	1	0.0697873967327	blockFiles/set_37/main_unc/leftBlue\GB_LB_5.xlsx
298	main_unc	True	0.0	268	0	1.0	1.0	0.0	0	left	2.0	0.0	0.0	1	0.0257273102365	blockFiles/set_37/main_unc/leftBlue\GB_LB_5.xlsx
299	main_unc	True	0.0	268	0	1.0	1.0	0.0	1	left	2.0	0.0	1.0	0	-0.04506262378769999	blockFiles/set_37/main_unc/leftBlue\GB_LB_5.xlsx
300	main_unc	True	0.0	268	0	1.0	1.0	1.0	1	right	1.0	1.0	1.0	1	0.06081778464840001	blockFiles/set_37/main_unc/leftBlue\GB_LB_5.xlsx
301	main_unc	True	0.0	268	0	1.0	1.0	1.0	1	right	1.0	1.0	1.0	1	0.0113823320344	blockFiles/set_37/main_unc/leftBlue\GB_LB_5.xlsx
302	main_unc	True	0.0	268	0	1.0	1.0	0.0	1	left	2.0	0.0	1.0	0	-0.05990940973159999	blockFiles/set_37/main_unc/leftBlue\GB_LB_5.xlsx
303	main_unc	True	0.0	268	0	1.0	1.0	0.0	0	left	2.0	0.0	0.0	1	0.016858239118	blockFiles/set_37/main_unc/leftBlue\GB_LB_5.xlsx
304	main_unc	True	0.0	268	0	1.0	1.0	0.0	1	left	2.0	1.0	1.0	0	-0.0321555123478	blockFiles/set_37/main_unc/leftBlue\GB_LB_5.xlsx
305	main_unc	True	0.0	268	0	1.0	1.0	0.0	0	left	2.0	0.0	0.0	1	0.0158017454855	blockFiles/set_37/main_unc/leftBlue\GB_LB_5.xlsx
306	main_unc	True	0.0	268	0	2.0	2.0	0.0	1	left	2.0	1.0	1.0	0	-0.0568302022666	blockFiles/set_37/main_unc/leftBlue\GB_LB_4.xlsx
307	main_unc	True	1.0	268	0	2.0	2.0	n/a	0	None	n/a	0.0	n/a	1	0.0106958150864	blockFiles/set_37/main_unc/leftBlue\GB_LB_4.xlsx
308	main_unc	True	0.0	268	0	2.0	2.0	0.0	0	left	2.0	0.0	0.0	1	0.0346782442182	blockFiles/set_37/main_unc/leftBlue\GB_LB_4.xlsx
309	main_unc	True	0.0	268	0	2.0	2.0	0.0	1	left	2.0	1.0	1.0	0	-0.018327079433900002	blockFiles/set_37/main_unc/leftBlue\GB_LB_4.xlsx
310	main_unc	True	0.0	268	0	2.0	2.0	0.0	1	left	2.0	0.0	1.0	0	-0.0584030918032	blockFiles/set_37/main_unc/leftBlue\GB_LB_4.xlsx
311	main_unc	True	0.0	268	0	2.0	2.0	0.0	1	left	2.0	1.0	1.0	0	-0.028412317428700002	blockFiles/set_37/main_unc/leftBlue\GB_LB_4.xlsx
312	main_unc	True	0.0	268	0	2.0	2.0	1.0	1	right	1.0	1.0	1.0	1	0.02782728903	blockFiles/set_37/main_unc/leftBlue\GB_LB_4.xlsx
313	main_unc	True	0.0	268	0	2.0	2.0	1.0	1	right	1.0	1.0	1.0	1	0.0757340551727	blockFiles/set_37/main_unc/leftBlue\GB_LB_4.xlsx
314	main_unc	True	0.0	268	0	2.0	2.0	1.0	1	right	1.0	1.0	1.0	1	0.0510843472183	blockFiles/set_37/main_unc/leftBlue\GB_LB_4.xlsx
315	main_unc	True	0.0	268	0	2.0	2.0	0.0	0	left	2.0	1.0	0.0	1	0.031031070016299997	blockFiles/set_37/main_unc/leftBlue\GB_LB_4.xlsx
316	main_unc	True	0.0	268	0	2.0	2.0	0.0	0	left	2.0	0.0	0.0	1	0.007152122277770001	blockFiles/set_37/main_unc/leftBlue\GB_LB_4.xlsx
317	main_unc	True	0.0	268	0	2.0	2.0	0.0	1	left	2.0	1.0	1.0	0	-0.059993721637900004	blockFiles/set_37/main_unc/leftBlue\GB_LB_4.xlsx
318	main_unc	True	0.0	268	0	2.0	2.0	1.0	1	right	1.0	1.0	1.0	1	0.0577037595585	blockFiles/set_37/main_unc/leftBlue\GB_LB_4.xlsx
319	main_unc	True	0.0	268	0	2.0	2.0	0.0	1	left	2.0	1.0	1.0	0	-0.0351623408869	blockFiles/set_37/main_unc/leftBlue\GB_LB_4.xlsx
320	main_unc	True	0.0	268	0	2.0	2.0	0.0	1	left	2.0	1.0	1.0	0	-0.0207791738398	blockFiles/set_37/main_unc/leftBlue\GB_LB_4.xlsx
321	main_unc	True	0.0	268	0	2.0	2.0	0.0	1	left	2.0	1.0	1.0	0	-0.0765418585949	blockFiles/set_37/main_unc/leftBlue\GB_LB_4.xlsx
322	main_unc	True	0.0	268	0	2.0	2.0	1.0	1	right	1.0	1.0	1.0	1	0.0196677898988	blockFiles/set_37/main_unc/leftBlue\GB_LB_4.xlsx
323	main_unc	True	0.0	268	0	2.0	2.0	0.0	1	left	2.0	1.0	1.0	0	-0.062137650027900004	blockFiles/set_37/main_unc/leftBlue\GB_LB_4.xlsx
324	main_unc	True	0.0	268	0	2.0	2.0	0.0	1	left	2.0	0.0	1.0	0	-0.0327331846021	blockFiles/set_37/main_unc/leftBlue\GB_LB_4.xlsx
325	main_unc	True	0.0	268	0	2.0	2.0	1.0	1	right	1.0	1.0	1.0	1	0.000894056148827	blockFiles/set_37/main_unc/leftBlue\GB_LB_4.xlsx
326	main_unc	True	0.0	268	0	2.0	2.0	0.0	1	left	2.0	1.0	1.0	0	-0.0793713478372	blockFiles/set_37/main_unc/leftBlue\GB_LB_4.xlsx
327	main_unc	True	0.0	268	0	2.0	2.0	1.0	1	right	1.0	1.0	1.0	1	0.0790910854749	blockFiles/set_37/main_unc/leftBlue\GB_LB_4.xlsx
328	main_unc	True	0.0	268	0	2.0	2.0	0.0	1	left	2.0	1.0	1.0	0	-0.0172165415622	blockFiles/set_37/main_unc/leftBlue\GB_LB_4.xlsx
329	main_unc	True	0.0	268	0	2.0	2.0	1.0	1	right	1.0	1.0	1.0	1	0.0334793585725	blockFiles/set_37/main_unc/leftBlue\GB_LB_4.xlsx
330	main_unc	True	1.0	268	0	2.0	2.0	n/a	0	None	n/a	0.0	n/a	1	0.066608525347	blockFiles/set_37/main_unc/leftBlue\GB_LB_4.xlsx
331	main_unc	True	0.0	268	0	2.0	2.0	0.0	0	left	2.0	1.0	0.0	1	0.0106958150864	blockFiles/set_37/main_unc/leftBlue\GB_LB_4.xlsx
332	main_unc	True	0.0	268	0	2.0	2.0	1.0	1	right	1.0	1.0	1.0	1	0.066608525347	blockFiles/set_37/main_unc/leftBlue\GB_LB_4.xlsx
333	main_unc	True	0.0	268	0	3.0	3.0	1.0	1	right	1.0	0.0	0.0	1	0.0405267521553	blockFiles/set_37/main_unc/rightBlue\GB_RB_2.xlsx
334	main_unc	True	0.0	268	0	3.0	3.0	1.0	1	right	1.0	1.0	0.0	1	0.00245238920674	blockFiles/set_37/main_unc/rightBlue\GB_RB_2.xlsx
335	main_unc	True	0.0	268	0	3.0	3.0	1.0	1	right	1.0	0.0	0.0	1	0.027139024604099997	blockFiles/set_37/main_unc/rightBlue\GB_RB_2.xlsx
336	main_unc	True	0.0	268	0	3.0	3.0	1.0	1	right	1.0	0.0	0.0	1	0.0599369930662	blockFiles/set_37/main_unc/rightBlue\GB_RB_2.xlsx
337	main_unc	True	1.0	268	0	3.0	3.0	n/a	0	None	n/a	0.0	n/a	1	0.034022508747900006	blockFiles/set_37/main_unc/rightBlue\GB_RB_2.xlsx
338	main_unc	True	0.0	268	0	3.0	3.0	1.0	1	right	1.0	0.0	0.0	1	0.06404085412619999	blockFiles/set_37/main_unc/rightBlue\GB_RB_2.xlsx
339	main_unc	True	0.0	268	0	3.0	3.0	0.0	1	left	1.0	0.0	1.0	0	-0.0221437669918	blockFiles/set_37/main_unc/rightBlue\GB_RB_2.xlsx
340	main_unc	True	0.0	268	0	3.0	3.0	1.0	1	right	2.0	0.0	1.0	1	0.0497347018495	blockFiles/set_37/main_unc/rightBlue\GB_RB_2.xlsx
341	main_unc	True	0.0	268	0	3.0	3.0	0.0	1	left	1.0	1.0	1.0	0	-0.0302518998086	blockFiles/set_37/main_unc/rightBlue\GB_RB_2.xlsx
342	main_unc	True	0.0	268	0	3.0	3.0	0.0	1	left	1.0	1.0	1.0	0	-0.018915974125299998	blockFiles/set_37/main_unc/rightBlue\GB_RB_2.xlsx
343	main_unc	True	0.0	268	0	3.0	3.0	1.0	1	right	2.0	1.0	1.0	1	0.025641377475099997	blockFiles/set_37/main_unc/rightBlue\GB_RB_2.xlsx
344	main_unc	True	0.0	268	0	3.0	3.0	0.0	1	left	1.0	1.0	1.0	0	-0.014226460568600002	blockFiles/set_37/main_unc/rightBlue\GB_RB_2.xlsx
345	main_unc	True	0.0	268	0	3.0	3.0	0.0	1	left	1.0	1.0	1.0	0	-0.0491539506055	blockFiles/set_37/main_unc/rightBlue\GB_RB_2.xlsx
346	main_unc	True	1.0	268	0	3.0	3.0	0.0	1	left	n/a	0.0	n/a	0	-0.0741008437239	blockFiles/set_37/main_unc/rightBlue\GB_RB_2.xlsx
347	main_unc	True	0.0	268	0	3.0	3.0	0.0	1	left	1.0	1.0	1.0	0	-0.028525439277300002	blockFiles/set_37/main_unc/rightBlue\GB_RB_2.xlsx
348	main_unc	True	0.0	268	0	3.0	3.0	0.0	1	left	1.0	1.0	1.0	0	-0.0190431079827	blockFiles/set_37/main_unc/rightBlue\GB_RB_2.xlsx
349	main_unc	True	0.0	268	0	3.0	3.0	1.0	1	right	2.0	1.0	1.0	1	0.0691437224485	blockFiles/set_37/main_unc/rightBlue\GB_RB_2.xlsx
350	main_unc	True	0.0	268	0	3.0	3.0	1.0	1	right	2.0	1.0	1.0	1	0.008978871293370001	blockFiles/set_37/main_unc/rightBlue\GB_RB_2.xlsx
351	main_unc	True	0.0	268	0	3.0	3.0	0.0	1	left	1.0	1.0	1.0	0	-0.0627029922977	blockFiles/set_37/main_unc/rightBlue\GB_RB_2.xlsx
352	main_unc	True	0.0	268	0	3.0	3.0	1.0	1	right	2.0	1.0	1.0	1	0.015671282541	blockFiles/set_37/main_unc/rightBlue\GB_RB_2.xlsx
353	main_unc	True	0.0	268	0	3.0	3.0	0.0	1	left	1.0	1.0	1.0	0	-0.05577950879930001	blockFiles/set_37/main_unc/rightBlue\GB_RB_2.xlsx
354	main_unc	True	0.0	268	0	3.0	3.0	0.0	1	left	1.0	0.0	1.0	0	-0.061576957106599994	blockFiles/set_37/main_unc/rightBlue\GB_RB_2.xlsx
355	main_unc	True	0.0	268	0	3.0	3.0	0.0	1	left	1.0	1.0	1.0	0	-0.0664520643651	blockFiles/set_37/main_unc/rightBlue\GB_RB_2.xlsx
356	main_unc	True	0.0	268	0	3.0	3.0	0.0	0	left	1.0	0.0	0.0	1	0.00753218332306	blockFiles/set_37/main_unc/rightBlue\GB_RB_2.xlsx
357	main_unc	True	0.0	268	0	3.0	3.0	1.0	1	right	2.0	0.0	1.0	1	0.032844557724900005	blockFiles/set_37/main_unc/rightBlue\GB_RB_2.xlsx
358	main_unc	True	0.0	268	0	3.0	3.0	1.0	1	right	2.0	0.0	1.0	1	0.034022508747900006	blockFiles/set_37/main_unc/rightBlue\GB_RB_2.xlsx
359	main_unc	True	0.0	268	0	3.0	3.0	0.0	1	left	1.0	1.0	1.0	0	-0.0741008437239	blockFiles/set_37/main_unc/rightBlue\GB_RB_2.xlsx
360	main_unc	True	0.0	268	0	4.0	4.0	0.0	0	left	1.0	1.0	1.0	1	0.053146876748699994	blockFiles/set_37/main_unc/leftBlue\GB_LB_1.xlsx
361	main_unc	True	0.0	268	0	4.0	4.0	0.0	1	left	1.0	0.0	0.0	0	-0.0702646064572	blockFiles/set_37/main_unc/leftBlue\GB_LB_1.xlsx
362	main_unc	True	1.0	268	0	4.0	4.0	1.0	1	right	n/a	0.0	n/a	1	0.00532386662439	blockFiles/set_37/main_unc/leftBlue\GB_LB_1.xlsx
363	main_unc	True	0.0	268	0	4.0	4.0	0.0	1	left	1.0	0.0	0.0	0	-0.032744719293	blockFiles/set_37/main_unc/leftBlue\GB_LB_1.xlsx
364	main_unc	True	0.0	268	0	4.0	4.0	1.0	1	right	1.0	0.0	1.0	1	0.06531995700669999	blockFiles/set_37/main_unc/leftBlue\GB_LB_1.xlsx
365	main_unc	True	0.0	268	0	4.0	4.0	1.0	1	right	1.0	0.0	1.0	1	0.05019493497909999	blockFiles/set_37/main_unc/leftBlue\GB_LB_1.xlsx
366	main_unc	True	0.0	268	0	4.0	4.0	0.0	1	left	1.0	0.0	0.0	0	-0.0784607588686	blockFiles/set_37/main_unc/leftBlue\GB_LB_1.xlsx
367	main_unc	True	0.0	268	0	4.0	4.0	0.0	0	left	2.0	0.0	0.0	1	0.0028539325669399997	blockFiles/set_37/main_unc/leftBlue\GB_LB_1.xlsx
368	main_unc	True	0.0	268	0	4.0	4.0	1.0	1	right	2.0	1.0	0.0	1	0.0609793777391	blockFiles/set_37/main_unc/leftBlue\GB_LB_1.xlsx
369	main_unc	True	0.0	268	0	4.0	4.0	1.0	1	right	2.0	0.0	0.0	1	0.047796474564800004	blockFiles/set_37/main_unc/leftBlue\GB_LB_1.xlsx
370	main_unc	True	0.0	268	0	4.0	4.0	0.0	0	left	2.0	0.0	0.0	1	0.00891322851181	blockFiles/set_37/main_unc/leftBlue\GB_LB_1.xlsx
371	main_unc	True	0.0	268	0	4.0	4.0	0.0	1	left	2.0	1.0	1.0	0	-0.0250095696375	blockFiles/set_37/main_unc/leftBlue\GB_LB_1.xlsx
372	main_unc	True	0.0	268	0	4.0	4.0	0.0	1	left	2.0	0.0	1.0	0	-0.0524491198547	blockFiles/set_37/main_unc/leftBlue\GB_LB_1.xlsx
373	main_unc	True	0.0	268	0	4.0	4.0	0.0	0	left	2.0	0.0	0.0	1	0.0734283498302	blockFiles/set_37/main_unc/leftBlue\GB_LB_1.xlsx
374	main_unc	True	0.0	268	0	4.0	4.0	0.0	1	left	1.0	0.0	0.0	0	-0.0318418653682	blockFiles/set_37/main_unc/leftBlue\GB_LB_1.xlsx
375	main_unc	True	0.0	268	0	4.0	4.0	0.0	1	left	2.0	1.0	1.0	0	-0.0719388709962	blockFiles/set_37/main_unc/leftBlue\GB_LB_1.xlsx
376	main_unc	True	0.0	268	0	4.0	4.0	0.0	1	left	1.0	0.0	0.0	0	-0.014220294002399998	blockFiles/set_37/main_unc/leftBlue\GB_LB_1.xlsx
377	main_unc	True	0.0	268	0	4.0	4.0	1.0	0	right	1.0	0.0	0.0	0	-0.0113482278772	blockFiles/set_37/main_unc/leftBlue\GB_LB_1.xlsx
378	main_unc	True	0.0	268	0	4.0	4.0	1.0	1	right	2.0	0.0	0.0	1	0.0683553078584	blockFiles/set_37/main_unc/leftBlue\GB_LB_1.xlsx
379	main_unc	True	0.0	268	0	4.0	4.0	0.0	1	left	1.0	0.0	0.0	0	-0.0585937653854	blockFiles/set_37/main_unc/leftBlue\GB_LB_1.xlsx
380	main_unc	True	0.0	268	0	4.0	4.0	1.0	1	right	1.0	1.0	1.0	1	0.032583272438500004	blockFiles/set_37/main_unc/leftBlue\GB_LB_1.xlsx
381	main_unc	True	1.0	268	0	4.0	4.0	n/a	0	None	n/a	0.0	n/a	0	-0.00113433979452	blockFiles/set_37/main_unc/leftBlue\GB_LB_1.xlsx
382	main_unc	True	0.0	268	0	4.0	4.0	1.0	1	right	1.0	1.0	1.0	1	0.0599526144937	blockFiles/set_37/main_unc/leftBlue\GB_LB_1.xlsx
383	main_unc	True	0.0	268	0	4.0	4.0	1.0	1	right	1.0	0.0	1.0	1	0.0437576173246	blockFiles/set_37/main_unc/leftBlue\GB_LB_1.xlsx
384	main_unc	True	0.0	268	0	4.0	4.0	0.0	1	left	1.0	0.0	0.0	0	-0.0412248487212	blockFiles/set_37/main_unc/leftBlue\GB_LB_1.xlsx
385	main_unc	True	0.0	268	0	4.0	4.0	1.0	1	right	1.0	1.0	1.0	1	0.00532386662439	blockFiles/set_37/main_unc/leftBlue\GB_LB_1.xlsx
386	main_unc	True	0.0	268	0	4.0	4.0	1.0	0	right	1.0	0.0	0.0	0	-0.00113433979452	blockFiles/set_37/main_unc/leftBlue\GB_LB_1.xlsx
387	main_unc	True	0.0	268	0	5.0	5.0	0.0	1	left	1.0	1.0	1.0	0	-0.00221854565665	blockFiles/set_37/main_unc/rightBlue\GB_RB_1.xlsx
388	main_unc	True	0.0	268	0	5.0	5.0	0.0	1	left	1.0	1.0	1.0	0	-0.027195007596200003	blockFiles/set_37/main_unc/rightBlue\GB_RB_1.xlsx
389	main_unc	True	0.0	268	0	5.0	5.0	0.0	1	left	1.0	1.0	1.0	0	-0.0756459129602	blockFiles/set_37/main_unc/rightBlue\GB_RB_1.xlsx
390	main_unc	True	0.0	268	0	5.0	5.0	1.0	1	right	2.0	1.0	1.0	1	0.047554584834699994	blockFiles/set_37/main_unc/rightBlue\GB_RB_1.xlsx
391	main_unc	True	1.0	268	0	5.0	5.0	n/a	0	None	n/a	0.0	n/a	1	0.0311891097017	blockFiles/set_37/main_unc/rightBlue\GB_RB_1.xlsx
392	main_unc	True	0.0	268	0	5.0	5.0	0.0	1	left	1.0	1.0	1.0	0	-0.05811172746119999	blockFiles/set_37/main_unc/rightBlue\GB_RB_1.xlsx
393	main_unc	True	0.0	268	0	5.0	5.0	1.0	1	right	2.0	1.0	1.0	1	0.0307043012604	blockFiles/set_37/main_unc/rightBlue\GB_RB_1.xlsx
394	main_unc	True	0.0	268	0	5.0	5.0	1.0	1	right	2.0	1.0	1.0	1	0.0730588257499	blockFiles/set_37/main_unc/rightBlue\GB_RB_1.xlsx
395	main_unc	True	0.0	268	0	5.0	5.0	0.0	1	left	1.0	1.0	1.0	0	-0.0183169274032	blockFiles/set_37/main_unc/rightBlue\GB_RB_1.xlsx
396	main_unc	True	0.0	268	0	5.0	5.0	0.0	1	left	1.0	1.0	1.0	0	-0.0289051951095	blockFiles/set_37/main_unc/rightBlue\GB_RB_1.xlsx
397	main_unc	True	0.0	268	0	5.0	5.0	1.0	1	right	2.0	0.0	1.0	1	0.020379523914299997	blockFiles/set_37/main_unc/rightBlue\GB_RB_1.xlsx
398	main_unc	True	0.0	268	0	5.0	5.0	0.0	1	left	1.0	1.0	1.0	0	-0.0241257142089	blockFiles/set_37/main_unc/rightBlue\GB_RB_1.xlsx
399	main_unc	True	0.0	268	0	5.0	5.0	0.0	1	left	1.0	1.0	1.0	0	-0.0473038831539	blockFiles/set_37/main_unc/rightBlue\GB_RB_1.xlsx
400	main_unc	True	0.0	268	0	5.0	5.0	0.0	1	left	1.0	0.0	1.0	0	-0.06773749344050001	blockFiles/set_37/main_unc/rightBlue\GB_RB_1.xlsx
401	main_unc	True	0.0	268	0	5.0	5.0	1.0	1	right	2.0	0.0	1.0	1	0.057181567605599996	blockFiles/set_37/main_unc/rightBlue\GB_RB_1.xlsx
402	main_unc	True	0.0	268	0	5.0	5.0	0.0	1	left	1.0	1.0	1.0	0	-0.0538631500863	blockFiles/set_37/main_unc/rightBlue\GB_RB_1.xlsx
403	main_unc	True	0.0	268	0	5.0	5.0	0.0	1	left	1.0	0.0	1.0	0	-0.0369708893262	blockFiles/set_37/main_unc/rightBlue\GB_RB_1.xlsx
404	main_unc	True	0.0	268	0	5.0	5.0	1.0	1	right	2.0	1.0	1.0	1	0.0282715112902	blockFiles/set_37/main_unc/rightBlue\GB_RB_1.xlsx
405	main_unc	True	0.0	268	0	5.0	5.0	1.0	1	right	2.0	1.0	1.0	1	0.0038473747298099995	blockFiles/set_37/main_unc/rightBlue\GB_RB_1.xlsx
406	main_unc	True	0.0	268	0	5.0	5.0	0.0	1	left	1.0	1.0	1.0	0	-0.0644178473949	blockFiles/set_37/main_unc/rightBlue\GB_RB_1.xlsx
407	main_unc	True	0.0	268	0	5.0	5.0	0.0	1	left	1.0	0.0	1.0	0	-0.0745555970818	blockFiles/set_37/main_unc/rightBlue\GB_RB_1.xlsx
408	main_unc	True	0.0	268	0	5.0	5.0	1.0	1	right	2.0	1.0	1.0	1	0.006225374341010001	blockFiles/set_37/main_unc/rightBlue\GB_RB_1.xlsx
409	main_unc	True	0.0	268	0	5.0	5.0	0.0	1	left	1.0	1.0	1.0	0	-0.048959148544800005	blockFiles/set_37/main_unc/rightBlue\GB_RB_1.xlsx
410	main_unc	True	0.0	268	0	5.0	5.0	1.0	1	right	2.0	1.0	1.0	1	0.0796615812927	blockFiles/set_37/main_unc/rightBlue\GB_RB_1.xlsx
411	main_unc	True	0.0	268	0	5.0	5.0	1.0	1	right	2.0	1.0	1.0	1	0.0448584687151	blockFiles/set_37/main_unc/rightBlue\GB_RB_1.xlsx
412	main_unc	True	0.0	268	0	5.0	5.0	1.0	1	right	n/a	0.0	n/a	1	0.0311891097017	blockFiles/set_37/main_unc/rightBlue\GB_RB_1.xlsx
413	main_unc	True	0.0	268	0	5.0	5.0	0.0	0	left	1.0	0.0	0.0	1	0.0311891097017	blockFiles/set_37/main_unc/rightBlue\GB_RB_1.xlsx
414	main_unc	True	0.0	268	0	6.0	6.0	1.0	1	right	2.0	0.0	0.0	1	0.032097503747799995	blockFiles/set_37/main_unc/leftBlue\GB_LB_2.xlsx
415	main_unc	True	0.0	268	0	6.0	6.0	1.0	1	right	2.0	0.0	0.0	1	0.015531245712200001	blockFiles/set_37/main_unc/leftBlue\GB_LB_2.xlsx
416	main_unc	True	0.0	268	0	6.0	6.0	0.0	0	left	2.0	0.0	0.0	1	0.000119481012225	blockFiles/set_37/main_unc/leftBlue\GB_LB_2.xlsx
417	main_unc	True	0.0	268	0	6.0	6.0	1.0	1	right	1.0	1.0	1.0	1	0.06591127011919999	blockFiles/set_37/main_unc/leftBlue\GB_LB_2.xlsx
418	main_unc	True	1.0	268	0	6.0	6.0	n/a	0	None	n/a	0.0	n/a	1	0.0234326164052	blockFiles/set_37/main_unc/leftBlue\GB_LB_2.xlsx
419	main_unc	True	0.0	268	0	6.0	6.0	1.0	1	right	1.0	1.0	1.0	1	0.0694033945352	blockFiles/set_37/main_unc/leftBlue\GB_LB_2.xlsx
420	main_unc	True	0.0	268	0	6.0	6.0	0.0	1	left	2.0	1.0	1.0	0	-0.0550009080954	blockFiles/set_37/main_unc/leftBlue\GB_LB_2.xlsx
421	main_unc	True	0.0	268	0	6.0	6.0	0.0	1	left	2.0	1.0	1.0	0	-0.05249766273419999	blockFiles/set_37/main_unc/leftBlue\GB_LB_2.xlsx
422	main_unc	True	0.0	268	0	6.0	6.0	0.0	1	left	2.0	1.0	1.0	0	-0.0265955687501	blockFiles/set_37/main_unc/leftBlue\GB_LB_2.xlsx
423	main_unc	True	0.0	268	0	6.0	6.0	1.0	1	right	1.0	1.0	1.0	1	0.055739110782699997	blockFiles/set_37/main_unc/leftBlue\GB_LB_2.xlsx
424	main_unc	True	0.0	268	0	6.0	6.0	0.0	1	left	2.0	1.0	1.0	0	-0.0071733658202	blockFiles/set_37/main_unc/leftBlue\GB_LB_2.xlsx
425	main_unc	True	0.0	268	0	6.0	6.0	1.0	1	right	1.0	0.0	1.0	1	0.0644064476341	blockFiles/set_37/main_unc/leftBlue\GB_LB_2.xlsx
426	main_unc	True	0.0	268	0	6.0	6.0	0.0	1	left	2.0	1.0	1.0	0	-0.00276509804651	blockFiles/set_37/main_unc/leftBlue\GB_LB_2.xlsx
427	main_unc	True	0.0	268	0	6.0	6.0	1.0	1	right	1.0	1.0	1.0	1	0.0259359517694	blockFiles/set_37/main_unc/leftBlue\GB_LB_2.xlsx
428	main_unc	True	0.0	268	0	6.0	6.0	1.0	1	right	1.0	0.0	1.0	1	0.0440854930133	blockFiles/set_37/main_unc/leftBlue\GB_LB_2.xlsx
429	main_unc	True	0.0	268	0	6.0	6.0	0.0	1	left	2.0	1.0	1.0	0	-0.0305811460689	blockFiles/set_37/main_unc/leftBlue\GB_LB_2.xlsx
430	main_unc	True	1.0	268	0	6.0	6.0	n/a	0	None	n/a	0.0	n/a	1	0.045645121336	blockFiles/set_37/main_unc/leftBlue\GB_LB_2.xlsx
431	main_unc	True	0.0	268	0	6.0	6.0	0.0	1	left	2.0	1.0	1.0	0	-0.04686024365949999	blockFiles/set_37/main_unc/leftBlue\GB_LB_2.xlsx
432	main_unc	True	0.0	268	0	6.0	6.0	0.0	1	left	2.0	0.0	1.0	0	-0.061219410114	blockFiles/set_37/main_unc/leftBlue\GB_LB_2.xlsx
433	main_unc	True	0.0	268	0	6.0	6.0	0.0	1	left	2.0	1.0	1.0	0	-0.026510433554599998	blockFiles/set_37/main_unc/leftBlue\GB_LB_2.xlsx
434	main_unc	True	0.0	268	0	6.0	6.0	0.0	1	left	2.0	1.0	1.0	0	-0.029845886323599996	blockFiles/set_37/main_unc/leftBlue\GB_LB_2.xlsx
435	main_unc	True	0.0	268	0	6.0	6.0	1.0	0	right	1.0	0.0	0.0	0	-0.0249471904337	blockFiles/set_37/main_unc/leftBlue\GB_LB_2.xlsx
436	main_unc	True	0.0	268	0	6.0	6.0	0.0	1	left	2.0	0.0	1.0	0	-0.072591248136	blockFiles/set_37/main_unc/leftBlue\GB_LB_2.xlsx
437	main_unc	True	1.0	268	0	6.0	6.0	n/a	0	None	n/a	0.0	n/a	1	0.0138003292121	blockFiles/set_37/main_unc/leftBlue\GB_LB_2.xlsx
438	main_unc	True	0.0	268	0	6.0	6.0	0.0	1	left	2.0	1.0	1.0	0	-0.07620676556599999	blockFiles/set_37/main_unc/leftBlue\GB_LB_2.xlsx
439	main_unc	True	0.0	268	0	6.0	6.0	1.0	1	right	1.0	1.0	1.0	1	0.0234326164052	blockFiles/set_37/main_unc/leftBlue\GB_LB_2.xlsx
440	main_unc	True	0.0	268	0	6.0	6.0	1.0	1	right	1.0	1.0	1.0	1	0.045645121336	blockFiles/set_37/main_unc/leftBlue\GB_LB_2.xlsx
441	main_unc	True	0.0	268	0	6.0	6.0	1.0	1	right	1.0	0.0	1.0	1	0.0138003292121	blockFiles/set_37/main_unc/leftBlue\GB_LB_2.xlsx
442	main_unc	True	1.0	268	0	7.0	7.0	n/a	0	None	n/a	0.0	n/a	0	-0.00787807829678	blockFiles/set_37/main_unc/leftBlue\GB_LB_3.xlsx
443	main_unc	True	0.0	268	0	7.0	7.0	1.0	1	right	2.0	0.0	0.0	1	0.030462582036900002	blockFiles/set_37/main_unc/leftBlue\GB_LB_3.xlsx
444	main_unc	True	0.0	268	0	7.0	7.0	0.0	1	left	2.0	1.0	1.0	0	-0.0294124516472	blockFiles/set_37/main_unc/leftBlue\GB_LB_3.xlsx
445	main_unc	True	0.0	268	0	7.0	7.0	1.0	1	right	1.0	1.0	1.0	1	0.0443349598162	blockFiles/set_37/main_unc/leftBlue\GB_LB_3.xlsx
446	main_unc	True	0.0	268	0	7.0	7.0	0.0	1	left	2.0	1.0	1.0	0	-0.07493912531060001	blockFiles/set_37/main_unc/leftBlue\GB_LB_3.xlsx
447	main_unc	True	0.0	268	0	7.0	7.0	1.0	1	right	1.0	1.0	1.0	1	0.028070325050499997	blockFiles/set_37/main_unc/leftBlue\GB_LB_3.xlsx
448	main_unc	True	0.0	268	0	7.0	7.0	0.0	1	left	2.0	1.0	1.0	0	-0.0689387885854	blockFiles/set_37/main_unc/leftBlue\GB_LB_3.xlsx
449	main_unc	True	0.0	268	0	7.0	7.0	1.0	1	right	1.0	1.0	1.0	1	0.0161191928945	blockFiles/set_37/main_unc/leftBlue\GB_LB_3.xlsx
450	main_unc	True	0.0	268	0	7.0	7.0	1.0	1	right	2.0	0.0	0.0	1	0.023092210479099998	blockFiles/set_37/main_unc/leftBlue\GB_LB_3.xlsx
451	main_unc	True	0.0	268	0	7.0	7.0	0.0	1	left	2.0	1.0	1.0	0	-0.057373081184900004	blockFiles/set_37/main_unc/leftBlue\GB_LB_3.xlsx
452	main_unc	True	0.0	268	0	7.0	7.0	0.0	1	left	2.0	1.0	1.0	0	-0.0507544905506	blockFiles/set_37/main_unc/leftBlue\GB_LB_3.xlsx
453	main_unc	True	0.0	268	0	7.0	7.0	1.0	1	right	1.0	1.0	1.0	1	0.00252079457045	blockFiles/set_37/main_unc/leftBlue\GB_LB_3.xlsx
454	main_unc	True	0.0	268	0	7.0	7.0	1.0	1	right	1.0	1.0	1.0	1	0.061479543987699996	blockFiles/set_37/main_unc/leftBlue\GB_LB_3.xlsx
455	main_unc	True	0.0	268	0	7.0	7.0	1.0	1	right	1.0	1.0	1.0	1	0.010932525955100001	blockFiles/set_37/main_unc/leftBlue\GB_LB_3.xlsx
456	main_unc	True	0.0	268	0	7.0	7.0	0.0	1	left	2.0	1.0	1.0	0	-0.050781124718500006	blockFiles/set_37/main_unc/leftBlue\GB_LB_3.xlsx
457	main_unc	True	0.0	268	0	7.0	7.0	0.0	1	left	2.0	0.0	1.0	0	-0.06896621951830001	blockFiles/set_37/main_unc/leftBlue\GB_LB_3.xlsx
458	main_unc	True	0.0	268	0	7.0	7.0	1.0	1	right	1.0	1.0	1.0	1	0.00150436196476	blockFiles/set_37/main_unc/leftBlue\GB_LB_3.xlsx
459	main_unc	True	0.0	268	0	7.0	7.0	0.0	1	left	2.0	0.0	1.0	0	-0.0768633697182	blockFiles/set_37/main_unc/leftBlue\GB_LB_3.xlsx
460	main_unc	True	0.0	268	0	7.0	7.0	0.0	1	left	2.0	1.0	1.0	0	-0.0399641888961	blockFiles/set_37/main_unc/leftBlue\GB_LB_3.xlsx
461	main_unc	True	0.0	268	0	7.0	7.0	1.0	1	right	1.0	0.0	1.0	1	0.05141458844769999	blockFiles/set_37/main_unc/leftBlue\GB_LB_3.xlsx
462	main_unc	True	0.0	268	0	7.0	7.0	0.0	1	left	2.0	1.0	1.0	0	-0.0268804907985	blockFiles/set_37/main_unc/leftBlue\GB_LB_3.xlsx
463	main_unc	True	1.0	268	0	7.0	7.0	n/a	0	None	n/a	0.0	n/a	1	0.0752963817678	blockFiles/set_37/main_unc/leftBlue\GB_LB_3.xlsx
464	main_unc	True	0.0	268	0	7.0	7.0	1.0	1	right	1.0	0.0	1.0	1	0.0421059192158	blockFiles/set_37/main_unc/leftBlue\GB_LB_3.xlsx
465	main_unc	True	0.0	268	0	7.0	7.0	0.0	1	left	1.0	1.0	0.0	0	-0.039530440028800004	blockFiles/set_37/main_unc/leftBlue\GB_LB_3.xlsx
466	main_unc	True	0.0	268	0	7.0	7.0	0.0	1	left	1.0	0.0	0.0	0	-0.037033857666	blockFiles/set_37/main_unc/leftBlue\GB_LB_3.xlsx
467	main_unc	True	0.0	268	0	7.0	7.0	0.0	1	left	2.0	1.0	1.0	0	-0.00787807829678	blockFiles/set_37/main_unc/leftBlue\GB_LB_3.xlsx
468	main_unc	True	0.0	268	0	7.0	7.0	1.0	1	right	2.0	0.0	0.0	1	0.0752963817678	blockFiles/set_37/main_unc/leftBlue\GB_LB_3.xlsx
469	main_unc	True	0.0	268	0	8.0	8.0	0.0	1	left	1.0	1.0	1.0	0	-0.0708709209599	blockFiles/set_37/main_unc/rightBlue\GB_RB_6.xlsx
470	main_unc	True	0.0	268	0	8.0	8.0	0.0	0	left	1.0	0.0	0.0	1	0.032195057049400004	blockFiles/set_37/main_unc/rightBlue\GB_RB_6.xlsx
471	main_unc	True	0.0	268	0	8.0	8.0	0.0	1	left	1.0	1.0	1.0	0	-0.06396189825609999	blockFiles/set_37/main_unc/rightBlue\GB_RB_6.xlsx
472	main_unc	True	0.0	268	0	8.0	8.0	1.0	1	right	2.0	1.0	1.0	1	0.035067650619900005	blockFiles/set_37/main_unc/rightBlue\GB_RB_6.xlsx
473	main_unc	True	0.0	268	0	8.0	8.0	0.0	1	left	1.0	1.0	1.0	0	-0.0796990639903	blockFiles/set_37/main_unc/rightBlue\GB_RB_6.xlsx
474	main_unc	True	0.0	268	0	8.0	8.0	0.0	1	left	1.0	1.0	1.0	0	-0.009044525120409999	blockFiles/set_37/main_unc/rightBlue\GB_RB_6.xlsx
475	main_unc	True	0.0	268	0	8.0	8.0	1.0	1	right	2.0	0.0	1.0	1	0.0382750028744	blockFiles/set_37/main_unc/rightBlue\GB_RB_6.xlsx
476	main_unc	True	0.0	268	0	8.0	8.0	0.0	1	left	1.0	1.0	1.0	0	-0.049874003659899996	blockFiles/set_37/main_unc/rightBlue\GB_RB_6.xlsx
477	main_unc	True	0.0	268	0	8.0	8.0	0.0	1	left	1.0	1.0	1.0	0	-0.0641119300574	blockFiles/set_37/main_unc/rightBlue\GB_RB_6.xlsx
478	main_unc	True	0.0	268	0	8.0	8.0	1.0	0	right	2.0	0.0	0.0	0	-0.00796001872048	blockFiles/set_37/main_unc/rightBlue\GB_RB_6.xlsx
479	main_unc	True	0.0	268	0	8.0	8.0	0.0	0	left	1.0	1.0	0.0	1	0.026426384150999998	blockFiles/set_37/main_unc/rightBlue\GB_RB_6.xlsx
480	main_unc	True	0.0	268	0	8.0	8.0	1.0	1	right	1.0	0.0	0.0	1	0.0250220022537	blockFiles/set_37/main_unc/rightBlue\GB_RB_6.xlsx
481	main_unc	True	0.0	268	0	8.0	8.0	0.0	1	left	1.0	1.0	1.0	0	-0.0797378027067	blockFiles/set_37/main_unc/rightBlue\GB_RB_6.xlsx
482	main_unc	True	0.0	268	0	8.0	8.0	1.0	1	right	2.0	1.0	1.0	1	0.00333429146558	blockFiles/set_37/main_unc/rightBlue\GB_RB_6.xlsx
483	main_unc	True	0.0	268	0	8.0	8.0	0.0	1	left	1.0	0.0	1.0	0	-0.0626185076311	blockFiles/set_37/main_unc/rightBlue\GB_RB_6.xlsx
484	main_unc	True	0.0	268	0	8.0	8.0	0.0	1	left	1.0	1.0	1.0	0	-0.05334935214369999	blockFiles/set_37/main_unc/rightBlue\GB_RB_6.xlsx
485	main_unc	True	0.0	268	0	8.0	8.0	0.0	1	left	1.0	0.0	1.0	0	-0.0526039224677	blockFiles/set_37/main_unc/rightBlue\GB_RB_6.xlsx
486	main_unc	True	0.0	268	0	8.0	8.0	1.0	1	right	2.0	1.0	1.0	1	0.0427737432718	blockFiles/set_37/main_unc/rightBlue\GB_RB_6.xlsx
487	main_unc	True	0.0	268	0	8.0	8.0	0.0	0	left	1.0	1.0	0.0	1	0.00744586037472	blockFiles/set_37/main_unc/rightBlue\GB_RB_6.xlsx
488	main_unc	True	0.0	268	0	8.0	8.0	0.0	0	left	1.0	0.0	0.0	1	0.007737848926340001	blockFiles/set_37/main_unc/rightBlue\GB_RB_6.xlsx
489	main_unc	True	0.0	268	0	8.0	8.0	1.0	1	right	2.0	1.0	1.0	1	0.055011807139999994	blockFiles/set_37/main_unc/rightBlue\GB_RB_6.xlsx
490	main_unc	True	0.0	268	0	8.0	8.0	0.0	1	left	1.0	1.0	1.0	0	-0.0489829410613	blockFiles/set_37/main_unc/rightBlue\GB_RB_6.xlsx
491	main_unc	True	0.0	268	0	8.0	8.0	1.0	1	right	2.0	1.0	1.0	1	0.0679374535009	blockFiles/set_37/main_unc/rightBlue\GB_RB_6.xlsx
492	main_unc	True	0.0	268	0	8.0	8.0	0.0	0	left	1.0	0.0	0.0	1	0.030243592746599997	blockFiles/set_37/main_unc/rightBlue\GB_RB_6.xlsx
493	main_unc	True	0.0	268	0	8.0	8.0	1.0	1	right	2.0	1.0	1.0	1	0.00232003517449	blockFiles/set_37/main_unc/rightBlue\GB_RB_6.xlsx
494	main_unc	True	0.0	268	0	9.0	9.0	0.0	1	left	1.0	0.0	0.0	0	-0.00384898677468	blockFiles/set_37/main_unc/leftBlue\GB_LB_6.xlsx
495	main_unc	True	0.0	268	0	9.0	9.0	1.0	1	right	1.0	0.0	1.0	1	0.0436035716534	blockFiles/set_37/main_unc/leftBlue\GB_LB_6.xlsx
496	main_unc	True	0.0	268	0	9.0	9.0	0.0	1	left	1.0	0.0	0.0	0	-0.06071172101419999	blockFiles/set_37/main_unc/leftBlue\GB_LB_6.xlsx
497	main_unc	True	0.0	268	0	9.0	9.0	0.0	0	left	2.0	0.0	0.0	1	0.0036797744035700006	blockFiles/set_37/main_unc/leftBlue\GB_LB_6.xlsx
498	main_unc	True	0.0	268	0	9.0	9.0	0.0	1	left	2.0	1.0	1.0	0	-0.055711983311900005	blockFiles/set_37/main_unc/leftBlue\GB_LB_6.xlsx
499	main_unc	True	0.0	268	0	9.0	9.0	0.0	1	left	2.0	1.0	1.0	0	-0.0112326934002	blockFiles/set_37/main_unc/leftBlue\GB_LB_6.xlsx
500	main_unc	True	0.0	268	0	9.0	9.0	1.0	1	right	1.0	1.0	1.0	1	0.0313533048704	blockFiles/set_37/main_unc/leftBlue\GB_LB_6.xlsx
501	main_unc	True	0.0	268	0	9.0	9.0	1.0	1	right	1.0	1.0	1.0	1	0.0658094833978	blockFiles/set_37/main_unc/leftBlue\GB_LB_6.xlsx
502	main_unc	True	0.0	268	0	9.0	9.0	1.0	0	right	1.0	0.0	0.0	0	-0.0246751015447	blockFiles/set_37/main_unc/leftBlue\GB_LB_6.xlsx
503	main_unc	True	0.0	268	0	9.0	9.0	0.0	1	left	2.0	1.0	1.0	0	-0.0759837576002	blockFiles/set_37/main_unc/leftBlue\GB_LB_6.xlsx
504	main_unc	True	0.0	268	0	9.0	9.0	0.0	1	left	2.0	1.0	1.0	0	-0.0248387196474	blockFiles/set_37/main_unc/leftBlue\GB_LB_6.xlsx
505	main_unc	True	0.0	268	0	9.0	9.0	0.0	1	left	2.0	0.0	1.0	0	-0.052475353367599994	blockFiles/set_37/main_unc/leftBlue\GB_LB_6.xlsx
506	main_unc	True	0.0	268	0	9.0	9.0	1.0	1	right	1.0	0.0	1.0	1	0.0711715189368	blockFiles/set_37/main_unc/leftBlue\GB_LB_6.xlsx
507	main_unc	True	0.0	268	0	9.0	9.0	1.0	1	right	2.0	0.0	0.0	1	0.011697033606499999	blockFiles/set_37/main_unc/leftBlue\GB_LB_6.xlsx
508	main_unc	True	0.0	268	0	9.0	9.0	0.0	1	left	2.0	1.0	1.0	0	-0.06534394523130001	blockFiles/set_37/main_unc/leftBlue\GB_LB_6.xlsx
509	main_unc	True	0.0	268	0	9.0	9.0	1.0	1	right	1.0	1.0	1.0	1	0.0186520519853	blockFiles/set_37/main_unc/leftBlue\GB_LB_6.xlsx
510	main_unc	True	0.0	268	0	9.0	9.0	0.0	1	left	2.0	1.0	1.0	0	-0.043851617388399995	blockFiles/set_37/main_unc/leftBlue\GB_LB_6.xlsx
511	main_unc	True	0.0	268	0	9.0	9.0	1.0	1	right	1.0	0.0	1.0	1	0.0220072297007	blockFiles/set_37/main_unc/leftBlue\GB_LB_6.xlsx
512	main_unc	True	0.0	268	0	9.0	9.0	0.0	1	left	2.0	1.0	1.0	0	-0.038544175718	blockFiles/set_37/main_unc/leftBlue\GB_LB_6.xlsx
513	main_unc	True	0.0	268	0	9.0	9.0	1.0	1	right	1.0	0.0	1.0	1	0.0423336062022	blockFiles/set_37/main_unc/leftBlue\GB_LB_6.xlsx
514	main_unc	True	1.0	268	0	9.0	9.0	n/a	0	None	n/a	0.0	n/a	0	-0.0649461481348	blockFiles/set_37/main_unc/leftBlue\GB_LB_6.xlsx
515	main_unc	True	0.0	268	0	9.0	9.0	0.0	0	left	1.0	1.0	1.0	1	0.012075385954200001	blockFiles/set_37/main_unc/leftBlue\GB_LB_6.xlsx
516	main_unc	True	1.0	268	0	9.0	9.0	n/a	0	None	n/a	0.0	n/a	1	0.0480027146451	blockFiles/set_37/main_unc/leftBlue\GB_LB_6.xlsx
517	main_unc	True	0.0	268	0	9.0	9.0	0.0	1	left	2.0	1.0	1.0	0	-0.044569217506800006	blockFiles/set_37/main_unc/leftBlue\GB_LB_6.xlsx
518	main_unc	True	0.0	268	0	9.0	9.0	0.0	1	left	2.0	1.0	1.0	0	-0.047085398770900004	blockFiles/set_37/main_unc/leftBlue\GB_LB_6.xlsx
519	main_unc	True	0.0	268	0	9.0	9.0	0.0	1	left	2.0	1.0	1.0	0	-0.0649461481348	blockFiles/set_37/main_unc/leftBlue\GB_LB_6.xlsx
520	main_unc	True	0.0	268	0	9.0	9.0	1.0	1	right	1.0	1.0	1.0	1	0.0480027146451	blockFiles/set_37/main_unc/leftBlue\GB_LB_6.xlsx
521	main_unc	True	0.0	268	0	10.0	10.0	0.0	1	left	1.0	1.0	1.0	0	-0.07260479178280001	blockFiles/set_37/main_unc/rightBlue\GB_RB_3.xlsx
522	main_unc	True	0.0	268	0	10.0	10.0	0.0	1	left	1.0	1.0	1.0	0	-0.023622094616299997	blockFiles/set_37/main_unc/rightBlue\GB_RB_3.xlsx
523	main_unc	True	0.0	268	0	10.0	10.0	0.0	1	left	1.0	0.0	1.0	0	-0.0549219642207	blockFiles/set_37/main_unc/rightBlue\GB_RB_3.xlsx
524	main_unc	True	0.0	268	0	10.0	10.0	1.0	1	right	2.0	1.0	1.0	1	0.0017988134920599998	blockFiles/set_37/main_unc/rightBlue\GB_RB_3.xlsx
525	main_unc	True	0.0	268	0	10.0	10.0	0.0	1	left	1.0	1.0	1.0	0	-0.028814497180300002	blockFiles/set_37/main_unc/rightBlue\GB_RB_3.xlsx
526	main_unc	True	0.0	268	0	10.0	10.0	0.0	1	left	1.0	1.0	1.0	0	-0.042689320407800005	blockFiles/set_37/main_unc/rightBlue\GB_RB_3.xlsx
527	main_unc	True	0.0	268	0	10.0	10.0	0.0	1	left	1.0	0.0	1.0	0	-0.042817733790699995	blockFiles/set_37/main_unc/rightBlue\GB_RB_3.xlsx
528	main_unc	True	0.0	268	0	10.0	10.0	0.0	1	left	1.0	1.0	1.0	0	-0.024409923031900004	blockFiles/set_37/main_unc/rightBlue\GB_RB_3.xlsx
529	main_unc	True	0.0	268	0	10.0	10.0	1.0	1	right	2.0	1.0	1.0	1	0.0505536343157	blockFiles/set_37/main_unc/rightBlue\GB_RB_3.xlsx
530	main_unc	True	0.0	268	0	10.0	10.0	1.0	1	right	2.0	1.0	1.0	1	0.0397552617267	blockFiles/set_37/main_unc/rightBlue\GB_RB_3.xlsx
531	main_unc	True	0.0	268	0	10.0	10.0	1.0	1	right	2.0	0.0	1.0	1	0.0405387626588	blockFiles/set_37/main_unc/rightBlue\GB_RB_3.xlsx
532	main_unc	True	0.0	268	0	10.0	10.0	0.0	1	left	1.0	1.0	1.0	0	-0.051126482002400005	blockFiles/set_37/main_unc/rightBlue\GB_RB_3.xlsx
533	main_unc	True	0.0	268	0	10.0	10.0	1.0	1	right	2.0	1.0	1.0	1	0.06142155710609999	blockFiles/set_37/main_unc/rightBlue\GB_RB_3.xlsx
534	main_unc	True	0.0	268	0	10.0	10.0	0.0	1	left	1.0	1.0	1.0	0	-0.0426591236144	blockFiles/set_37/main_unc/rightBlue\GB_RB_3.xlsx
535	main_unc	True	0.0	268	0	10.0	10.0	1.0	1	right	2.0	1.0	1.0	1	0.0691710297391	blockFiles/set_37/main_unc/rightBlue\GB_RB_3.xlsx
536	main_unc	True	0.0	268	0	10.0	10.0	0.0	1	left	1.0	1.0	1.0	0	-0.0326951792277	blockFiles/set_37/main_unc/rightBlue\GB_RB_3.xlsx
537	main_unc	True	0.0	268	0	10.0	10.0	1.0	1	right	2.0	1.0	1.0	1	0.019658132232700003	blockFiles/set_37/main_unc/rightBlue\GB_RB_3.xlsx
538	main_unc	True	0.0	268	0	10.0	10.0	0.0	1	left	1.0	1.0	1.0	0	-0.0701449464075	blockFiles/set_37/main_unc/rightBlue\GB_RB_3.xlsx
539	main_unc	True	0.0	268	0	10.0	10.0	1.0	1	right	2.0	1.0	1.0	1	0.049334866385900004	blockFiles/set_37/main_unc/rightBlue\GB_RB_3.xlsx
540	main_unc	True	0.0	268	0	10.0	10.0	0.0	0	left	1.0	0.0	0.0	1	0.00937574731186	blockFiles/set_37/main_unc/rightBlue\GB_RB_3.xlsx
541	main_unc	True	0.0	268	0	10.0	10.0	1.0	1	right	2.0	0.0	1.0	1	0.0373234635964	blockFiles/set_37/main_unc/rightBlue\GB_RB_3.xlsx
542	main_unc	True	0.0	268	0	10.0	10.0	0.0	1	left	1.0	1.0	1.0	0	-0.0142307053134	blockFiles/set_37/main_unc/rightBlue\GB_RB_3.xlsx
543	main_unc	True	0.0	268	0	10.0	10.0	1.0	1	right	2.0	1.0	1.0	1	0.054507763125	blockFiles/set_37/main_unc/rightBlue\GB_RB_3.xlsx
544	main_unc	True	0.0	268	0	10.0	10.0	1.0	1	right	2.0	1.0	1.0	1	0.073041613847	blockFiles/set_37/main_unc/rightBlue\GB_RB_3.xlsx
545	main_unc	True	0.0	268	0	10.0	10.0	0.0	1	left	1.0	1.0	1.0	0	-0.0408380625024	blockFiles/set_37/main_unc/rightBlue\GB_RB_3.xlsx
546	main_unc	True	0.0	268	0	11.0	11.0	0.0	1	left	1.0	1.0	1.0	0	-0.048817260824100005	blockFiles/set_37/main_unc/rightBlue\GB_RB_4.xlsx
547	main_unc	True	0.0	268	0	11.0	11.0	1.0	1	right	2.0	0.0	1.0	1	0.0301526398025	blockFiles/set_37/main_unc/rightBlue\GB_RB_4.xlsx
548	main_unc	True	0.0	268	0	11.0	11.0	0.0	0	left	1.0	0.0	0.0	1	0.0244617429562	blockFiles/set_37/main_unc/rightBlue\GB_RB_4.xlsx
549	main_unc	True	0.0	268	0	11.0	11.0	1.0	1	right	2.0	1.0	1.0	1	0.0738214047067	blockFiles/set_37/main_unc/rightBlue\GB_RB_4.xlsx
550	main_unc	True	0.0	268	0	11.0	11.0	0.0	1	left	1.0	1.0	1.0	0	-0.00282763563097	blockFiles/set_37/main_unc/rightBlue\GB_RB_4.xlsx
551	main_unc	True	0.0	268	0	11.0	11.0	1.0	1	right	2.0	1.0	1.0	1	0.0144666077197	blockFiles/set_37/main_unc/rightBlue\GB_RB_4.xlsx
552	main_unc	True	0.0	268	0	11.0	11.0	0.0	1	left	1.0	1.0	1.0	0	-0.060817006006800005	blockFiles/set_37/main_unc/rightBlue\GB_RB_4.xlsx
553	main_unc	True	0.0	268	0	11.0	11.0	0.0	1	left	1.0	1.0	1.0	0	-0.0751600083895	blockFiles/set_37/main_unc/rightBlue\GB_RB_4.xlsx
554	main_unc	True	0.0	268	0	11.0	11.0	1.0	0	right	2.0	1.0	0.0	0	-0.0060592312738299995	blockFiles/set_37/main_unc/rightBlue\GB_RB_4.xlsx
555	main_unc	True	0.0	268	0	11.0	11.0	1.0	0	right	2.0	0.0	0.0	0	-0.0636280340143	blockFiles/set_37/main_unc/rightBlue\GB_RB_4.xlsx
556	main_unc	True	0.0	268	0	11.0	11.0	0.0	1	left	1.0	1.0	1.0	0	-0.05262197593230001	blockFiles/set_37/main_unc/rightBlue\GB_RB_4.xlsx
557	main_unc	True	0.0	268	0	11.0	11.0	1.0	1	right	2.0	1.0	1.0	1	0.035526136290300006	blockFiles/set_37/main_unc/rightBlue\GB_RB_4.xlsx
558	main_unc	True	0.0	268	0	11.0	11.0	0.0	1	left	1.0	1.0	1.0	0	-0.0316503286175	blockFiles/set_37/main_unc/rightBlue\GB_RB_4.xlsx
559	main_unc	True	0.0	268	0	11.0	11.0	0.0	1	left	1.0	1.0	1.0	0	-0.056102823223900006	blockFiles/set_37/main_unc/rightBlue\GB_RB_4.xlsx
560	main_unc	True	0.0	268	0	11.0	11.0	0.0	1	left	1.0	1.0	1.0	0	-0.0524246943556	blockFiles/set_37/main_unc/rightBlue\GB_RB_4.xlsx
561	main_unc	True	0.0	268	0	11.0	11.0	1.0	1	right	2.0	1.0	1.0	1	0.0361121794581	blockFiles/set_37/main_unc/rightBlue\GB_RB_4.xlsx
562	main_unc	True	0.0	268	0	11.0	11.0	1.0	1	right	2.0	1.0	1.0	1	0.0277695304714	blockFiles/set_37/main_unc/rightBlue\GB_RB_4.xlsx
563	main_unc	True	0.0	268	0	11.0	11.0	1.0	0	right	2.0	0.0	0.0	0	-0.00759562222287	blockFiles/set_37/main_unc/rightBlue\GB_RB_4.xlsx
564	main_unc	True	0.0	268	0	11.0	11.0	1.0	0	right	2.0	1.0	0.0	0	-0.009568993486459999	blockFiles/set_37/main_unc/rightBlue\GB_RB_4.xlsx
565	main_unc	True	0.0	268	0	11.0	11.0	1.0	1	right	2.0	0.0	1.0	1	0.0286668828689	blockFiles/set_37/main_unc/rightBlue\GB_RB_4.xlsx
566	main_unc	True	0.0	268	0	11.0	11.0	1.0	1	right	2.0	1.0	1.0	1	0.0665554905124	blockFiles/set_37/main_unc/rightBlue\GB_RB_4.xlsx
567	main_unc	True	0.0	268	0	11.0	11.0	0.0	0	left	1.0	0.0	0.0	1	0.05361122962090001	blockFiles/set_37/main_unc/rightBlue\GB_RB_4.xlsx
568	main_unc	True	0.0	268	0	11.0	11.0	1.0	1	right	2.0	0.0	1.0	1	0.034966582153	blockFiles/set_37/main_unc/rightBlue\GB_RB_4.xlsx
569	main_unc	True	0.0	268	0	11.0	11.0	0.0	1	left	1.0	1.0	1.0	0	-0.0608804160915	blockFiles/set_37/main_unc/rightBlue\GB_RB_4.xlsx
570	main_unc	True	0.0	268	0	11.0	11.0	0.0	0	left	1.0	0.0	0.0	1	0.00129121609032	blockFiles/set_37/main_unc/rightBlue\GB_RB_4.xlsx
