	trial_type	complete	missIndex	participant	id	blockNumber	b_t	d_t	decision1.corr	decision1.keys	a_t	r_t	decision2.corr	s_t	u_t	block_file
0	main_safe	True	1.0	942	0	0.0	0.0	n/a	0	None	n/a	0.0	n/a	0	-0.08	blockFiles/set_25/main_safe/rightBlue\GB_RB_3.xlsx
1	main_safe	True	0.0	942	0	0.0	0.0	1.0	1	right	1.0	0.0	0.0	1	0.08	blockFiles/set_25/main_safe/rightBlue\GB_RB_3.xlsx
2	main_safe	True	0.0	942	0	0.0	0.0	1.0	1	right	2.0	0.0	1.0	1	0.08	blockFiles/set_25/main_safe/rightBlue\GB_RB_3.xlsx
3	main_safe	True	0.0	942	0	0.0	0.0	1.0	1	right	1.0	0.0	0.0	1	0.08	blockFiles/set_25/main_safe/rightBlue\GB_RB_3.xlsx
4	main_safe	True	1.0	942	0	0.0	0.0	n/a	0	None	n/a	0.0	n/a	1	0.08	blockFiles/set_25/main_safe/rightBlue\GB_RB_3.xlsx
5	main_safe	True	0.0	942	0	0.0	0.0	1.0	1	right	1.0	0.0	0.0	1	0.08	blockFiles/set_25/main_safe/rightBlue\GB_RB_3.xlsx
6	main_safe	True	0.0	942	0	0.0	0.0	1.0	1	right	1.0	0.0	0.0	1	0.08	blockFiles/set_25/main_safe/rightBlue\GB_RB_3.xlsx
7	main_safe	True	0.0	942	0	0.0	0.0	0.0	1	left	2.0	1.0	0.0	0	-0.08	blockFiles/set_25/main_safe/rightBlue\GB_RB_3.xlsx
8	main_safe	True	0.0	942	0	0.0	0.0	1.0	1	right	1.0	0.0	0.0	1	0.08	blockFiles/set_25/main_safe/rightBlue\GB_RB_3.xlsx
9	main_safe	True	0.0	942	0	0.0	0.0	0.0	1	left	2.0	0.0	0.0	0	-0.08	blockFiles/set_25/main_safe/rightBlue\GB_RB_3.xlsx
10	main_safe	True	0.0	942	0	0.0	0.0	1.0	1	right	1.0	0.0	0.0	1	0.08	blockFiles/set_25/main_safe/rightBlue\GB_RB_3.xlsx
11	main_safe	True	0.0	942	0	0.0	0.0	0.0	1	left	2.0	0.0	0.0	0	-0.08	blockFiles/set_25/main_safe/rightBlue\GB_RB_3.xlsx
12	main_safe	True	0.0	942	0	0.0	0.0	1.0	1	right	2.0	0.0	1.0	1	0.08	blockFiles/set_25/main_safe/rightBlue\GB_RB_3.xlsx
13	main_safe	True	0.0	942	0	0.0	0.0	1.0	1	right	2.0	1.0	1.0	1	0.08	blockFiles/set_25/main_safe/rightBlue\GB_RB_3.xlsx
14	main_safe	True	0.0	942	0	0.0	0.0	1.0	1	right	2.0	1.0	1.0	1	0.08	blockFiles/set_25/main_safe/rightBlue\GB_RB_3.xlsx
15	main_safe	True	0.0	942	0	0.0	0.0	0.0	1	left	1.0	1.0	1.0	0	-0.08	blockFiles/set_25/main_safe/rightBlue\GB_RB_3.xlsx
16	main_safe	True	0.0	942	0	0.0	0.0	0.0	1	left	1.0	1.0	1.0	0	-0.08	blockFiles/set_25/main_safe/rightBlue\GB_RB_3.xlsx
17	main_safe	True	0.0	942	0	0.0	0.0	0.0	1	left	1.0	1.0	1.0	0	-0.08	blockFiles/set_25/main_safe/rightBlue\GB_RB_3.xlsx
18	main_safe	True	0.0	942	0	0.0	0.0	1.0	1	right	2.0	1.0	1.0	1	0.08	blockFiles/set_25/main_safe/rightBlue\GB_RB_3.xlsx
19	main_safe	True	0.0	942	0	0.0	0.0	0.0	1	left	2.0	1.0	0.0	0	-0.08	blockFiles/set_25/main_safe/rightBlue\GB_RB_3.xlsx
20	main_safe	True	0.0	942	0	0.0	0.0	0.0	1	left	2.0	0.0	0.0	0	-0.08	blockFiles/set_25/main_safe/rightBlue\GB_RB_3.xlsx
21	main_safe	True	0.0	942	0	0.0	0.0	1.0	1	right	2.0	1.0	1.0	1	0.08	blockFiles/set_25/main_safe/rightBlue\GB_RB_3.xlsx
22	main_safe	True	0.0	942	0	0.0	0.0	0.0	1	left	1.0	1.0	1.0	0	-0.08	blockFiles/set_25/main_safe/rightBlue\GB_RB_3.xlsx
23	main_safe	True	0.0	942	0	0.0	0.0	1.0	1	right	2.0	0.0	1.0	1	0.08	blockFiles/set_25/main_safe/rightBlue\GB_RB_3.xlsx
24	main_safe	True	0.0	942	0	0.0	0.0	0.0	1	left	1.0	1.0	1.0	0	-0.08	blockFiles/set_25/main_safe/rightBlue\GB_RB_3.xlsx
25	main_safe	True	0.0	942	0	0.0	0.0	0.0	1	left	1.0	1.0	1.0	0	-0.08	blockFiles/set_25/main_safe/rightBlue\GB_RB_3.xlsx
26	main_safe	True	0.0	942	0	0.0	0.0	1.0	1	right	2.0	1.0	1.0	1	0.08	blockFiles/set_25/main_safe/rightBlue\GB_RB_3.xlsx
27	main_safe	True	0.0	942	0	1.0	1.0	1.0	1	right	1.0	0.0	0.0	1	0.08	blockFiles/set_25/main_safe/rightBlue\GB_RB_2.xlsx
28	main_safe	True	0.0	942	0	1.0	1.0	0.0	1	left	2.0	0.0	0.0	0	-0.08	blockFiles/set_25/main_safe/rightBlue\GB_RB_2.xlsx
29	main_safe	True	0.0	942	0	1.0	1.0	0.0	1	left	1.0	1.0	1.0	0	-0.08	blockFiles/set_25/main_safe/rightBlue\GB_RB_2.xlsx
30	main_safe	True	0.0	942	0	1.0	1.0	1.0	1	right	2.0	1.0	1.0	1	0.08	blockFiles/set_25/main_safe/rightBlue\GB_RB_2.xlsx
31	main_safe	True	0.0	942	0	1.0	1.0	0.0	1	left	1.0	1.0	1.0	0	-0.08	blockFiles/set_25/main_safe/rightBlue\GB_RB_2.xlsx
32	main_safe	True	0.0	942	0	1.0	1.0	0.0	1	left	1.0	1.0	1.0	0	-0.08	blockFiles/set_25/main_safe/rightBlue\GB_RB_2.xlsx
33	main_safe	True	0.0	942	0	1.0	1.0	1.0	1	right	2.0	1.0	1.0	1	0.08	blockFiles/set_25/main_safe/rightBlue\GB_RB_2.xlsx
34	main_safe	True	0.0	942	0	1.0	1.0	1.0	1	right	2.0	1.0	1.0	1	0.08	blockFiles/set_25/main_safe/rightBlue\GB_RB_2.xlsx
35	main_safe	True	0.0	942	0	1.0	1.0	1.0	1	right	2.0	1.0	1.0	1	0.08	blockFiles/set_25/main_safe/rightBlue\GB_RB_2.xlsx
36	main_safe	True	0.0	942	0	1.0	1.0	0.0	1	left	1.0	1.0	1.0	0	-0.08	blockFiles/set_25/main_safe/rightBlue\GB_RB_2.xlsx
37	main_safe	True	0.0	942	0	1.0	1.0	0.0	1	left	2.0	0.0	0.0	0	-0.08	blockFiles/set_25/main_safe/rightBlue\GB_RB_2.xlsx
38	main_safe	True	0.0	942	0	1.0	1.0	0.0	1	left	1.0	1.0	1.0	0	-0.08	blockFiles/set_25/main_safe/rightBlue\GB_RB_2.xlsx
39	main_safe	True	0.0	942	0	1.0	1.0	0.0	1	left	1.0	1.0	1.0	0	-0.08	blockFiles/set_25/main_safe/rightBlue\GB_RB_2.xlsx
40	main_safe	True	0.0	942	0	1.0	1.0	0.0	1	left	1.0	1.0	1.0	0	-0.08	blockFiles/set_25/main_safe/rightBlue\GB_RB_2.xlsx
41	main_safe	True	0.0	942	0	1.0	1.0	1.0	1	right	2.0	0.0	1.0	1	0.08	blockFiles/set_25/main_safe/rightBlue\GB_RB_2.xlsx
42	main_safe	True	0.0	942	0	1.0	1.0	1.0	1	right	2.0	1.0	1.0	1	0.08	blockFiles/set_25/main_safe/rightBlue\GB_RB_2.xlsx
43	main_safe	True	0.0	942	0	1.0	1.0	0.0	1	left	1.0	0.0	1.0	0	-0.08	blockFiles/set_25/main_safe/rightBlue\GB_RB_2.xlsx
44	main_safe	True	0.0	942	0	1.0	1.0	1.0	1	right	2.0	1.0	1.0	1	0.08	blockFiles/set_25/main_safe/rightBlue\GB_RB_2.xlsx
45	main_safe	True	0.0	942	0	1.0	1.0	0.0	1	left	1.0	0.0	1.0	0	-0.08	blockFiles/set_25/main_safe/rightBlue\GB_RB_2.xlsx
46	main_safe	True	0.0	942	0	1.0	1.0	1.0	1	right	2.0	1.0	1.0	1	0.08	blockFiles/set_25/main_safe/rightBlue\GB_RB_2.xlsx
47	main_safe	True	0.0	942	0	1.0	1.0	0.0	1	left	1.0	1.0	1.0	0	-0.08	blockFiles/set_25/main_safe/rightBlue\GB_RB_2.xlsx
48	main_safe	True	0.0	942	0	1.0	1.0	1.0	1	right	2.0	1.0	1.0	1	0.08	blockFiles/set_25/main_safe/rightBlue\GB_RB_2.xlsx
49	main_safe	True	0.0	942	0	1.0	1.0	1.0	1	right	2.0	0.0	1.0	1	0.08	blockFiles/set_25/main_safe/rightBlue\GB_RB_2.xlsx
50	main_safe	True	0.0	942	0	1.0	1.0	1.0	1	right	2.0	1.0	1.0	1	0.08	blockFiles/set_25/main_safe/rightBlue\GB_RB_2.xlsx
51	main_safe	True	0.0	942	0	1.0	1.0	0.0	1	left	1.0	0.0	1.0	0	-0.08	blockFiles/set_25/main_safe/rightBlue\GB_RB_2.xlsx
52	main_safe	True	1.0	942	0	2.0	2.0	0.0	0	left	n/a	0.0	n/a	1	0.08	blockFiles/set_25/main_safe/leftBlue\GB_LB_1.xlsx
53	main_safe	True	0.0	942	0	2.0	2.0	0.0	1	left	2.0	1.0	1.0	0	-0.08	blockFiles/set_25/main_safe/leftBlue\GB_LB_1.xlsx
54	main_safe	True	0.0	942	0	2.0	2.0	1.0	1	right	1.0	1.0	1.0	1	0.08	blockFiles/set_25/main_safe/leftBlue\GB_LB_1.xlsx
55	main_safe	True	0.0	942	0	2.0	2.0	1.0	1	right	1.0	0.0	1.0	1	0.08	blockFiles/set_25/main_safe/leftBlue\GB_LB_1.xlsx
56	main_safe	True	0.0	942	0	2.0	2.0	1.0	1	right	1.0	1.0	1.0	1	0.08	blockFiles/set_25/main_safe/leftBlue\GB_LB_1.xlsx
57	main_safe	True	0.0	942	0	2.0	2.0	0.0	1	left	2.0	1.0	1.0	0	-0.08	blockFiles/set_25/main_safe/leftBlue\GB_LB_1.xlsx
58	main_safe	True	0.0	942	0	2.0	2.0	0.0	1	left	2.0	1.0	1.0	0	-0.08	blockFiles/set_25/main_safe/leftBlue\GB_LB_1.xlsx
59	main_safe	True	0.0	942	0	2.0	2.0	1.0	1	right	1.0	1.0	1.0	1	0.08	blockFiles/set_25/main_safe/leftBlue\GB_LB_1.xlsx
60	main_safe	True	0.0	942	0	2.0	2.0	0.0	1	left	2.0	1.0	1.0	0	-0.08	blockFiles/set_25/main_safe/leftBlue\GB_LB_1.xlsx
61	main_safe	True	0.0	942	0	2.0	2.0	0.0	1	left	2.0	1.0	1.0	0	-0.08	blockFiles/set_25/main_safe/leftBlue\GB_LB_1.xlsx
62	main_safe	True	0.0	942	0	2.0	2.0	0.0	1	left	2.0	1.0	1.0	0	-0.08	blockFiles/set_25/main_safe/leftBlue\GB_LB_1.xlsx
63	main_safe	True	0.0	942	0	2.0	2.0	1.0	1	right	1.0	0.0	1.0	1	0.08	blockFiles/set_25/main_safe/leftBlue\GB_LB_1.xlsx
64	main_safe	True	0.0	942	0	2.0	2.0	0.0	1	left	2.0	1.0	1.0	0	-0.08	blockFiles/set_25/main_safe/leftBlue\GB_LB_1.xlsx
65	main_safe	True	0.0	942	0	2.0	2.0	0.0	1	left	2.0	1.0	1.0	0	-0.08	blockFiles/set_25/main_safe/leftBlue\GB_LB_1.xlsx
66	main_safe	True	0.0	942	0	2.0	2.0	1.0	1	right	1.0	1.0	1.0	1	0.08	blockFiles/set_25/main_safe/leftBlue\GB_LB_1.xlsx
67	main_safe	True	0.0	942	0	2.0	2.0	0.0	1	left	2.0	1.0	1.0	0	-0.08	blockFiles/set_25/main_safe/leftBlue\GB_LB_1.xlsx
68	main_safe	True	0.0	942	0	2.0	2.0	1.0	1	right	1.0	1.0	1.0	1	0.08	blockFiles/set_25/main_safe/leftBlue\GB_LB_1.xlsx
69	main_safe	True	0.0	942	0	2.0	2.0	1.0	1	right	1.0	1.0	1.0	1	0.08	blockFiles/set_25/main_safe/leftBlue\GB_LB_1.xlsx
70	main_safe	True	0.0	942	0	2.0	2.0	0.0	1	left	2.0	0.0	1.0	0	-0.08	blockFiles/set_25/main_safe/leftBlue\GB_LB_1.xlsx
71	main_safe	True	0.0	942	0	2.0	2.0	1.0	1	right	1.0	1.0	1.0	1	0.08	blockFiles/set_25/main_safe/leftBlue\GB_LB_1.xlsx
72	main_safe	True	0.0	942	0	2.0	2.0	1.0	1	right	1.0	1.0	1.0	1	0.08	blockFiles/set_25/main_safe/leftBlue\GB_LB_1.xlsx
73	main_safe	True	0.0	942	0	2.0	2.0	0.0	1	left	2.0	0.0	1.0	0	-0.08	blockFiles/set_25/main_safe/leftBlue\GB_LB_1.xlsx
74	main_safe	True	0.0	942	0	2.0	2.0	1.0	1	right	1.0	1.0	1.0	1	0.08	blockFiles/set_25/main_safe/leftBlue\GB_LB_1.xlsx
75	main_safe	True	0.0	942	0	2.0	2.0	1.0	1	right	1.0	1.0	1.0	1	0.08	blockFiles/set_25/main_safe/leftBlue\GB_LB_1.xlsx
76	main_safe	True	0.0	942	0	2.0	2.0	0.0	1	left	2.0	0.0	1.0	0	-0.08	blockFiles/set_25/main_safe/leftBlue\GB_LB_1.xlsx
77	main_safe	True	0.0	942	0	2.0	2.0	1.0	1	right	1.0	1.0	1.0	1	0.08	blockFiles/set_25/main_safe/leftBlue\GB_LB_1.xlsx
78	main_safe	True	1.0	942	0	3.0	3.0	n/a	0	None	n/a	0.0	n/a	1	0.08	blockFiles/set_25/main_safe/leftBlue\GB_LB_2.xlsx
79	main_safe	True	0.0	942	0	3.0	3.0	1.0	1	right	1.0	1.0	1.0	1	0.08	blockFiles/set_25/main_safe/leftBlue\GB_LB_2.xlsx
80	main_safe	True	0.0	942	0	3.0	3.0	0.0	1	left	2.0	1.0	1.0	0	-0.08	blockFiles/set_25/main_safe/leftBlue\GB_LB_2.xlsx
81	main_safe	True	0.0	942	0	3.0	3.0	0.0	1	left	2.0	1.0	1.0	0	-0.08	blockFiles/set_25/main_safe/leftBlue\GB_LB_2.xlsx
82	main_safe	True	0.0	942	0	3.0	3.0	0.0	1	left	2.0	1.0	1.0	0	-0.08	blockFiles/set_25/main_safe/leftBlue\GB_LB_2.xlsx
83	main_safe	True	0.0	942	0	3.0	3.0	0.0	1	left	2.0	0.0	1.0	0	-0.08	blockFiles/set_25/main_safe/leftBlue\GB_LB_2.xlsx
84	main_safe	True	0.0	942	0	3.0	3.0	0.0	1	left	2.0	1.0	1.0	0	-0.08	blockFiles/set_25/main_safe/leftBlue\GB_LB_2.xlsx
85	main_safe	True	0.0	942	0	3.0	3.0	1.0	1	right	1.0	1.0	1.0	1	0.08	blockFiles/set_25/main_safe/leftBlue\GB_LB_2.xlsx
86	main_safe	True	0.0	942	0	3.0	3.0	0.0	1	left	2.0	1.0	1.0	0	-0.08	blockFiles/set_25/main_safe/leftBlue\GB_LB_2.xlsx
87	main_safe	True	0.0	942	0	3.0	3.0	1.0	1	right	1.0	1.0	1.0	1	0.08	blockFiles/set_25/main_safe/leftBlue\GB_LB_2.xlsx
88	main_safe	True	1.0	942	0	3.0	3.0	1.0	1	right	n/a	0.0	n/a	1	0.08	blockFiles/set_25/main_safe/leftBlue\GB_LB_2.xlsx
89	main_safe	True	0.0	942	0	3.0	3.0	1.0	1	right	1.0	1.0	1.0	1	0.08	blockFiles/set_25/main_safe/leftBlue\GB_LB_2.xlsx
90	main_safe	True	0.0	942	0	3.0	3.0	0.0	1	left	2.0	1.0	1.0	0	-0.08	blockFiles/set_25/main_safe/leftBlue\GB_LB_2.xlsx
91	main_safe	True	0.0	942	0	3.0	3.0	1.0	1	right	1.0	1.0	1.0	1	0.08	blockFiles/set_25/main_safe/leftBlue\GB_LB_2.xlsx
92	main_safe	True	0.0	942	0	3.0	3.0	1.0	1	right	1.0	0.0	1.0	1	0.08	blockFiles/set_25/main_safe/leftBlue\GB_LB_2.xlsx
93	main_safe	True	0.0	942	0	3.0	3.0	0.0	1	left	2.0	1.0	1.0	0	-0.08	blockFiles/set_25/main_safe/leftBlue\GB_LB_2.xlsx
94	main_safe	True	0.0	942	0	3.0	3.0	1.0	1	right	1.0	1.0	1.0	1	0.08	blockFiles/set_25/main_safe/leftBlue\GB_LB_2.xlsx
95	main_safe	True	0.0	942	0	3.0	3.0	1.0	1	right	1.0	1.0	1.0	1	0.08	blockFiles/set_25/main_safe/leftBlue\GB_LB_2.xlsx
96	main_safe	True	0.0	942	0	3.0	3.0	0.0	1	left	2.0	1.0	1.0	0	-0.08	blockFiles/set_25/main_safe/leftBlue\GB_LB_2.xlsx
97	main_safe	True	0.0	942	0	3.0	3.0	1.0	1	right	2.0	1.0	0.0	1	0.08	blockFiles/set_25/main_safe/leftBlue\GB_LB_2.xlsx
98	main_safe	True	0.0	942	0	3.0	3.0	1.0	1	right	2.0	1.0	0.0	1	0.08	blockFiles/set_25/main_safe/leftBlue\GB_LB_2.xlsx
99	main_safe	True	0.0	942	0	3.0	3.0	0.0	1	left	1.0	0.0	0.0	0	-0.08	blockFiles/set_25/main_safe/leftBlue\GB_LB_2.xlsx
100	main_safe	True	0.0	942	0	3.0	3.0	0.0	1	left	1.0	1.0	0.0	0	-0.08	blockFiles/set_25/main_safe/leftBlue\GB_LB_2.xlsx
101	main_safe	True	0.0	942	0	3.0	3.0	1.0	1	right	2.0	0.0	0.0	1	0.08	blockFiles/set_25/main_safe/leftBlue\GB_LB_2.xlsx
102	main_safe	True	0.0	942	0	3.0	3.0	1.0	1	right	1.0	0.0	1.0	1	0.08	blockFiles/set_25/main_safe/leftBlue\GB_LB_2.xlsx
103	main_safe	True	0.0	942	0	3.0	3.0	1.0	1	right	2.0	0.0	0.0	1	0.08	blockFiles/set_25/main_safe/leftBlue\GB_LB_2.xlsx
104	main_safe	True	0.0	942	0	3.0	3.0	1.0	1	right	1.0	1.0	1.0	1	0.08	blockFiles/set_25/main_safe/leftBlue\GB_LB_2.xlsx
105	main_safe	True	1.0	942	0	4.0	4.0	0.0	1	left	n/a	0.0	n/a	0	-0.08	blockFiles/set_25/main_safe/leftBlue\GB_LB_3.xlsx
106	main_safe	True	0.0	942	0	4.0	4.0	0.0	1	left	2.0	1.0	1.0	0	-0.08	blockFiles/set_25/main_safe/leftBlue\GB_LB_3.xlsx
107	main_safe	True	0.0	942	0	4.0	4.0	0.0	1	left	2.0	1.0	1.0	0	-0.08	blockFiles/set_25/main_safe/leftBlue\GB_LB_3.xlsx
108	main_safe	True	0.0	942	0	4.0	4.0	1.0	1	right	1.0	1.0	1.0	1	0.08	blockFiles/set_25/main_safe/leftBlue\GB_LB_3.xlsx
109	main_safe	True	0.0	942	0	4.0	4.0	0.0	1	left	1.0	1.0	0.0	0	-0.08	blockFiles/set_25/main_safe/leftBlue\GB_LB_3.xlsx
110	main_safe	True	0.0	942	0	4.0	4.0	1.0	1	right	2.0	0.0	0.0	1	0.08	blockFiles/set_25/main_safe/leftBlue\GB_LB_3.xlsx
111	main_safe	True	0.0	942	0	4.0	4.0	1.0	1	right	2.0	0.0	0.0	1	0.08	blockFiles/set_25/main_safe/leftBlue\GB_LB_3.xlsx
112	main_safe	True	0.0	942	0	4.0	4.0	0.0	1	left	1.0	0.0	0.0	0	-0.08	blockFiles/set_25/main_safe/leftBlue\GB_LB_3.xlsx
113	main_safe	True	0.0	942	0	4.0	4.0	0.0	1	left	2.0	0.0	1.0	0	-0.08	blockFiles/set_25/main_safe/leftBlue\GB_LB_3.xlsx
114	main_safe	True	0.0	942	0	4.0	4.0	1.0	1	right	1.0	1.0	1.0	1	0.08	blockFiles/set_25/main_safe/leftBlue\GB_LB_3.xlsx
115	main_safe	True	0.0	942	0	4.0	4.0	1.0	1	right	1.0	1.0	1.0	1	0.08	blockFiles/set_25/main_safe/leftBlue\GB_LB_3.xlsx
116	main_safe	True	0.0	942	0	4.0	4.0	0.0	1	left	2.0	1.0	1.0	0	-0.08	blockFiles/set_25/main_safe/leftBlue\GB_LB_3.xlsx
117	main_safe	True	0.0	942	0	4.0	4.0	1.0	1	right	1.0	1.0	1.0	1	0.08	blockFiles/set_25/main_safe/leftBlue\GB_LB_3.xlsx
118	main_safe	True	0.0	942	0	4.0	4.0	0.0	1	left	2.0	1.0	1.0	0	-0.08	blockFiles/set_25/main_safe/leftBlue\GB_LB_3.xlsx
119	main_safe	True	0.0	942	0	4.0	4.0	0.0	1	left	2.0	1.0	1.0	0	-0.08	blockFiles/set_25/main_safe/leftBlue\GB_LB_3.xlsx
120	main_safe	True	0.0	942	0	4.0	4.0	1.0	1	right	1.0	1.0	1.0	1	0.08	blockFiles/set_25/main_safe/leftBlue\GB_LB_3.xlsx
121	main_safe	True	0.0	942	0	4.0	4.0	1.0	1	right	2.0	0.0	0.0	1	0.08	blockFiles/set_25/main_safe/leftBlue\GB_LB_3.xlsx
122	main_safe	True	0.0	942	0	4.0	4.0	0.0	1	left	2.0	1.0	1.0	0	-0.08	blockFiles/set_25/main_safe/leftBlue\GB_LB_3.xlsx
123	main_safe	True	0.0	942	0	4.0	4.0	0.0	1	left	2.0	1.0	1.0	0	-0.08	blockFiles/set_25/main_safe/leftBlue\GB_LB_3.xlsx
124	main_safe	True	0.0	942	0	4.0	4.0	0.0	1	left	2.0	0.0	1.0	0	-0.08	blockFiles/set_25/main_safe/leftBlue\GB_LB_3.xlsx
125	main_safe	True	0.0	942	0	4.0	4.0	0.0	1	left	2.0	0.0	1.0	0	-0.08	blockFiles/set_25/main_safe/leftBlue\GB_LB_3.xlsx
126	main_safe	True	0.0	942	0	4.0	4.0	1.0	1	right	2.0	0.0	0.0	1	0.08	blockFiles/set_25/main_safe/leftBlue\GB_LB_3.xlsx
127	main_safe	True	0.0	942	0	4.0	4.0	1.0	1	right	1.0	1.0	1.0	1	0.08	blockFiles/set_25/main_safe/leftBlue\GB_LB_3.xlsx
128	main_safe	True	0.0	942	0	4.0	4.0	1.0	1	right	1.0	0.0	1.0	1	0.08	blockFiles/set_25/main_safe/leftBlue\GB_LB_3.xlsx
129	main_safe	True	0.0	942	0	4.0	4.0	0.0	1	left	2.0	1.0	1.0	0	-0.08	blockFiles/set_25/main_safe/leftBlue\GB_LB_3.xlsx
130	main_safe	True	0.0	942	0	4.0	4.0	0.0	1	left	2.0	1.0	1.0	0	-0.08	blockFiles/set_25/main_safe/leftBlue\GB_LB_3.xlsx
131	main_safe	True	0.0	942	0	5.0	5.0	0.0	0	left	1.0	0.0	0.0	1	0.08	blockFiles/set_25/main_safe/rightBlue\GB_RB_1.xlsx
132	main_safe	True	0.0	942	0	5.0	5.0	0.0	1	left	2.0	0.0	0.0	0	-0.08	blockFiles/set_25/main_safe/rightBlue\GB_RB_1.xlsx
133	main_safe	True	0.0	942	0	5.0	5.0	1.0	1	right	2.0	1.0	1.0	1	0.08	blockFiles/set_25/main_safe/rightBlue\GB_RB_1.xlsx
134	main_safe	True	0.0	942	0	5.0	5.0	0.0	1	left	1.0	0.0	1.0	0	-0.08	blockFiles/set_25/main_safe/rightBlue\GB_RB_1.xlsx
135	main_safe	True	0.0	942	0	5.0	5.0	1.0	1	right	2.0	0.0	1.0	1	0.08	blockFiles/set_25/main_safe/rightBlue\GB_RB_1.xlsx
136	main_safe	True	0.0	942	0	5.0	5.0	0.0	1	left	1.0	1.0	1.0	0	-0.08	blockFiles/set_25/main_safe/rightBlue\GB_RB_1.xlsx
137	main_safe	True	0.0	942	0	5.0	5.0	0.0	1	left	1.0	1.0	1.0	0	-0.08	blockFiles/set_25/main_safe/rightBlue\GB_RB_1.xlsx
138	main_safe	True	0.0	942	0	5.0	5.0	0.0	1	left	1.0	0.0	1.0	0	-0.08	blockFiles/set_25/main_safe/rightBlue\GB_RB_1.xlsx
139	main_safe	True	0.0	942	0	5.0	5.0	0.0	1	left	1.0	1.0	1.0	0	-0.08	blockFiles/set_25/main_safe/rightBlue\GB_RB_1.xlsx
140	main_safe	True	0.0	942	0	5.0	5.0	1.0	1	right	2.0	1.0	1.0	1	0.08	blockFiles/set_25/main_safe/rightBlue\GB_RB_1.xlsx
141	main_safe	True	0.0	942	0	5.0	5.0	1.0	1	right	2.0	1.0	1.0	1	0.08	blockFiles/set_25/main_safe/rightBlue\GB_RB_1.xlsx
142	main_safe	True	0.0	942	0	5.0	5.0	1.0	1	right	2.0	1.0	1.0	1	0.08	blockFiles/set_25/main_safe/rightBlue\GB_RB_1.xlsx
143	main_safe	True	0.0	942	0	5.0	5.0	1.0	1	right	2.0	1.0	1.0	1	0.08	blockFiles/set_25/main_safe/rightBlue\GB_RB_1.xlsx
144	main_safe	True	0.0	942	0	5.0	5.0	1.0	1	right	2.0	1.0	1.0	1	0.08	blockFiles/set_25/main_safe/rightBlue\GB_RB_1.xlsx
145	main_safe	True	0.0	942	0	5.0	5.0	0.0	1	left	1.0	1.0	1.0	0	-0.08	blockFiles/set_25/main_safe/rightBlue\GB_RB_1.xlsx
146	main_safe	True	0.0	942	0	5.0	5.0	1.0	1	right	2.0	1.0	1.0	1	0.08	blockFiles/set_25/main_safe/rightBlue\GB_RB_1.xlsx
147	main_safe	True	0.0	942	0	5.0	5.0	1.0	1	right	1.0	0.0	0.0	1	0.08	blockFiles/set_25/main_safe/rightBlue\GB_RB_1.xlsx
148	main_safe	True	0.0	942	0	5.0	5.0	0.0	1	left	2.0	0.0	0.0	0	-0.08	blockFiles/set_25/main_safe/rightBlue\GB_RB_1.xlsx
149	main_safe	True	0.0	942	0	5.0	5.0	1.0	1	right	2.0	0.0	1.0	1	0.08	blockFiles/set_25/main_safe/rightBlue\GB_RB_1.xlsx
150	main_safe	True	0.0	942	0	5.0	5.0	1.0	1	right	2.0	1.0	1.0	1	0.08	blockFiles/set_25/main_safe/rightBlue\GB_RB_1.xlsx
151	main_safe	True	0.0	942	0	5.0	5.0	0.0	1	left	1.0	1.0	1.0	0	-0.08	blockFiles/set_25/main_safe/rightBlue\GB_RB_1.xlsx
152	main_safe	True	0.0	942	0	5.0	5.0	0.0	1	left	1.0	1.0	1.0	0	-0.08	blockFiles/set_25/main_safe/rightBlue\GB_RB_1.xlsx
153	main_safe	True	0.0	942	0	5.0	5.0	1.0	1	right	2.0	1.0	1.0	1	0.08	blockFiles/set_25/main_safe/rightBlue\GB_RB_1.xlsx
154	main_safe	True	0.0	942	0	5.0	5.0	0.0	1	left	1.0	1.0	1.0	0	-0.08	blockFiles/set_25/main_safe/rightBlue\GB_RB_1.xlsx
155	main_safe	True	0.0	942	0	5.0	5.0	0.0	1	left	1.0	0.0	1.0	0	-0.08	blockFiles/set_25/main_safe/rightBlue\GB_RB_1.xlsx
156	patches	True	n/a	942	0	n/a	n/a	0.0	0	left	n/a	n/a	n/a	1	0.017186365071700002	blockFiles/set_25/main_PD/GB_runPatches1.xlsx
157	patches	True	n/a	942	0	n/a	n/a	0.0	1	left	n/a	n/a	n/a	0	-0.051835099849800004	blockFiles/set_25/main_PD/GB_runPatches1.xlsx
158	patches	True	n/a	942	0	n/a	n/a	0.0	1	left	n/a	n/a	n/a	0	-0.07269610362130001	blockFiles/set_25/main_PD/GB_runPatches1.xlsx
159	patches	True	n/a	942	0	n/a	n/a	0.0	1	left	n/a	n/a	n/a	0	-0.035698981583099997	blockFiles/set_25/main_PD/GB_runPatches1.xlsx
160	patches	True	n/a	942	0	n/a	n/a	0.0	1	left	n/a	n/a	n/a	0	-0.0578094056435	blockFiles/set_25/main_PD/GB_runPatches1.xlsx
161	patches	True	n/a	942	0	n/a	n/a	0.0	1	left	n/a	n/a	n/a	0	-0.00463462650776	blockFiles/set_25/main_PD/GB_runPatches1.xlsx
162	patches	True	n/a	942	0	n/a	n/a	0.0	1	left	n/a	n/a	n/a	0	-0.0178630552255	blockFiles/set_25/main_PD/GB_runPatches1.xlsx
163	patches	True	n/a	942	0	n/a	n/a	0.0	0	left	n/a	n/a	n/a	1	0.00582994868979	blockFiles/set_25/main_PD/GB_runPatches1.xlsx
164	patches	True	n/a	942	0	n/a	n/a	n/a	0	None	n/a	n/a	n/a	1	0.068436721731	blockFiles/set_25/main_PD/GB_runPatches1.xlsx
165	patches	True	n/a	942	0	n/a	n/a	0.0	0	left	n/a	n/a	n/a	1	0.045249472055599996	blockFiles/set_25/main_PD/GB_runPatches1.xlsx
166	patches	True	n/a	942	0	n/a	n/a	0.0	1	left	n/a	n/a	n/a	0	-0.052374087590699996	blockFiles/set_25/main_PD/GB_runPatches1.xlsx
167	patches	True	n/a	942	0	n/a	n/a	0.0	1	left	n/a	n/a	n/a	0	-0.05930080672730001	blockFiles/set_25/main_PD/GB_runPatches1.xlsx
168	patches	True	n/a	942	0	n/a	n/a	0.0	0	left	n/a	n/a	n/a	1	0.0151419643126	blockFiles/set_25/main_PD/GB_runPatches1.xlsx
169	patches	True	n/a	942	0	n/a	n/a	0.0	1	left	n/a	n/a	n/a	0	-0.0664653229155	blockFiles/set_25/main_PD/GB_runPatches1.xlsx
170	patches	True	n/a	942	0	n/a	n/a	0.0	1	left	n/a	n/a	n/a	0	-0.0571411501244	blockFiles/set_25/main_PD/GB_runPatches1.xlsx
171	patches	True	n/a	942	0	n/a	n/a	0.0	1	left	n/a	n/a	n/a	0	-0.0170536653697	blockFiles/set_25/main_PD/GB_runPatches1.xlsx
172	patches	True	n/a	942	0	n/a	n/a	0.0	1	left	n/a	n/a	n/a	0	-0.0394705376774	blockFiles/set_25/main_PD/GB_runPatches1.xlsx
173	patches	True	n/a	942	0	n/a	n/a	0.0	1	left	n/a	n/a	n/a	0	-0.07904830854389999	blockFiles/set_25/main_PD/GB_runPatches1.xlsx
174	patches	True	n/a	942	0	n/a	n/a	0.0	0	left	n/a	n/a	n/a	1	0.043069765009000005	blockFiles/set_25/main_PD/GB_runPatches1.xlsx
175	patches	True	n/a	942	0	n/a	n/a	0.0	0	left	n/a	n/a	n/a	1	0.0262452674098	blockFiles/set_25/main_PD/GB_runPatches1.xlsx
176	patches	True	n/a	942	0	n/a	n/a	1.0	0	right	n/a	n/a	n/a	0	-0.0603049955517	blockFiles/set_25/main_PD/GB_runPatches1.xlsx
177	patches	True	n/a	942	0	n/a	n/a	1.0	1	right	n/a	n/a	n/a	1	0.0680019506626	blockFiles/set_25/main_PD/GB_runPatches1.xlsx
178	patches	True	n/a	942	0	n/a	n/a	1.0	0	right	n/a	n/a	n/a	0	-0.0196997719258	blockFiles/set_25/main_PD/GB_runPatches1.xlsx
179	patches	True	n/a	942	0	n/a	n/a	1.0	1	right	n/a	n/a	n/a	1	0.0242304920591	blockFiles/set_25/main_PD/GB_runPatches1.xlsx
180	patches	True	n/a	942	0	n/a	n/a	1.0	1	right	n/a	n/a	n/a	1	0.00926171723753	blockFiles/set_25/main_PD/GB_runPatches1.xlsx
181	patches	True	n/a	942	0	n/a	n/a	1.0	1	right	n/a	n/a	n/a	1	0.0404064990021	blockFiles/set_25/main_PD/GB_runPatches1.xlsx
182	patches	True	n/a	942	0	n/a	n/a	1.0	1	right	n/a	n/a	n/a	1	0.0725625487044	blockFiles/set_25/main_PD/GB_runPatches1.xlsx
183	patches	True	n/a	942	0	n/a	n/a	0.0	1	left	n/a	n/a	n/a	0	-0.0375194039382	blockFiles/set_25/main_PD/GB_runPatches1.xlsx
184	patches	True	n/a	942	0	n/a	n/a	1.0	1	right	n/a	n/a	n/a	1	0.0353922977485	blockFiles/set_25/main_PD/GB_runPatches1.xlsx
185	patches	True	n/a	942	0	n/a	n/a	1.0	0	right	n/a	n/a	n/a	0	-0.0394995230995	blockFiles/set_25/main_PD/GB_runPatches1.xlsx
186	patches	True	n/a	942	0	n/a	n/a	1.0	1	right	n/a	n/a	n/a	1	0.06689995007590001	blockFiles/set_25/main_PD/GB_runPatches1.xlsx
187	patches	True	n/a	942	0	n/a	n/a	1.0	1	right	n/a	n/a	n/a	1	0.0591962003149	blockFiles/set_25/main_PD/GB_runPatches1.xlsx
188	patches	True	n/a	942	0	n/a	n/a	1.0	1	right	n/a	n/a	n/a	1	0.00686353791505	blockFiles/set_25/main_PD/GB_runPatches1.xlsx
189	patches	True	n/a	942	0	n/a	n/a	1.0	1	right	n/a	n/a	n/a	1	0.067115056701	blockFiles/set_25/main_PD/GB_runPatches1.xlsx
190	patches	True	n/a	942	0	n/a	n/a	1.0	0	right	n/a	n/a	n/a	0	-0.04250001035630001	blockFiles/set_25/main_PD/GB_runPatches1.xlsx
191	patches	True	n/a	942	0	n/a	n/a	1.0	0	right	n/a	n/a	n/a	0	-0.065884973295	blockFiles/set_25/main_PD/GB_runPatches1.xlsx
192	patches	True	n/a	942	0	n/a	n/a	1.0	0	right	n/a	n/a	n/a	0	-0.0217556553707	blockFiles/set_25/main_PD/GB_runPatches1.xlsx
193	patches	True	n/a	942	0	n/a	n/a	0.0	0	left	n/a	n/a	n/a	1	0.0236362747103	blockFiles/set_25/main_PD/GB_runPatches1.xlsx
194	patches	True	n/a	942	0	n/a	n/a	0.0	0	left	n/a	n/a	n/a	1	0.044989390466400006	blockFiles/set_25/main_PD/GB_runPatches1.xlsx
195	patches	True	n/a	942	0	n/a	n/a	1.0	1	right	n/a	n/a	n/a	1	0.0707004954852	blockFiles/set_25/main_PD/GB_runPatches1.xlsx
196	patches	True	n/a	942	0	n/a	n/a	1.0	1	right	n/a	n/a	n/a	1	0.0359425550885	blockFiles/set_25/main_PD/GB_runPatches1.xlsx
197	patches	True	n/a	942	0	n/a	n/a	0.0	1	left	n/a	n/a	n/a	0	-0.06348273901269999	blockFiles/set_25/main_PD/GB_runPatches1.xlsx
198	patches	True	n/a	942	0	n/a	n/a	1.0	0	right	n/a	n/a	n/a	0	-0.000578506458551	blockFiles/set_25/main_PD/GB_runPatches1.xlsx
199	patches	True	n/a	942	0	n/a	n/a	0.0	1	left	n/a	n/a	n/a	0	-0.07927764927969999	blockFiles/set_25/main_PD/GB_runPatches1.xlsx
200	patches	True	n/a	942	0	n/a	n/a	0.0	0	left	n/a	n/a	n/a	1	0.0416376014799	blockFiles/set_25/main_PD/GB_runPatches1.xlsx
201	patches	True	n/a	942	0	n/a	n/a	0.0	1	left	n/a	n/a	n/a	0	-0.013115463815600002	blockFiles/set_25/main_PD/GB_runPatches1.xlsx
202	patches	True	n/a	942	0	n/a	n/a	1.0	0	right	n/a	n/a	n/a	0	-0.038100771587300006	blockFiles/set_25/main_PD/GB_runPatches1.xlsx
203	patches	True	n/a	942	0	n/a	n/a	0.0	1	left	n/a	n/a	n/a	0	-0.0236905969307	blockFiles/set_25/main_PD/GB_runPatches1.xlsx
204	patches	True	n/a	942	0	n/a	n/a	0.0	1	left	n/a	n/a	n/a	0	-0.0552072168887	blockFiles/set_25/main_PD/GB_runPatches1.xlsx
205	patches	True	n/a	942	0	n/a	n/a	0.0	1	left	n/a	n/a	n/a	0	-0.0550921626762	blockFiles/set_25/main_PD/GB_runPatches1.xlsx
206	patches	True	n/a	942	0	n/a	n/a	0.0	1	left	n/a	n/a	n/a	0	-0.00800523305312	blockFiles/set_25/main_PD/GB_runPatches1.xlsx
207	patches	True	n/a	942	0	n/a	n/a	0.0	0	left	n/a	n/a	n/a	1	0.0580988898128	blockFiles/set_25/main_PD/GB_runPatches1.xlsx
208	patches	True	n/a	942	0	n/a	n/a	0.0	0	left	n/a	n/a	n/a	1	0.0476755333133	blockFiles/set_25/main_PD/GB_runPatches1.xlsx
209	patches	True	n/a	942	0	n/a	n/a	0.0	0	left	n/a	n/a	n/a	1	0.0407662373222	blockFiles/set_25/main_PD/GB_runPatches1.xlsx
210	patches	True	n/a	942	0	n/a	n/a	1.0	1	right	n/a	n/a	n/a	1	0.048459947817	blockFiles/set_25/main_PD/GB_runPatches1.xlsx
211	patches	True	n/a	942	0	n/a	n/a	1.0	0	right	n/a	n/a	n/a	0	-0.00530252926052	blockFiles/set_25/main_PD/GB_runPatches1.xlsx
212	patches	True	n/a	942	0	n/a	n/a	1.0	1	right	n/a	n/a	n/a	1	0.0241603769362	blockFiles/set_25/main_PD/GB_runPatches1.xlsx
213	patches	True	n/a	942	0	n/a	n/a	0.0	1	left	n/a	n/a	n/a	0	-0.00983793510124	blockFiles/set_25/main_PD/GB_runPatches1.xlsx
214	patches	True	n/a	942	0	n/a	n/a	0.0	0	left	n/a	n/a	n/a	1	0.038615876529399996	blockFiles/set_25/main_PD/GB_runPatches1.xlsx
215	patches	True	n/a	942	0	n/a	n/a	1.0	1	right	n/a	n/a	n/a	1	0.0572286849283	blockFiles/set_25/main_PD/GB_runPatches1.xlsx
216	patches	True	n/a	942	0	n/a	n/a	1.0	1	right	n/a	n/a	n/a	1	0.079198674988	blockFiles/set_25/main_PD/GB_runPatches1.xlsx
217	patches	True	n/a	942	0	n/a	n/a	1.0	1	right	n/a	n/a	n/a	1	0.0424872081541	blockFiles/set_25/main_PD/GB_runPatches1.xlsx
218	patches	True	n/a	942	0	n/a	n/a	0.0	1	left	n/a	n/a	n/a	0	-0.04815021902319999	blockFiles/set_25/main_PD/GB_runPatches1.xlsx
219	patches	True	n/a	942	0	n/a	n/a	0.0	1	left	n/a	n/a	n/a	0	-0.03449152415619999	blockFiles/set_25/main_PD/GB_runPatches1.xlsx
220	patches	True	n/a	942	0	n/a	n/a	0.0	1	left	n/a	n/a	n/a	0	-0.0114373303764	blockFiles/set_25/main_PD/GB_runPatches1.xlsx
221	patches	True	n/a	942	0	n/a	n/a	1.0	1	right	n/a	n/a	n/a	1	0.0129711483605	blockFiles/set_25/main_PD/GB_runPatches1.xlsx
222	patches	True	n/a	942	0	n/a	n/a	1.0	1	right	n/a	n/a	n/a	1	0.0388485940173	blockFiles/set_25/main_PD/GB_runPatches1.xlsx
223	patches	True	n/a	942	0	n/a	n/a	0.0	0	left	n/a	n/a	n/a	1	0.00269798517227	blockFiles/set_25/main_PD/GB_runPatches1.xlsx
224	patches	True	n/a	942	0	n/a	n/a	0.0	1	left	n/a	n/a	n/a	0	-0.049487721677900005	blockFiles/set_25/main_PD/GB_runPatches1.xlsx
225	patches	True	n/a	942	0	n/a	n/a	1.0	1	right	n/a	n/a	n/a	1	0.054016795475000004	blockFiles/set_25/main_PD/GB_runPatches1.xlsx
226	patches	True	n/a	942	0	n/a	n/a	1.0	1	right	n/a	n/a	n/a	1	0.0431313453056	blockFiles/set_25/main_PD/GB_runPatches1.xlsx
227	patches	True	n/a	942	0	n/a	n/a	0.0	1	left	n/a	n/a	n/a	0	-0.028494049385199997	blockFiles/set_25/main_PD/GB_runPatches1.xlsx
228	patches	True	n/a	942	0	n/a	n/a	0.0	0	left	n/a	n/a	n/a	1	0.0116510651074	blockFiles/set_25/main_PD/GB_runPatches1.xlsx
229	patches	True	n/a	942	0	n/a	n/a	0.0	1	left	n/a	n/a	n/a	0	-0.035866169855	blockFiles/set_25/main_PD/GB_runPatches1.xlsx
230	patches	True	n/a	942	0	n/a	n/a	1.0	1	right	n/a	n/a	n/a	1	0.0753385329992	blockFiles/set_25/main_PD/GB_runPatches1.xlsx
231	patches	True	n/a	942	0	n/a	n/a	1.0	1	right	n/a	n/a	n/a	1	0.0537385170534	blockFiles/set_25/main_PD/GB_runPatches1.xlsx
232	patches	True	n/a	942	0	n/a	n/a	1.0	1	right	n/a	n/a	n/a	1	0.029375808686000003	blockFiles/set_25/main_PD/GB_runPatches1.xlsx
233	patches	True	n/a	942	0	n/a	n/a	1.0	1	right	n/a	n/a	n/a	1	0.0787057772651	blockFiles/set_25/main_PD/GB_runPatches1.xlsx
234	patches	True	n/a	942	0	n/a	n/a	1.0	1	right	n/a	n/a	n/a	1	0.0026972143724599998	blockFiles/set_25/main_PD/GB_runPatches1.xlsx
235	patches	True	n/a	942	0	n/a	n/a	0.0	1	left	n/a	n/a	n/a	0	-0.00186025517061	blockFiles/set_25/main_PD/GB_runPatches1.xlsx
236	patches	True	n/a	942	0	n/a	n/a	n/a	0	None	n/a	n/a	n/a	1	0.04621690412980001	blockFiles/set_25/main_PD/GB_runPatches1.xlsx
237	patches	True	n/a	942	0	n/a	n/a	0.0	1	left	n/a	n/a	n/a	0	-0.014836885239899998	blockFiles/set_25/main_PD/GB_runPatches1.xlsx
238	patches	True	n/a	942	0	n/a	n/a	1.0	1	right	n/a	n/a	n/a	1	0.0625526538119	blockFiles/set_25/main_PD/GB_runPatches1.xlsx
239	patches	True	n/a	942	0	n/a	n/a	1.0	0	right	n/a	n/a	n/a	0	-0.0420359274372	blockFiles/set_25/main_PD/GB_runPatches1.xlsx
240	patches	True	n/a	942	0	n/a	n/a	0.0	1	left	n/a	n/a	n/a	0	-0.0661793804541	blockFiles/set_25/main_PD/GB_runPatches1.xlsx
241	patches	True	n/a	942	0	n/a	n/a	1.0	0	right	n/a	n/a	n/a	0	-0.0563726872951	blockFiles/set_25/main_PD/GB_runPatches1.xlsx
242	patches	True	n/a	942	0	n/a	n/a	0.0	0	left	n/a	n/a	n/a	1	0.0307982289977	blockFiles/set_25/main_PD/GB_runPatches1.xlsx
243	patches	True	n/a	942	0	n/a	n/a	1.0	1	right	n/a	n/a	n/a	1	0.0409104591981	blockFiles/set_25/main_PD/GB_runPatches1.xlsx
244	patches	True	n/a	942	0	n/a	n/a	1.0	1	right	n/a	n/a	n/a	1	0.0411125261337	blockFiles/set_25/main_PD/GB_runPatches1.xlsx
245	patches	True	n/a	942	0	n/a	n/a	0.0	1	left	n/a	n/a	n/a	0	-0.0426422130316	blockFiles/set_25/main_PD/GB_runPatches1.xlsx
246	patches	True	n/a	942	0	n/a	n/a	0.0	1	left	n/a	n/a	n/a	0	-0.0686851711757	blockFiles/set_25/main_PD/GB_runPatches1.xlsx
247	patches	True	n/a	942	0	n/a	n/a	1.0	0	right	n/a	n/a	n/a	0	-0.0203920708969	blockFiles/set_25/main_PD/GB_runPatches1.xlsx
248	patches	True	n/a	942	0	n/a	n/a	0.0	1	left	n/a	n/a	n/a	0	-0.00163816876709	blockFiles/set_25/main_PD/GB_runPatches1.xlsx
249	patches	True	n/a	942	0	n/a	n/a	1.0	0	right	n/a	n/a	n/a	0	-0.0480842504837	blockFiles/set_25/main_PD/GB_runPatches1.xlsx
250	patches	True	n/a	942	0	n/a	n/a	0.0	1	left	n/a	n/a	n/a	0	-0.037987453863	blockFiles/set_25/main_PD/GB_runPatches1.xlsx
251	patches	True	n/a	942	0	n/a	n/a	1.0	1	right	n/a	n/a	n/a	1	0.013875894453399998	blockFiles/set_25/main_PD/GB_runPatches1.xlsx
252	patches	True	n/a	942	0	n/a	n/a	1.0	1	right	n/a	n/a	n/a	1	0.0665189894661	blockFiles/set_25/main_PD/GB_runPatches1.xlsx
253	patches	True	n/a	942	0	n/a	n/a	0.0	1	left	n/a	n/a	n/a	0	-0.07578549657019999	blockFiles/set_25/main_PD/GB_runPatches1.xlsx
254	patches	True	n/a	942	0	n/a	n/a	1.0	0	right	n/a	n/a	n/a	0	-0.0192227211408	blockFiles/set_25/main_PD/GB_runPatches1.xlsx
255	patches	True	n/a	942	0	n/a	n/a	1.0	1	right	n/a	n/a	n/a	1	0.0788944728673	blockFiles/set_25/main_PD/GB_runPatches1.xlsx
256	main_unc	True	0.0	942	0	0.0	0.0	0.0	0	left	1.0	0.0	0.0	1	0.0021721598505999996	blockFiles/set_25/main_unc/rightBlue\GB_RB_5.xlsx
257	main_unc	True	0.0	942	0	0.0	0.0	0.0	1	left	2.0	0.0	0.0	0	-0.028821242880099997	blockFiles/set_25/main_unc/rightBlue\GB_RB_5.xlsx
258	main_unc	True	0.0	942	0	0.0	0.0	1.0	1	right	1.0	0.0	0.0	1	0.0334820877388	blockFiles/set_25/main_unc/rightBlue\GB_RB_5.xlsx
259	main_unc	True	0.0	942	0	0.0	0.0	0.0	1	left	1.0	0.0	1.0	0	-0.043418549802199995	blockFiles/set_25/main_unc/rightBlue\GB_RB_5.xlsx
260	main_unc	True	0.0	942	0	0.0	0.0	0.0	1	left	2.0	0.0	0.0	0	-0.0663853521645	blockFiles/set_25/main_unc/rightBlue\GB_RB_5.xlsx
261	main_unc	True	0.0	942	0	0.0	0.0	1.0	1	right	2.0	1.0	1.0	1	0.0572105825134	blockFiles/set_25/main_unc/rightBlue\GB_RB_5.xlsx
262	main_unc	True	0.0	942	0	0.0	0.0	0.0	0	left	1.0	1.0	0.0	1	0.006792328059669999	blockFiles/set_25/main_unc/rightBlue\GB_RB_5.xlsx
263	main_unc	True	0.0	942	0	0.0	0.0	0.0	1	left	1.0	1.0	1.0	0	-0.07301012160260001	blockFiles/set_25/main_unc/rightBlue\GB_RB_5.xlsx
264	main_unc	True	0.0	942	0	0.0	0.0	0.0	1	left	1.0	1.0	1.0	0	-0.0305261335336	blockFiles/set_25/main_unc/rightBlue\GB_RB_5.xlsx
265	main_unc	True	0.0	942	0	0.0	0.0	0.0	1	left	1.0	1.0	1.0	0	-0.042150782030100004	blockFiles/set_25/main_unc/rightBlue\GB_RB_5.xlsx
266	main_unc	True	0.0	942	0	0.0	0.0	0.0	1	left	1.0	1.0	1.0	0	-0.016693540457600003	blockFiles/set_25/main_unc/rightBlue\GB_RB_5.xlsx
267	main_unc	True	0.0	942	0	0.0	0.0	0.0	0	left	1.0	0.0	0.0	1	0.0187635621801	blockFiles/set_25/main_unc/rightBlue\GB_RB_5.xlsx
268	main_unc	True	0.0	942	0	0.0	0.0	0.0	1	left	1.0	1.0	1.0	0	-0.0179955974407	blockFiles/set_25/main_unc/rightBlue\GB_RB_5.xlsx
269	main_unc	True	0.0	942	0	0.0	0.0	0.0	1	left	1.0	1.0	1.0	0	-0.0440764286369	blockFiles/set_25/main_unc/rightBlue\GB_RB_5.xlsx
270	main_unc	True	0.0	942	0	0.0	0.0	1.0	1	right	2.0	1.0	1.0	1	0.0703808989935	blockFiles/set_25/main_unc/rightBlue\GB_RB_5.xlsx
271	main_unc	True	0.0	942	0	0.0	0.0	1.0	1	right	2.0	1.0	1.0	1	0.0301743493974	blockFiles/set_25/main_unc/rightBlue\GB_RB_5.xlsx
272	main_unc	True	0.0	942	0	0.0	0.0	0.0	0	left	1.0	0.0	0.0	1	0.005777439549569999	blockFiles/set_25/main_unc/rightBlue\GB_RB_5.xlsx
273	main_unc	True	0.0	942	0	0.0	0.0	0.0	0	left	1.0	1.0	0.0	1	0.0430446251668	blockFiles/set_25/main_unc/rightBlue\GB_RB_5.xlsx
274	main_unc	True	0.0	942	0	0.0	0.0	0.0	1	left	1.0	1.0	1.0	0	-0.0221656875685	blockFiles/set_25/main_unc/rightBlue\GB_RB_5.xlsx
275	main_unc	True	0.0	942	0	0.0	0.0	1.0	1	right	2.0	1.0	1.0	1	0.0677322775498	blockFiles/set_25/main_unc/rightBlue\GB_RB_5.xlsx
276	main_unc	True	0.0	942	0	0.0	0.0	0.0	1	left	1.0	0.0	1.0	0	-0.0788129491545	blockFiles/set_25/main_unc/rightBlue\GB_RB_5.xlsx
277	main_unc	True	0.0	942	0	0.0	0.0	1.0	1	right	2.0	1.0	1.0	1	0.0667348008603	blockFiles/set_25/main_unc/rightBlue\GB_RB_5.xlsx
278	main_unc	True	0.0	942	0	0.0	0.0	1.0	1	right	2.0	0.0	1.0	1	0.045223441198500004	blockFiles/set_25/main_unc/rightBlue\GB_RB_5.xlsx
279	main_unc	True	0.0	942	0	0.0	0.0	0.0	0	left	2.0	1.0	1.0	1	0.00469392122701	blockFiles/set_25/main_unc/rightBlue\GB_RB_5.xlsx
280	main_unc	True	0.0	942	0	0.0	0.0	0.0	1	left	1.0	1.0	1.0	0	-0.0148334192112	blockFiles/set_25/main_unc/rightBlue\GB_RB_5.xlsx
281	main_unc	True	0.0	942	0	1.0	1.0	0.0	1	left	2.0	0.0	0.0	0	-0.019295173138400002	blockFiles/set_25/main_unc/rightBlue\GB_RB_2.xlsx
282	main_unc	True	0.0	942	0	1.0	1.0	1.0	1	right	1.0	1.0	0.0	1	0.043496296443	blockFiles/set_25/main_unc/rightBlue\GB_RB_2.xlsx
283	main_unc	True	0.0	942	0	1.0	1.0	0.0	0	left	2.0	1.0	1.0	1	0.030239774528900004	blockFiles/set_25/main_unc/rightBlue\GB_RB_2.xlsx
284	main_unc	True	0.0	942	0	1.0	1.0	0.0	1	left	1.0	1.0	1.0	0	-0.0122776128165	blockFiles/set_25/main_unc/rightBlue\GB_RB_2.xlsx
285	main_unc	True	0.0	942	0	1.0	1.0	0.0	1	left	1.0	1.0	1.0	0	-0.0477420821041	blockFiles/set_25/main_unc/rightBlue\GB_RB_2.xlsx
286	main_unc	True	0.0	942	0	1.0	1.0	0.0	1	left	1.0	1.0	1.0	0	-0.07285542931410001	blockFiles/set_25/main_unc/rightBlue\GB_RB_2.xlsx
287	main_unc	True	0.0	942	0	1.0	1.0	0.0	1	left	1.0	1.0	1.0	0	-0.06997148979460001	blockFiles/set_25/main_unc/rightBlue\GB_RB_2.xlsx
288	main_unc	True	0.0	942	0	1.0	1.0	1.0	1	right	2.0	0.0	1.0	1	0.0370118182711	blockFiles/set_25/main_unc/rightBlue\GB_RB_2.xlsx
289	main_unc	True	0.0	942	0	1.0	1.0	1.0	1	right	1.0	1.0	0.0	1	0.0174218001403	blockFiles/set_25/main_unc/rightBlue\GB_RB_2.xlsx
290	main_unc	True	0.0	942	0	1.0	1.0	0.0	1	left	1.0	1.0	1.0	0	-0.0409637324698	blockFiles/set_25/main_unc/rightBlue\GB_RB_2.xlsx
291	main_unc	True	0.0	942	0	1.0	1.0	0.0	0	left	2.0	1.0	1.0	1	0.0069134987704499995	blockFiles/set_25/main_unc/rightBlue\GB_RB_2.xlsx
292	main_unc	True	0.0	942	0	1.0	1.0	0.0	1	left	1.0	0.0	1.0	0	-0.0644938567653	blockFiles/set_25/main_unc/rightBlue\GB_RB_2.xlsx
293	main_unc	True	0.0	942	0	1.0	1.0	1.0	1	right	2.0	1.0	1.0	1	0.0392899820581	blockFiles/set_25/main_unc/rightBlue\GB_RB_2.xlsx
294	main_unc	True	0.0	942	0	1.0	1.0	0.0	1	left	1.0	1.0	1.0	0	-0.050645736046099996	blockFiles/set_25/main_unc/rightBlue\GB_RB_2.xlsx
295	main_unc	True	0.0	942	0	1.0	1.0	1.0	1	right	2.0	1.0	1.0	1	0.0591150554642	blockFiles/set_25/main_unc/rightBlue\GB_RB_2.xlsx
296	main_unc	True	0.0	942	0	1.0	1.0	0.0	1	left	1.0	1.0	1.0	0	-0.005258112866430001	blockFiles/set_25/main_unc/rightBlue\GB_RB_2.xlsx
297	main_unc	True	0.0	942	0	1.0	1.0	0.0	0	left	1.0	0.0	0.0	1	0.000987329371274	blockFiles/set_25/main_unc/rightBlue\GB_RB_2.xlsx
298	main_unc	True	0.0	942	0	1.0	1.0	1.0	1	right	2.0	1.0	1.0	1	0.033473788872400004	blockFiles/set_25/main_unc/rightBlue\GB_RB_2.xlsx
299	main_unc	True	0.0	942	0	1.0	1.0	0.0	1	left	1.0	1.0	1.0	0	-0.05777458682659999	blockFiles/set_25/main_unc/rightBlue\GB_RB_2.xlsx
300	main_unc	True	0.0	942	0	1.0	1.0	0.0	1	left	1.0	1.0	1.0	0	-0.0555687140301	blockFiles/set_25/main_unc/rightBlue\GB_RB_2.xlsx
301	main_unc	True	0.0	942	0	1.0	1.0	0.0	0	left	1.0	0.0	0.0	1	0.00343964206055	blockFiles/set_25/main_unc/rightBlue\GB_RB_2.xlsx
302	main_unc	True	0.0	942	0	1.0	1.0	0.0	1	left	1.0	0.0	1.0	0	-0.0464294279926	blockFiles/set_25/main_unc/rightBlue\GB_RB_2.xlsx
303	main_unc	True	0.0	942	0	1.0	1.0	1.0	1	right	2.0	1.0	1.0	1	0.040258558150400005	blockFiles/set_25/main_unc/rightBlue\GB_RB_2.xlsx
304	main_unc	True	0.0	942	0	1.0	1.0	0.0	0	left	1.0	0.0	0.0	1	0.0170280540921	blockFiles/set_25/main_unc/rightBlue\GB_RB_2.xlsx
305	main_unc	True	0.0	942	0	1.0	1.0	0.0	1	left	1.0	1.0	1.0	0	-0.0715367391333	blockFiles/set_25/main_unc/rightBlue\GB_RB_2.xlsx
306	main_unc	True	0.0	942	0	2.0	2.0	0.0	1	left	2.0	0.0	1.0	0	-0.0252187458612	blockFiles/set_25/main_unc/leftBlue\GB_LB_5.xlsx
307	main_unc	True	0.0	942	0	2.0	2.0	1.0	1	right	1.0	1.0	1.0	1	0.0359161409363	blockFiles/set_25/main_unc/leftBlue\GB_LB_5.xlsx
308	main_unc	True	0.0	942	0	2.0	2.0	0.0	0	left	2.0	1.0	0.0	1	0.00708010204136	blockFiles/set_25/main_unc/leftBlue\GB_LB_5.xlsx
309	main_unc	True	0.0	942	0	2.0	2.0	0.0	1	left	2.0	1.0	1.0	0	-0.0523092467897	blockFiles/set_25/main_unc/leftBlue\GB_LB_5.xlsx
310	main_unc	True	0.0	942	0	2.0	2.0	0.0	1	left	2.0	0.0	1.0	0	-0.0603949353658	blockFiles/set_25/main_unc/leftBlue\GB_LB_5.xlsx
311	main_unc	True	0.0	942	0	2.0	2.0	0.0	1	left	1.0	1.0	0.0	0	-0.0555421986058	blockFiles/set_25/main_unc/leftBlue\GB_LB_5.xlsx
312	main_unc	True	0.0	942	0	2.0	2.0	0.0	1	left	1.0	0.0	0.0	0	-0.020164936184900003	blockFiles/set_25/main_unc/leftBlue\GB_LB_5.xlsx
313	main_unc	True	0.0	942	0	2.0	2.0	1.0	1	right	2.0	0.0	0.0	1	0.0208808233961	blockFiles/set_25/main_unc/leftBlue\GB_LB_5.xlsx
314	main_unc	True	0.0	942	0	2.0	2.0	1.0	1	right	2.0	0.0	0.0	1	0.0573440444283	blockFiles/set_25/main_unc/leftBlue\GB_LB_5.xlsx
315	main_unc	True	0.0	942	0	2.0	2.0	1.0	1	right	1.0	1.0	1.0	1	0.07079914776610001	blockFiles/set_25/main_unc/leftBlue\GB_LB_5.xlsx
316	main_unc	True	0.0	942	0	2.0	2.0	0.0	1	left	2.0	1.0	1.0	0	-0.00506191076711	blockFiles/set_25/main_unc/leftBlue\GB_LB_5.xlsx
317	main_unc	True	0.0	942	0	2.0	2.0	1.0	1	right	2.0	1.0	0.0	1	0.050545648038400004	blockFiles/set_25/main_unc/leftBlue\GB_LB_5.xlsx
318	main_unc	True	0.0	942	0	2.0	2.0	1.0	1	right	2.0	0.0	0.0	1	0.062291037906	blockFiles/set_25/main_unc/leftBlue\GB_LB_5.xlsx
319	main_unc	True	1.0	942	0	2.0	2.0	n/a	0	None	n/a	0.0	n/a	1	0.0359426036291	blockFiles/set_25/main_unc/leftBlue\GB_LB_5.xlsx
320	main_unc	True	0.0	942	0	2.0	2.0	1.0	1	right	1.0	1.0	1.0	1	0.0404998222925	blockFiles/set_25/main_unc/leftBlue\GB_LB_5.xlsx
321	main_unc	True	0.0	942	0	2.0	2.0	0.0	0	left	2.0	0.0	0.0	1	0.028915446698699998	blockFiles/set_25/main_unc/leftBlue\GB_LB_5.xlsx
322	main_unc	True	0.0	942	0	2.0	2.0	0.0	0	left	2.0	0.0	0.0	1	0.056220681183	blockFiles/set_25/main_unc/leftBlue\GB_LB_5.xlsx
323	main_unc	True	0.0	942	0	2.0	2.0	0.0	1	left	2.0	1.0	1.0	0	-0.06268434967849999	blockFiles/set_25/main_unc/leftBlue\GB_LB_5.xlsx
324	main_unc	True	0.0	942	0	2.0	2.0	0.0	0	left	1.0	1.0	1.0	1	0.0311832362972	blockFiles/set_25/main_unc/leftBlue\GB_LB_5.xlsx
325	main_unc	True	0.0	942	0	2.0	2.0	0.0	1	left	1.0	1.0	0.0	0	-0.06567370206119999	blockFiles/set_25/main_unc/leftBlue\GB_LB_5.xlsx
326	main_unc	True	0.0	942	0	2.0	2.0	0.0	1	left	1.0	0.0	0.0	0	-0.0115721304901	blockFiles/set_25/main_unc/leftBlue\GB_LB_5.xlsx
327	main_unc	True	0.0	942	0	2.0	2.0	0.0	1	left	1.0	0.0	0.0	0	-0.0462879462354	blockFiles/set_25/main_unc/leftBlue\GB_LB_5.xlsx
328	main_unc	True	0.0	942	0	2.0	2.0	0.0	0	left	2.0	0.0	0.0	1	0.0178559922799	blockFiles/set_25/main_unc/leftBlue\GB_LB_5.xlsx
329	main_unc	True	0.0	942	0	2.0	2.0	0.0	0	left	2.0	0.0	0.0	1	0.021142033990500003	blockFiles/set_25/main_unc/leftBlue\GB_LB_5.xlsx
330	main_unc	True	0.0	942	0	2.0	2.0	0.0	1	left	1.0	0.0	0.0	0	-0.0496254988946	blockFiles/set_25/main_unc/leftBlue\GB_LB_5.xlsx
331	main_unc	True	0.0	942	0	2.0	2.0	1.0	1	right	1.0	1.0	1.0	1	0.0359426036291	blockFiles/set_25/main_unc/leftBlue\GB_LB_5.xlsx
332	main_unc	True	1.0	942	0	3.0	3.0	0.0	1	left	n/a	0.0	n/a	0	-0.0430253934301	blockFiles/set_25/main_unc/rightBlue\GB_RB_3.xlsx
333	main_unc	True	0.0	942	0	3.0	3.0	1.0	1	right	1.0	1.0	0.0	1	0.0588764124364	blockFiles/set_25/main_unc/rightBlue\GB_RB_3.xlsx
334	main_unc	True	0.0	942	0	3.0	3.0	0.0	1	left	2.0	0.0	0.0	0	-0.0341895282082	blockFiles/set_25/main_unc/rightBlue\GB_RB_3.xlsx
335	main_unc	True	0.0	942	0	3.0	3.0	1.0	1	right	1.0	0.0	0.0	1	0.06755028856919999	blockFiles/set_25/main_unc/rightBlue\GB_RB_3.xlsx
336	main_unc	True	0.0	942	0	3.0	3.0	0.0	0	left	2.0	0.0	1.0	1	0.020870713219	blockFiles/set_25/main_unc/rightBlue\GB_RB_3.xlsx
337	main_unc	True	0.0	942	0	3.0	3.0	1.0	1	right	1.0	0.0	0.0	1	0.0348426201381	blockFiles/set_25/main_unc/rightBlue\GB_RB_3.xlsx
338	main_unc	True	0.0	942	0	3.0	3.0	0.0	0	left	2.0	1.0	1.0	1	0.0171499021165	blockFiles/set_25/main_unc/rightBlue\GB_RB_3.xlsx
339	main_unc	True	0.0	942	0	3.0	3.0	0.0	0	left	2.0	1.0	1.0	1	0.00242646723986	blockFiles/set_25/main_unc/rightBlue\GB_RB_3.xlsx
340	main_unc	True	0.0	942	0	3.0	3.0	1.0	1	right	1.0	0.0	0.0	1	0.033743983861099995	blockFiles/set_25/main_unc/rightBlue\GB_RB_3.xlsx
341	main_unc	True	0.0	942	0	3.0	3.0	1.0	1	right	1.0	0.0	0.0	1	0.038173793554300006	blockFiles/set_25/main_unc/rightBlue\GB_RB_3.xlsx
342	main_unc	True	0.0	942	0	3.0	3.0	0.0	1	left	2.0	0.0	0.0	0	-0.0652535696886	blockFiles/set_25/main_unc/rightBlue\GB_RB_3.xlsx
343	main_unc	True	0.0	942	0	3.0	3.0	0.0	1	left	2.0	0.0	0.0	0	-0.0325771298632	blockFiles/set_25/main_unc/rightBlue\GB_RB_3.xlsx
344	main_unc	True	0.0	942	0	3.0	3.0	0.0	1	left	2.0	0.0	0.0	0	-0.023272603564	blockFiles/set_25/main_unc/rightBlue\GB_RB_3.xlsx
345	main_unc	True	1.0	942	0	3.0	3.0	0.0	1	left	n/a	0.0	n/a	0	-0.0619044632651	blockFiles/set_25/main_unc/rightBlue\GB_RB_3.xlsx
346	main_unc	True	0.0	942	0	3.0	3.0	0.0	0	left	1.0	0.0	0.0	1	0.0011908814310999999	blockFiles/set_25/main_unc/rightBlue\GB_RB_3.xlsx
347	main_unc	True	0.0	942	0	3.0	3.0	0.0	1	left	2.0	0.0	0.0	0	-0.0134819406085	blockFiles/set_25/main_unc/rightBlue\GB_RB_3.xlsx
348	main_unc	True	0.0	942	0	3.0	3.0	0.0	1	left	2.0	0.0	0.0	0	-0.0667966233566	blockFiles/set_25/main_unc/rightBlue\GB_RB_3.xlsx
349	main_unc	True	0.0	942	0	3.0	3.0	0.0	1	left	1.0	1.0	1.0	0	-0.0280700195208	blockFiles/set_25/main_unc/rightBlue\GB_RB_3.xlsx
350	main_unc	True	0.0	942	0	3.0	3.0	0.0	1	left	2.0	0.0	0.0	0	-0.06293539557609999	blockFiles/set_25/main_unc/rightBlue\GB_RB_3.xlsx
351	main_unc	True	0.0	942	0	3.0	3.0	1.0	1	right	1.0	1.0	0.0	1	0.0720927073807	blockFiles/set_25/main_unc/rightBlue\GB_RB_3.xlsx
352	main_unc	True	0.0	942	0	3.0	3.0	1.0	1	right	1.0	0.0	0.0	1	0.0193132379465	blockFiles/set_25/main_unc/rightBlue\GB_RB_3.xlsx
353	main_unc	True	0.0	942	0	3.0	3.0	1.0	1	right	1.0	0.0	0.0	1	0.0592025105283	blockFiles/set_25/main_unc/rightBlue\GB_RB_3.xlsx
354	main_unc	True	0.0	942	0	3.0	3.0	0.0	1	left	2.0	0.0	0.0	0	-0.043327879943000004	blockFiles/set_25/main_unc/rightBlue\GB_RB_3.xlsx
355	main_unc	True	0.0	942	0	3.0	3.0	0.0	1	left	2.0	0.0	0.0	0	-0.046714374274000006	blockFiles/set_25/main_unc/rightBlue\GB_RB_3.xlsx
356	main_unc	True	0.0	942	0	3.0	3.0	0.0	1	left	2.0	0.0	0.0	0	-0.0201302667707	blockFiles/set_25/main_unc/rightBlue\GB_RB_3.xlsx
357	main_unc	True	0.0	942	0	3.0	3.0	0.0	1	left	n/a	0.0	n/a	0	-0.0430253934301	blockFiles/set_25/main_unc/rightBlue\GB_RB_3.xlsx
358	main_unc	True	0.0	942	0	3.0	3.0	0.0	1	left	2.0	0.0	0.0	0	-0.0430253934301	blockFiles/set_25/main_unc/rightBlue\GB_RB_3.xlsx
359	main_unc	True	0.0	942	0	3.0	3.0	0.0	1	left	2.0	0.0	0.0	0	-0.0619044632651	blockFiles/set_25/main_unc/rightBlue\GB_RB_3.xlsx
360	main_unc	True	0.0	942	0	4.0	4.0	0.0	1	left	1.0	1.0	1.0	0	-0.075517921187	blockFiles/set_25/main_unc/rightBlue\GB_RB_6.xlsx
361	main_unc	True	0.0	942	0	4.0	4.0	1.0	1	right	2.0	0.0	1.0	1	0.0736082307249	blockFiles/set_25/main_unc/rightBlue\GB_RB_6.xlsx
362	main_unc	True	0.0	942	0	4.0	4.0	1.0	0	right	1.0	1.0	1.0	0	-0.0347114751674	blockFiles/set_25/main_unc/rightBlue\GB_RB_6.xlsx
363	main_unc	True	1.0	942	0	4.0	4.0	n/a	0	None	n/a	0.0	n/a	0	-0.012691584192200001	blockFiles/set_25/main_unc/rightBlue\GB_RB_6.xlsx
364	main_unc	True	0.0	942	0	4.0	4.0	1.0	1	right	1.0	0.0	0.0	1	0.0627779238671	blockFiles/set_25/main_unc/rightBlue\GB_RB_6.xlsx
365	main_unc	True	0.0	942	0	4.0	4.0	1.0	1	right	1.0	1.0	0.0	1	0.0413989170082	blockFiles/set_25/main_unc/rightBlue\GB_RB_6.xlsx
366	main_unc	True	0.0	942	0	4.0	4.0	1.0	1	right	1.0	0.0	0.0	1	0.052952735442699995	blockFiles/set_25/main_unc/rightBlue\GB_RB_6.xlsx
367	main_unc	True	0.0	942	0	4.0	4.0	1.0	0	right	2.0	0.0	0.0	0	-0.0458577709831	blockFiles/set_25/main_unc/rightBlue\GB_RB_6.xlsx
368	main_unc	True	0.0	942	0	4.0	4.0	1.0	1	right	2.0	0.0	1.0	1	0.0194068872742	blockFiles/set_25/main_unc/rightBlue\GB_RB_6.xlsx
369	main_unc	True	0.0	942	0	4.0	4.0	1.0	1	right	1.0	0.0	0.0	1	0.0372720337845	blockFiles/set_25/main_unc/rightBlue\GB_RB_6.xlsx
370	main_unc	True	0.0	942	0	4.0	4.0	0.0	0	left	1.0	1.0	0.0	1	0.0171752517298	blockFiles/set_25/main_unc/rightBlue\GB_RB_6.xlsx
371	main_unc	True	0.0	942	0	4.0	4.0	0.0	1	left	2.0	1.0	0.0	0	-0.00215517533943	blockFiles/set_25/main_unc/rightBlue\GB_RB_6.xlsx
372	main_unc	True	0.0	942	0	4.0	4.0	0.0	1	left	2.0	0.0	0.0	0	-0.07800015771760001	blockFiles/set_25/main_unc/rightBlue\GB_RB_6.xlsx
373	main_unc	True	0.0	942	0	4.0	4.0	0.0	1	left	1.0	1.0	1.0	0	-0.0446270665713	blockFiles/set_25/main_unc/rightBlue\GB_RB_6.xlsx
374	main_unc	True	0.0	942	0	4.0	4.0	1.0	1	right	1.0	0.0	0.0	1	0.054380984474	blockFiles/set_25/main_unc/rightBlue\GB_RB_6.xlsx
375	main_unc	True	0.0	942	0	4.0	4.0	1.0	1	right	1.0	0.0	0.0	1	0.0549093154632	blockFiles/set_25/main_unc/rightBlue\GB_RB_6.xlsx
376	main_unc	True	0.0	942	0	4.0	4.0	0.0	1	left	1.0	1.0	1.0	0	-0.0467078431323	blockFiles/set_25/main_unc/rightBlue\GB_RB_6.xlsx
377	main_unc	True	0.0	942	0	4.0	4.0	1.0	0	right	1.0	1.0	1.0	0	-0.0298371018842	blockFiles/set_25/main_unc/rightBlue\GB_RB_6.xlsx
378	main_unc	True	1.0	942	0	4.0	4.0	n/a	0	None	n/a	0.0	n/a	1	0.027137055825400002	blockFiles/set_25/main_unc/rightBlue\GB_RB_6.xlsx
379	main_unc	True	0.0	942	0	4.0	4.0	0.0	0	left	1.0	0.0	0.0	1	0.00458952018991	blockFiles/set_25/main_unc/rightBlue\GB_RB_6.xlsx
380	main_unc	True	0.0	942	0	4.0	4.0	0.0	1	left	1.0	1.0	1.0	0	-0.0285663843527	blockFiles/set_25/main_unc/rightBlue\GB_RB_6.xlsx
381	main_unc	True	0.0	942	0	4.0	4.0	1.0	1	right	2.0	1.0	1.0	1	0.03826482625680001	blockFiles/set_25/main_unc/rightBlue\GB_RB_6.xlsx
382	main_unc	True	0.0	942	0	4.0	4.0	1.0	1	right	2.0	1.0	1.0	1	0.06682871783149999	blockFiles/set_25/main_unc/rightBlue\GB_RB_6.xlsx
383	main_unc	True	0.0	942	0	4.0	4.0	0.0	1	left	1.0	1.0	1.0	0	-0.0504743745923	blockFiles/set_25/main_unc/rightBlue\GB_RB_6.xlsx
384	main_unc	True	0.0	942	0	4.0	4.0	0.0	1	left	2.0	1.0	0.0	0	-0.011818815264900001	blockFiles/set_25/main_unc/rightBlue\GB_RB_6.xlsx
385	main_unc	True	0.0	942	0	4.0	4.0	0.0	1	left	2.0	0.0	0.0	0	-0.012691584192200001	blockFiles/set_25/main_unc/rightBlue\GB_RB_6.xlsx
386	main_unc	True	0.0	942	0	4.0	4.0	1.0	1	right	1.0	0.0	0.0	1	0.027137055825400002	blockFiles/set_25/main_unc/rightBlue\GB_RB_6.xlsx
387	main_unc	True	0.0	942	0	5.0	5.0	0.0	1	left	2.0	0.0	1.0	0	-0.04515835143630001	blockFiles/set_25/main_unc/leftBlue\GB_LB_6.xlsx
388	main_unc	True	0.0	942	0	5.0	5.0	0.0	0	left	1.0	1.0	1.0	1	0.0014963062480099999	blockFiles/set_25/main_unc/leftBlue\GB_LB_6.xlsx
389	main_unc	True	0.0	942	0	5.0	5.0	0.0	1	left	1.0	0.0	0.0	0	-0.040195425804699994	blockFiles/set_25/main_unc/leftBlue\GB_LB_6.xlsx
390	main_unc	True	0.0	942	0	5.0	5.0	0.0	1	left	1.0	0.0	0.0	0	-0.053771342225400004	blockFiles/set_25/main_unc/leftBlue\GB_LB_6.xlsx
391	main_unc	True	0.0	942	0	5.0	5.0	0.0	1	left	1.0	0.0	0.0	0	-0.0517325609736	blockFiles/set_25/main_unc/leftBlue\GB_LB_6.xlsx
392	main_unc	True	0.0	942	0	5.0	5.0	1.0	1	right	2.0	0.0	0.0	1	0.0687956778891	blockFiles/set_25/main_unc/leftBlue\GB_LB_6.xlsx
393	main_unc	True	0.0	942	0	5.0	5.0	0.0	1	left	1.0	0.0	0.0	0	-0.027727415487199997	blockFiles/set_25/main_unc/leftBlue\GB_LB_6.xlsx
394	main_unc	True	0.0	942	0	5.0	5.0	0.0	1	left	2.0	0.0	1.0	0	-0.0448999469168	blockFiles/set_25/main_unc/leftBlue\GB_LB_6.xlsx
395	main_unc	True	0.0	942	0	5.0	5.0	1.0	1	right	2.0	0.0	0.0	1	0.0307133816928	blockFiles/set_25/main_unc/leftBlue\GB_LB_6.xlsx
396	main_unc	True	0.0	942	0	5.0	5.0	1.0	1	right	1.0	1.0	1.0	1	0.062089109383500006	blockFiles/set_25/main_unc/leftBlue\GB_LB_6.xlsx
397	main_unc	True	0.0	942	0	5.0	5.0	0.0	1	left	2.0	1.0	1.0	0	-0.009160713236780001	blockFiles/set_25/main_unc/leftBlue\GB_LB_6.xlsx
398	main_unc	True	0.0	942	0	5.0	5.0	0.0	1	left	2.0	1.0	1.0	0	-0.0555228086561	blockFiles/set_25/main_unc/leftBlue\GB_LB_6.xlsx
399	main_unc	True	0.0	942	0	5.0	5.0	0.0	1	left	2.0	1.0	1.0	0	-0.049823990464199996	blockFiles/set_25/main_unc/leftBlue\GB_LB_6.xlsx
400	main_unc	True	0.0	942	0	5.0	5.0	0.0	1	left	2.0	1.0	1.0	0	-0.048213597592	blockFiles/set_25/main_unc/leftBlue\GB_LB_6.xlsx
401	main_unc	True	0.0	942	0	5.0	5.0	0.0	1	left	2.0	1.0	1.0	0	-0.07003294227639999	blockFiles/set_25/main_unc/leftBlue\GB_LB_6.xlsx
402	main_unc	True	0.0	942	0	5.0	5.0	0.0	0	left	2.0	1.0	0.0	1	0.00992871737108	blockFiles/set_25/main_unc/leftBlue\GB_LB_6.xlsx
403	main_unc	True	0.0	942	0	5.0	5.0	1.0	1	right	1.0	1.0	1.0	1	0.0539673067629	blockFiles/set_25/main_unc/leftBlue\GB_LB_6.xlsx
404	main_unc	True	0.0	942	0	5.0	5.0	0.0	0	left	2.0	1.0	0.0	1	0.0007483443617819999	blockFiles/set_25/main_unc/leftBlue\GB_LB_6.xlsx
405	main_unc	True	0.0	942	0	5.0	5.0	0.0	1	left	1.0	0.0	0.0	0	-0.0709940933064	blockFiles/set_25/main_unc/leftBlue\GB_LB_6.xlsx
406	main_unc	True	0.0	942	0	5.0	5.0	1.0	1	right	1.0	1.0	1.0	1	0.0542035077326	blockFiles/set_25/main_unc/leftBlue\GB_LB_6.xlsx
407	main_unc	True	0.0	942	0	5.0	5.0	0.0	1	left	2.0	1.0	1.0	0	-0.0122526180558	blockFiles/set_25/main_unc/leftBlue\GB_LB_6.xlsx
408	main_unc	True	0.0	942	0	5.0	5.0	1.0	1	right	1.0	1.0	1.0	1	0.0385877641849	blockFiles/set_25/main_unc/leftBlue\GB_LB_6.xlsx
409	main_unc	True	0.0	942	0	5.0	5.0	0.0	0	left	2.0	0.0	0.0	1	0.0061674334295099996	blockFiles/set_25/main_unc/leftBlue\GB_LB_6.xlsx
410	main_unc	True	0.0	942	0	5.0	5.0	1.0	1	right	1.0	1.0	1.0	1	0.0595018023066	blockFiles/set_25/main_unc/leftBlue\GB_LB_6.xlsx
411	main_unc	True	0.0	942	0	5.0	5.0	1.0	1	right	1.0	1.0	1.0	1	0.042503666803199995	blockFiles/set_25/main_unc/leftBlue\GB_LB_6.xlsx
412	main_unc	True	1.0	942	0	6.0	6.0	n/a	0	None	n/a	0.0	n/a	1	0.059577729254999996	blockFiles/set_25/main_unc/rightBlue\GB_RB_1.xlsx
413	main_unc	True	0.0	942	0	6.0	6.0	0.0	0	left	2.0	1.0	1.0	1	0.0254284759052	blockFiles/set_25/main_unc/rightBlue\GB_RB_1.xlsx
414	main_unc	True	0.0	942	0	6.0	6.0	0.0	1	left	2.0	0.0	0.0	0	-0.011990637853700001	blockFiles/set_25/main_unc/rightBlue\GB_RB_1.xlsx
415	main_unc	True	0.0	942	0	6.0	6.0	1.0	1	right	1.0	0.0	0.0	1	0.07646499192339999	blockFiles/set_25/main_unc/rightBlue\GB_RB_1.xlsx
416	main_unc	True	0.0	942	0	6.0	6.0	0.0	1	left	2.0	0.0	0.0	0	-0.0063333516009200005	blockFiles/set_25/main_unc/rightBlue\GB_RB_1.xlsx
417	main_unc	True	0.0	942	0	6.0	6.0	0.0	1	left	1.0	1.0	1.0	0	-0.0789406626113	blockFiles/set_25/main_unc/rightBlue\GB_RB_1.xlsx
418	main_unc	True	0.0	942	0	6.0	6.0	0.0	1	left	2.0	1.0	0.0	0	-0.0027832246385500006	blockFiles/set_25/main_unc/rightBlue\GB_RB_1.xlsx
419	main_unc	True	0.0	942	0	6.0	6.0	1.0	1	right	2.0	1.0	1.0	1	0.028840231783699998	blockFiles/set_25/main_unc/rightBlue\GB_RB_1.xlsx
420	main_unc	True	0.0	942	0	6.0	6.0	0.0	1	left	1.0	0.0	1.0	0	-0.0344880037755	blockFiles/set_25/main_unc/rightBlue\GB_RB_1.xlsx
421	main_unc	True	0.0	942	0	6.0	6.0	0.0	1	left	1.0	1.0	1.0	0	-0.07542495638129999	blockFiles/set_25/main_unc/rightBlue\GB_RB_1.xlsx
422	main_unc	True	0.0	942	0	6.0	6.0	1.0	1	right	2.0	1.0	1.0	1	0.0409478214569	blockFiles/set_25/main_unc/rightBlue\GB_RB_1.xlsx
423	main_unc	True	0.0	942	0	6.0	6.0	0.0	1	left	1.0	1.0	1.0	0	-0.0653587068431	blockFiles/set_25/main_unc/rightBlue\GB_RB_1.xlsx
424	main_unc	True	0.0	942	0	6.0	6.0	1.0	1	right	2.0	1.0	1.0	1	0.0494026403874	blockFiles/set_25/main_unc/rightBlue\GB_RB_1.xlsx
425	main_unc	True	0.0	942	0	6.0	6.0	0.0	1	left	2.0	0.0	0.0	0	-0.0264967643097	blockFiles/set_25/main_unc/rightBlue\GB_RB_1.xlsx
426	main_unc	True	0.0	942	0	6.0	6.0	1.0	1	right	2.0	1.0	1.0	1	0.0213080605492	blockFiles/set_25/main_unc/rightBlue\GB_RB_1.xlsx
427	main_unc	True	0.0	942	0	6.0	6.0	1.0	1	right	2.0	1.0	1.0	1	0.0519726955146	blockFiles/set_25/main_unc/rightBlue\GB_RB_1.xlsx
428	main_unc	True	1.0	942	0	6.0	6.0	n/a	0	None	n/a	0.0	n/a	1	0.035896405857099994	blockFiles/set_25/main_unc/rightBlue\GB_RB_1.xlsx
429	main_unc	True	0.0	942	0	6.0	6.0	1.0	1	right	2.0	1.0	1.0	1	0.07146837521339999	blockFiles/set_25/main_unc/rightBlue\GB_RB_1.xlsx
430	main_unc	True	0.0	942	0	6.0	6.0	0.0	1	left	1.0	1.0	1.0	0	-0.0156579923816	blockFiles/set_25/main_unc/rightBlue\GB_RB_1.xlsx
431	main_unc	True	0.0	942	0	6.0	6.0	0.0	0	left	1.0	1.0	0.0	1	0.0065024493821000005	blockFiles/set_25/main_unc/rightBlue\GB_RB_1.xlsx
432	main_unc	True	0.0	942	0	6.0	6.0	1.0	1	right	2.0	0.0	1.0	1	0.0473312574625	blockFiles/set_25/main_unc/rightBlue\GB_RB_1.xlsx
433	main_unc	True	0.0	942	0	6.0	6.0	0.0	1	left	2.0	0.0	0.0	0	-0.07126858837899999	blockFiles/set_25/main_unc/rightBlue\GB_RB_1.xlsx
434	main_unc	True	0.0	942	0	6.0	6.0	0.0	1	left	1.0	1.0	1.0	0	-0.00879762241617	blockFiles/set_25/main_unc/rightBlue\GB_RB_1.xlsx
435	main_unc	True	0.0	942	0	6.0	6.0	0.0	1	left	1.0	1.0	1.0	0	-0.041936780531	blockFiles/set_25/main_unc/rightBlue\GB_RB_1.xlsx
436	main_unc	True	0.0	942	0	6.0	6.0	0.0	1	left	1.0	1.0	1.0	0	-0.0659994358569	blockFiles/set_25/main_unc/rightBlue\GB_RB_1.xlsx
437	main_unc	True	0.0	942	0	6.0	6.0	0.0	0	left	2.0	1.0	1.0	1	0.059577729254999996	blockFiles/set_25/main_unc/rightBlue\GB_RB_1.xlsx
438	main_unc	True	0.0	942	0	6.0	6.0	0.0	0	left	1.0	0.0	0.0	1	0.035896405857099994	blockFiles/set_25/main_unc/rightBlue\GB_RB_1.xlsx
439	main_unc	True	0.0	942	0	7.0	7.0	1.0	1	right	2.0	0.0	0.0	1	0.0594304805808	blockFiles/set_25/main_unc/leftBlue\GB_LB_3.xlsx
440	main_unc	True	0.0	942	0	7.0	7.0	0.0	1	left	2.0	0.0	1.0	0	-0.0178004807793	blockFiles/set_25/main_unc/leftBlue\GB_LB_3.xlsx
441	main_unc	True	0.0	942	0	7.0	7.0	1.0	1	right	1.0	1.0	1.0	1	0.0620209553652	blockFiles/set_25/main_unc/leftBlue\GB_LB_3.xlsx
442	main_unc	True	0.0	942	0	7.0	7.0	0.0	0	left	1.0	1.0	1.0	1	0.0298519427329	blockFiles/set_25/main_unc/leftBlue\GB_LB_3.xlsx
443	main_unc	True	0.0	942	0	7.0	7.0	0.0	1	left	2.0	1.0	1.0	0	-0.027187091186599996	blockFiles/set_25/main_unc/leftBlue\GB_LB_3.xlsx
444	main_unc	True	0.0	942	0	7.0	7.0	1.0	1	right	1.0	1.0	1.0	1	0.0643508136459	blockFiles/set_25/main_unc/leftBlue\GB_LB_3.xlsx
445	main_unc	True	0.0	942	0	7.0	7.0	1.0	1	right	1.0	1.0	1.0	1	0.0116350979172	blockFiles/set_25/main_unc/leftBlue\GB_LB_3.xlsx
446	main_unc	True	0.0	942	0	7.0	7.0	1.0	1	right	1.0	1.0	1.0	1	0.0275016086362	blockFiles/set_25/main_unc/leftBlue\GB_LB_3.xlsx
447	main_unc	True	0.0	942	0	7.0	7.0	0.0	1	left	2.0	1.0	1.0	0	-0.0393641139194	blockFiles/set_25/main_unc/leftBlue\GB_LB_3.xlsx
448	main_unc	True	0.0	942	0	7.0	7.0	1.0	1	right	1.0	1.0	1.0	1	0.0429198509827	blockFiles/set_25/main_unc/leftBlue\GB_LB_3.xlsx
449	main_unc	True	0.0	942	0	7.0	7.0	0.0	1	left	2.0	1.0	1.0	0	-0.0646756097116	blockFiles/set_25/main_unc/leftBlue\GB_LB_3.xlsx
450	main_unc	True	0.0	942	0	7.0	7.0	0.0	1	left	2.0	0.0	1.0	0	-0.0251257937029	blockFiles/set_25/main_unc/leftBlue\GB_LB_3.xlsx
451	main_unc	True	0.0	942	0	7.0	7.0	0.0	1	left	2.0	0.0	1.0	0	-0.021084622908400005	blockFiles/set_25/main_unc/leftBlue\GB_LB_3.xlsx
452	main_unc	True	0.0	942	0	7.0	7.0	0.0	1	left	2.0	1.0	1.0	0	-0.0508931308053	blockFiles/set_25/main_unc/leftBlue\GB_LB_3.xlsx
453	main_unc	True	0.0	942	0	7.0	7.0	0.0	1	left	2.0	1.0	1.0	0	-0.0174133831821	blockFiles/set_25/main_unc/leftBlue\GB_LB_3.xlsx
454	main_unc	True	0.0	942	0	7.0	7.0	0.0	1	left	2.0	1.0	1.0	0	-0.0765198195912	blockFiles/set_25/main_unc/leftBlue\GB_LB_3.xlsx
455	main_unc	True	0.0	942	0	7.0	7.0	0.0	1	left	2.0	1.0	1.0	0	-0.021189574413	blockFiles/set_25/main_unc/leftBlue\GB_LB_3.xlsx
456	main_unc	True	0.0	942	0	7.0	7.0	0.0	1	left	2.0	1.0	1.0	0	-0.06720304396	blockFiles/set_25/main_unc/leftBlue\GB_LB_3.xlsx
457	main_unc	True	0.0	942	0	7.0	7.0	0.0	1	left	2.0	0.0	1.0	0	-0.0168428641185	blockFiles/set_25/main_unc/leftBlue\GB_LB_3.xlsx
458	main_unc	True	0.0	942	0	7.0	7.0	0.0	0	left	1.0	1.0	1.0	1	0.0324766220525	blockFiles/set_25/main_unc/leftBlue\GB_LB_3.xlsx
459	main_unc	True	0.0	942	0	7.0	7.0	1.0	1	right	1.0	1.0	1.0	1	0.0734780598432	blockFiles/set_25/main_unc/leftBlue\GB_LB_3.xlsx
460	main_unc	True	0.0	942	0	7.0	7.0	1.0	1	right	1.0	1.0	1.0	1	0.0599995519221	blockFiles/set_25/main_unc/leftBlue\GB_LB_3.xlsx
461	main_unc	True	0.0	942	0	7.0	7.0	1.0	1	right	1.0	0.0	1.0	1	0.0073899217695	blockFiles/set_25/main_unc/leftBlue\GB_LB_3.xlsx
462	main_unc	True	0.0	942	0	7.0	7.0	0.0	0	left	1.0	1.0	1.0	1	0.0006964966468510001	blockFiles/set_25/main_unc/leftBlue\GB_LB_3.xlsx
463	main_unc	True	0.0	942	0	7.0	7.0	0.0	1	left	2.0	0.0	1.0	0	-0.0368794713914	blockFiles/set_25/main_unc/leftBlue\GB_LB_3.xlsx
464	main_unc	True	0.0	942	0	8.0	8.0	0.0	0	left	2.0	0.0	0.0	1	0.00908567128703	blockFiles/set_25/main_unc/leftBlue\GB_LB_1.xlsx
465	main_unc	True	0.0	942	0	8.0	8.0	0.0	1	left	1.0	0.0	0.0	0	-0.048741893433	blockFiles/set_25/main_unc/leftBlue\GB_LB_1.xlsx
466	main_unc	True	0.0	942	0	8.0	8.0	0.0	1	left	1.0	1.0	0.0	0	-0.0008580113016070001	blockFiles/set_25/main_unc/leftBlue\GB_LB_1.xlsx
467	main_unc	True	0.0	942	0	8.0	8.0	1.0	1	right	1.0	1.0	1.0	1	0.07177183121439999	blockFiles/set_25/main_unc/leftBlue\GB_LB_1.xlsx
468	main_unc	True	0.0	942	0	8.0	8.0	1.0	1	right	1.0	0.0	1.0	1	0.0102749047615	blockFiles/set_25/main_unc/leftBlue\GB_LB_1.xlsx
469	main_unc	True	0.0	942	0	8.0	8.0	0.0	0	left	1.0	1.0	1.0	1	0.027510106190999997	blockFiles/set_25/main_unc/leftBlue\GB_LB_1.xlsx
470	main_unc	True	0.0	942	0	8.0	8.0	0.0	1	left	2.0	1.0	1.0	0	-0.0662601329759	blockFiles/set_25/main_unc/leftBlue\GB_LB_1.xlsx
471	main_unc	True	0.0	942	0	8.0	8.0	1.0	1	right	1.0	0.0	1.0	1	0.0300849771872	blockFiles/set_25/main_unc/leftBlue\GB_LB_1.xlsx
472	main_unc	True	0.0	942	0	8.0	8.0	1.0	1	right	1.0	1.0	1.0	1	0.062340039387300004	blockFiles/set_25/main_unc/leftBlue\GB_LB_1.xlsx
473	main_unc	True	0.0	942	0	8.0	8.0	0.0	1	left	2.0	1.0	1.0	0	-0.0571787343174	blockFiles/set_25/main_unc/leftBlue\GB_LB_1.xlsx
474	main_unc	True	1.0	942	0	8.0	8.0	n/a	0	None	n/a	0.0	n/a	1	0.00044929638505000004	blockFiles/set_25/main_unc/leftBlue\GB_LB_1.xlsx
475	main_unc	True	0.0	942	0	8.0	8.0	0.0	1	left	2.0	1.0	1.0	0	-0.04762517664580001	blockFiles/set_25/main_unc/leftBlue\GB_LB_1.xlsx
476	main_unc	True	0.0	942	0	8.0	8.0	0.0	1	left	2.0	1.0	1.0	0	-0.0773356753215	blockFiles/set_25/main_unc/leftBlue\GB_LB_1.xlsx
477	main_unc	True	0.0	942	0	8.0	8.0	0.0	1	left	2.0	1.0	1.0	0	-0.042792633269	blockFiles/set_25/main_unc/leftBlue\GB_LB_1.xlsx
478	main_unc	True	0.0	942	0	8.0	8.0	1.0	1	right	1.0	1.0	1.0	1	0.0655817550048	blockFiles/set_25/main_unc/leftBlue\GB_LB_1.xlsx
479	main_unc	True	1.0	942	0	8.0	8.0	n/a	0	None	n/a	0.0	n/a	0	-0.0122054370493	blockFiles/set_25/main_unc/leftBlue\GB_LB_1.xlsx
480	main_unc	True	0.0	942	0	8.0	8.0	1.0	1	right	1.0	1.0	1.0	1	0.0411711328849	blockFiles/set_25/main_unc/leftBlue\GB_LB_1.xlsx
481	main_unc	True	0.0	942	0	8.0	8.0	0.0	1	left	2.0	1.0	1.0	0	-0.0136785338446	blockFiles/set_25/main_unc/leftBlue\GB_LB_1.xlsx
482	main_unc	True	0.0	942	0	8.0	8.0	1.0	1	right	1.0	0.0	1.0	1	0.061351487953199994	blockFiles/set_25/main_unc/leftBlue\GB_LB_1.xlsx
483	main_unc	True	0.0	942	0	8.0	8.0	1.0	1	right	1.0	1.0	1.0	1	0.0683427197114	blockFiles/set_25/main_unc/leftBlue\GB_LB_1.xlsx
484	main_unc	True	0.0	942	0	8.0	8.0	1.0	0	right	1.0	0.0	0.0	0	-0.0248343163915	blockFiles/set_25/main_unc/leftBlue\GB_LB_1.xlsx
485	main_unc	True	0.0	942	0	8.0	8.0	0.0	1	left	2.0	1.0	1.0	0	-0.0210253706947	blockFiles/set_25/main_unc/leftBlue\GB_LB_1.xlsx
486	main_unc	True	0.0	942	0	8.0	8.0	1.0	1	right	2.0	0.0	0.0	1	0.042945550028200004	blockFiles/set_25/main_unc/leftBlue\GB_LB_1.xlsx
487	main_unc	True	0.0	942	0	8.0	8.0	0.0	0	left	2.0	1.0	0.0	1	0.00513849183917	blockFiles/set_25/main_unc/leftBlue\GB_LB_1.xlsx
488	main_unc	True	0.0	942	0	8.0	8.0	0.0	1	left	1.0	0.0	0.0	0	-0.0671566893347	blockFiles/set_25/main_unc/leftBlue\GB_LB_1.xlsx
489	main_unc	True	0.0	942	0	8.0	8.0	0.0	0	left	1.0	1.0	1.0	1	0.00044929638505000004	blockFiles/set_25/main_unc/leftBlue\GB_LB_1.xlsx
490	main_unc	True	0.0	942	0	8.0	8.0	0.0	1	left	1.0	0.0	0.0	0	-0.0122054370493	blockFiles/set_25/main_unc/leftBlue\GB_LB_1.xlsx
491	main_unc	True	0.0	942	0	9.0	9.0	1.0	1	right	1.0	1.0	1.0	1	0.07370822323489999	blockFiles/set_25/main_unc/leftBlue\GB_LB_4.xlsx
492	main_unc	True	0.0	942	0	9.0	9.0	0.0	1	left	2.0	1.0	1.0	0	-0.00699602134526	blockFiles/set_25/main_unc/leftBlue\GB_LB_4.xlsx
493	main_unc	True	0.0	942	0	9.0	9.0	1.0	1	right	1.0	1.0	1.0	1	0.061553866155400004	blockFiles/set_25/main_unc/leftBlue\GB_LB_4.xlsx
494	main_unc	True	0.0	942	0	9.0	9.0	0.0	1	left	2.0	1.0	1.0	0	-0.050970352869499996	blockFiles/set_25/main_unc/leftBlue\GB_LB_4.xlsx
495	main_unc	True	0.0	942	0	9.0	9.0	0.0	0	left	1.0	1.0	1.0	1	0.0163302793354	blockFiles/set_25/main_unc/leftBlue\GB_LB_4.xlsx
496	main_unc	True	0.0	942	0	9.0	9.0	1.0	1	right	1.0	0.0	1.0	1	0.00682926157489	blockFiles/set_25/main_unc/leftBlue\GB_LB_4.xlsx
497	main_unc	True	0.0	942	0	9.0	9.0	1.0	0	right	2.0	0.0	1.0	0	-0.0267174398527	blockFiles/set_25/main_unc/leftBlue\GB_LB_4.xlsx
498	main_unc	True	0.0	942	0	9.0	9.0	1.0	1	right	1.0	1.0	1.0	1	0.042393895071	blockFiles/set_25/main_unc/leftBlue\GB_LB_4.xlsx
499	main_unc	True	0.0	942	0	9.0	9.0	1.0	1	right	1.0	1.0	1.0	1	0.07960832413289999	blockFiles/set_25/main_unc/leftBlue\GB_LB_4.xlsx
500	main_unc	True	0.0	942	0	9.0	9.0	0.0	1	left	2.0	1.0	1.0	0	-0.0361160343885	blockFiles/set_25/main_unc/leftBlue\GB_LB_4.xlsx
501	main_unc	True	0.0	942	0	9.0	9.0	0.0	1	left	1.0	0.0	0.0	0	-0.0445461091027	blockFiles/set_25/main_unc/leftBlue\GB_LB_4.xlsx
502	main_unc	True	0.0	942	0	9.0	9.0	1.0	1	right	2.0	0.0	0.0	1	0.046869031023199996	blockFiles/set_25/main_unc/leftBlue\GB_LB_4.xlsx
503	main_unc	True	0.0	942	0	9.0	9.0	1.0	1	right	1.0	1.0	1.0	1	0.008796726018190001	blockFiles/set_25/main_unc/leftBlue\GB_LB_4.xlsx
504	main_unc	True	0.0	942	0	9.0	9.0	1.0	1	right	1.0	1.0	1.0	1	0.010502352006700001	blockFiles/set_25/main_unc/leftBlue\GB_LB_4.xlsx
505	main_unc	True	0.0	942	0	9.0	9.0	1.0	1	right	1.0	0.0	1.0	1	0.021386550441400004	blockFiles/set_25/main_unc/leftBlue\GB_LB_4.xlsx
506	main_unc	True	0.0	942	0	9.0	9.0	0.0	1	left	2.0	1.0	1.0	0	-0.0777899354883	blockFiles/set_25/main_unc/leftBlue\GB_LB_4.xlsx
507	main_unc	True	0.0	942	0	9.0	9.0	0.0	1	left	2.0	1.0	1.0	0	-0.0450464981608	blockFiles/set_25/main_unc/leftBlue\GB_LB_4.xlsx
508	main_unc	True	0.0	942	0	9.0	9.0	0.0	1	left	2.0	1.0	1.0	0	-0.008647954892370002	blockFiles/set_25/main_unc/leftBlue\GB_LB_4.xlsx
509	main_unc	True	0.0	942	0	9.0	9.0	0.0	1	left	2.0	0.0	1.0	0	-0.04529038602490001	blockFiles/set_25/main_unc/leftBlue\GB_LB_4.xlsx
510	main_unc	True	0.0	942	0	9.0	9.0	0.0	1	left	2.0	1.0	1.0	0	-0.0359156371094	blockFiles/set_25/main_unc/leftBlue\GB_LB_4.xlsx
511	main_unc	True	0.0	942	0	9.0	9.0	0.0	1	left	2.0	1.0	1.0	0	-0.0668424355984	blockFiles/set_25/main_unc/leftBlue\GB_LB_4.xlsx
512	main_unc	True	0.0	942	0	9.0	9.0	1.0	1	right	1.0	1.0	1.0	1	0.020177872777	blockFiles/set_25/main_unc/leftBlue\GB_LB_4.xlsx
513	main_unc	True	0.0	942	0	9.0	9.0	0.0	1	left	2.0	1.0	1.0	0	-0.0187038384005	blockFiles/set_25/main_unc/leftBlue\GB_LB_4.xlsx
514	main_unc	True	0.0	942	0	9.0	9.0	1.0	1	right	1.0	1.0	1.0	1	0.050911056585599995	blockFiles/set_25/main_unc/leftBlue\GB_LB_4.xlsx
515	main_unc	True	0.0	942	0	9.0	9.0	1.0	1	right	2.0	0.0	0.0	1	0.0279933644459	blockFiles/set_25/main_unc/leftBlue\GB_LB_4.xlsx
516	main_unc	True	0.0	942	0	10.0	10.0	0.0	1	left	2.0	1.0	1.0	0	-0.057424310408500004	blockFiles/set_25/main_unc/leftBlue\GB_LB_2.xlsx
517	main_unc	True	0.0	942	0	10.0	10.0	1.0	1	right	1.0	1.0	1.0	1	0.0679912349954	blockFiles/set_25/main_unc/leftBlue\GB_LB_2.xlsx
518	main_unc	True	0.0	942	0	10.0	10.0	0.0	1	left	2.0	1.0	1.0	0	-0.0320205220953	blockFiles/set_25/main_unc/leftBlue\GB_LB_2.xlsx
519	main_unc	True	0.0	942	0	10.0	10.0	0.0	1	left	2.0	1.0	1.0	0	-0.0738537257724	blockFiles/set_25/main_unc/leftBlue\GB_LB_2.xlsx
520	main_unc	True	0.0	942	0	10.0	10.0	1.0	1	right	1.0	0.0	1.0	1	0.0489474731125	blockFiles/set_25/main_unc/leftBlue\GB_LB_2.xlsx
521	main_unc	True	0.0	942	0	10.0	10.0	0.0	1	left	2.0	0.0	1.0	0	-0.028576751910200003	blockFiles/set_25/main_unc/leftBlue\GB_LB_2.xlsx
522	main_unc	True	0.0	942	0	10.0	10.0	1.0	1	right	1.0	1.0	1.0	1	0.0404093593359	blockFiles/set_25/main_unc/leftBlue\GB_LB_2.xlsx
523	main_unc	True	1.0	942	0	10.0	10.0	n/a	0	None	n/a	0.0	n/a	1	0.0336280504055	blockFiles/set_25/main_unc/leftBlue\GB_LB_2.xlsx
524	main_unc	True	0.0	942	0	10.0	10.0	0.0	1	left	1.0	0.0	0.0	0	-0.0269982265308	blockFiles/set_25/main_unc/leftBlue\GB_LB_2.xlsx
525	main_unc	True	0.0	942	0	10.0	10.0	1.0	1	right	1.0	1.0	1.0	1	0.0307895946689	blockFiles/set_25/main_unc/leftBlue\GB_LB_2.xlsx
526	main_unc	True	0.0	942	0	10.0	10.0	0.0	1	left	2.0	1.0	1.0	0	-0.0365542587824	blockFiles/set_25/main_unc/leftBlue\GB_LB_2.xlsx
527	main_unc	True	0.0	942	0	10.0	10.0	0.0	1	left	2.0	0.0	1.0	0	-0.025192365665	blockFiles/set_25/main_unc/leftBlue\GB_LB_2.xlsx
528	main_unc	True	0.0	942	0	10.0	10.0	1.0	1	right	1.0	1.0	1.0	1	0.06718207880850001	blockFiles/set_25/main_unc/leftBlue\GB_LB_2.xlsx
529	main_unc	True	1.0	942	0	10.0	10.0	n/a	0	None	n/a	0.0	n/a	1	0.0040169229731	blockFiles/set_25/main_unc/leftBlue\GB_LB_2.xlsx
530	main_unc	True	0.0	942	0	10.0	10.0	0.0	1	left	2.0	1.0	1.0	0	-0.0246431302093	blockFiles/set_25/main_unc/leftBlue\GB_LB_2.xlsx
531	main_unc	True	0.0	942	0	10.0	10.0	1.0	1	right	1.0	1.0	1.0	1	0.034554312005599996	blockFiles/set_25/main_unc/leftBlue\GB_LB_2.xlsx
532	main_unc	True	1.0	942	0	10.0	10.0	1.0	1	right	n/a	0.0	n/a	1	0.0682382396795	blockFiles/set_25/main_unc/leftBlue\GB_LB_2.xlsx
533	main_unc	True	0.0	942	0	10.0	10.0	1.0	1	right	1.0	1.0	1.0	1	0.06987985217939999	blockFiles/set_25/main_unc/leftBlue\GB_LB_2.xlsx
534	main_unc	True	0.0	942	0	10.0	10.0	0.0	1	left	2.0	1.0	1.0	0	-0.013070439305200002	blockFiles/set_25/main_unc/leftBlue\GB_LB_2.xlsx
535	main_unc	True	0.0	942	0	10.0	10.0	0.0	0	left	1.0	1.0	1.0	1	0.0041323826648300005	blockFiles/set_25/main_unc/leftBlue\GB_LB_2.xlsx
536	main_unc	True	0.0	942	0	10.0	10.0	0.0	1	left	2.0	1.0	1.0	0	-0.0520356393978	blockFiles/set_25/main_unc/leftBlue\GB_LB_2.xlsx
537	main_unc	True	0.0	942	0	10.0	10.0	0.0	1	left	2.0	1.0	1.0	0	-0.00950953915715	blockFiles/set_25/main_unc/leftBlue\GB_LB_2.xlsx
538	main_unc	True	0.0	942	0	10.0	10.0	1.0	1	right	1.0	0.0	1.0	1	0.06866111770269999	blockFiles/set_25/main_unc/leftBlue\GB_LB_2.xlsx
539	main_unc	True	0.0	942	0	10.0	10.0	0.0	1	left	2.0	1.0	1.0	0	-0.0173116891831	blockFiles/set_25/main_unc/leftBlue\GB_LB_2.xlsx
540	main_unc	True	0.0	942	0	10.0	10.0	1.0	1	right	1.0	0.0	1.0	1	0.0644238377176	blockFiles/set_25/main_unc/leftBlue\GB_LB_2.xlsx
541	main_unc	True	0.0	942	0	10.0	10.0	1.0	1	right	1.0	1.0	1.0	1	0.0336280504055	blockFiles/set_25/main_unc/leftBlue\GB_LB_2.xlsx
542	main_unc	True	0.0	942	0	10.0	10.0	1.0	1	right	2.0	0.0	0.0	1	0.0040169229731	blockFiles/set_25/main_unc/leftBlue\GB_LB_2.xlsx
543	main_unc	True	0.0	942	0	10.0	10.0	1.0	1	right	1.0	1.0	1.0	1	0.0682382396795	blockFiles/set_25/main_unc/leftBlue\GB_LB_2.xlsx
544	main_unc	True	0.0	942	0	11.0	11.0	1.0	1	right	2.0	0.0	1.0	1	0.00476886946708	blockFiles/set_25/main_unc/rightBlue\GB_RB_4.xlsx
545	main_unc	True	0.0	942	0	11.0	11.0	1.0	1	right	1.0	0.0	0.0	1	0.0585932160169	blockFiles/set_25/main_unc/rightBlue\GB_RB_4.xlsx
546	main_unc	True	0.0	942	0	11.0	11.0	1.0	0	right	2.0	0.0	0.0	0	-0.00368762498721	blockFiles/set_25/main_unc/rightBlue\GB_RB_4.xlsx
547	main_unc	True	0.0	942	0	11.0	11.0	1.0	1	right	1.0	1.0	0.0	1	0.0442617556266	blockFiles/set_25/main_unc/rightBlue\GB_RB_4.xlsx
548	main_unc	True	0.0	942	0	11.0	11.0	0.0	1	left	2.0	0.0	0.0	0	-0.0630871843919	blockFiles/set_25/main_unc/rightBlue\GB_RB_4.xlsx
549	main_unc	True	0.0	942	0	11.0	11.0	1.0	1	right	1.0	0.0	0.0	1	0.024991075321999998	blockFiles/set_25/main_unc/rightBlue\GB_RB_4.xlsx
550	main_unc	True	0.0	942	0	11.0	11.0	0.0	1	left	1.0	1.0	1.0	0	-0.0531109932438	blockFiles/set_25/main_unc/rightBlue\GB_RB_4.xlsx
551	main_unc	True	0.0	942	0	11.0	11.0	1.0	1	right	2.0	1.0	1.0	1	0.0599137505516	blockFiles/set_25/main_unc/rightBlue\GB_RB_4.xlsx
552	main_unc	True	0.0	942	0	11.0	11.0	0.0	1	left	1.0	1.0	1.0	0	-0.044484880883200004	blockFiles/set_25/main_unc/rightBlue\GB_RB_4.xlsx
553	main_unc	True	0.0	942	0	11.0	11.0	1.0	1	right	2.0	1.0	1.0	1	0.0635928028822	blockFiles/set_25/main_unc/rightBlue\GB_RB_4.xlsx
554	main_unc	True	0.0	942	0	11.0	11.0	0.0	1	left	1.0	1.0	1.0	0	-0.00946680670604	blockFiles/set_25/main_unc/rightBlue\GB_RB_4.xlsx
555	main_unc	True	0.0	942	0	11.0	11.0	0.0	1	left	1.0	0.0	1.0	0	-0.0460727533512	blockFiles/set_25/main_unc/rightBlue\GB_RB_4.xlsx
556	main_unc	True	0.0	942	0	11.0	11.0	0.0	0	left	2.0	0.0	1.0	1	0.00846934475005	blockFiles/set_25/main_unc/rightBlue\GB_RB_4.xlsx
557	main_unc	True	0.0	942	0	11.0	11.0	1.0	1	right	1.0	0.0	0.0	1	0.0589017181657	blockFiles/set_25/main_unc/rightBlue\GB_RB_4.xlsx
558	main_unc	True	0.0	942	0	11.0	11.0	1.0	1	right	2.0	0.0	1.0	1	0.016269901189999998	blockFiles/set_25/main_unc/rightBlue\GB_RB_4.xlsx
559	main_unc	True	0.0	942	0	11.0	11.0	0.0	1	left	2.0	0.0	0.0	0	-0.0635588891245	blockFiles/set_25/main_unc/rightBlue\GB_RB_4.xlsx
560	main_unc	True	0.0	942	0	11.0	11.0	1.0	0	right	2.0	1.0	0.0	0	-0.0007675438560549999	blockFiles/set_25/main_unc/rightBlue\GB_RB_4.xlsx
561	main_unc	True	0.0	942	0	11.0	11.0	0.0	1	left	2.0	0.0	0.0	0	-0.0582124355435	blockFiles/set_25/main_unc/rightBlue\GB_RB_4.xlsx
562	main_unc	True	0.0	942	0	11.0	11.0	0.0	1	left	1.0	1.0	1.0	0	-0.0509283961169	blockFiles/set_25/main_unc/rightBlue\GB_RB_4.xlsx
563	main_unc	True	0.0	942	0	11.0	11.0	1.0	1	right	2.0	1.0	1.0	1	0.0517093077116	blockFiles/set_25/main_unc/rightBlue\GB_RB_4.xlsx
564	main_unc	True	0.0	942	0	11.0	11.0	1.0	1	right	2.0	1.0	1.0	1	0.0593167954311	blockFiles/set_25/main_unc/rightBlue\GB_RB_4.xlsx
565	main_unc	True	0.0	942	0	11.0	11.0	0.0	1	left	1.0	1.0	1.0	0	-0.0517286435328	blockFiles/set_25/main_unc/rightBlue\GB_RB_4.xlsx
566	main_unc	True	0.0	942	0	11.0	11.0	1.0	1	right	1.0	0.0	0.0	1	0.00299673553556	blockFiles/set_25/main_unc/rightBlue\GB_RB_4.xlsx
567	main_unc	True	0.0	942	0	11.0	11.0	0.0	1	left	1.0	1.0	1.0	0	-0.014486125577200002	blockFiles/set_25/main_unc/rightBlue\GB_RB_4.xlsx
568	main_unc	True	0.0	942	0	11.0	11.0	0.0	1	left	1.0	1.0	1.0	0	-0.06532154727730001	blockFiles/set_25/main_unc/rightBlue\GB_RB_4.xlsx
