	trial_type	complete	missIndex	participant	id	blockNumber	b_t	d_t	decision1.corr	decision1.keys	a_t	r_t	decision2.corr	s_t	u_t	block_file
0	main_safe	True	1.0	139	0	0.0	0.0	n/a	0	None	n/a	0.0	n/a	0	-0.08	blockFiles/set_48/main_safe/rightBlue\GB_RB_3.xlsx
1	main_safe	True	1.0	139	0	0.0	0.0	1.0	0	right	n/a	0.0	n/a	0	-0.08	blockFiles/set_48/main_safe/rightBlue\GB_RB_3.xlsx
2	main_safe	True	0.0	139	0	0.0	0.0	1.0	1	right	2.0	0.0	1.0	1	0.08	blockFiles/set_48/main_safe/rightBlue\GB_RB_3.xlsx
3	main_safe	True	0.0	139	0	0.0	0.0	0.0	1	left	1.0	1.0	1.0	0	-0.08	blockFiles/set_48/main_safe/rightBlue\GB_RB_3.xlsx
4	main_safe	True	0.0	139	0	0.0	0.0	0.0	1	left	1.0	1.0	1.0	0	-0.08	blockFiles/set_48/main_safe/rightBlue\GB_RB_3.xlsx
5	main_safe	True	0.0	139	0	0.0	0.0	1.0	1	right	2.0	1.0	1.0	1	0.08	blockFiles/set_48/main_safe/rightBlue\GB_RB_3.xlsx
6	main_safe	True	0.0	139	0	0.0	0.0	0.0	1	left	1.0	1.0	1.0	0	-0.08	blockFiles/set_48/main_safe/rightBlue\GB_RB_3.xlsx
7	main_safe	True	0.0	139	0	0.0	0.0	1.0	1	right	2.0	1.0	1.0	1	0.08	blockFiles/set_48/main_safe/rightBlue\GB_RB_3.xlsx
8	main_safe	True	0.0	139	0	0.0	0.0	0.0	1	left	1.0	1.0	1.0	0	-0.08	blockFiles/set_48/main_safe/rightBlue\GB_RB_3.xlsx
9	main_safe	True	0.0	139	0	0.0	0.0	0.0	1	left	1.0	1.0	1.0	0	-0.08	blockFiles/set_48/main_safe/rightBlue\GB_RB_3.xlsx
10	main_safe	True	0.0	139	0	0.0	0.0	1.0	1	right	2.0	1.0	1.0	1	0.08	blockFiles/set_48/main_safe/rightBlue\GB_RB_3.xlsx
11	main_safe	True	0.0	139	0	0.0	0.0	0.0	1	left	1.0	1.0	1.0	0	-0.08	blockFiles/set_48/main_safe/rightBlue\GB_RB_3.xlsx
12	main_safe	True	0.0	139	0	0.0	0.0	1.0	1	right	2.0	0.0	1.0	1	0.08	blockFiles/set_48/main_safe/rightBlue\GB_RB_3.xlsx
13	main_safe	True	0.0	139	0	0.0	0.0	1.0	1	right	2.0	1.0	1.0	1	0.08	blockFiles/set_48/main_safe/rightBlue\GB_RB_3.xlsx
14	main_safe	True	0.0	139	0	0.0	0.0	1.0	1	right	2.0	1.0	1.0	1	0.08	blockFiles/set_48/main_safe/rightBlue\GB_RB_3.xlsx
15	main_safe	True	0.0	139	0	0.0	0.0	0.0	1	left	1.0	1.0	1.0	0	-0.08	blockFiles/set_48/main_safe/rightBlue\GB_RB_3.xlsx
16	main_safe	True	0.0	139	0	0.0	0.0	1.0	1	right	2.0	1.0	1.0	1	0.08	blockFiles/set_48/main_safe/rightBlue\GB_RB_3.xlsx
17	main_safe	True	0.0	139	0	0.0	0.0	1.0	1	right	2.0	1.0	1.0	1	0.08	blockFiles/set_48/main_safe/rightBlue\GB_RB_3.xlsx
18	main_safe	True	0.0	139	0	0.0	0.0	0.0	1	left	1.0	1.0	1.0	0	-0.08	blockFiles/set_48/main_safe/rightBlue\GB_RB_3.xlsx
19	main_safe	True	0.0	139	0	0.0	0.0	1.0	1	right	2.0	0.0	1.0	1	0.08	blockFiles/set_48/main_safe/rightBlue\GB_RB_3.xlsx
20	main_safe	True	0.0	139	0	0.0	0.0	0.0	1	left	1.0	1.0	1.0	0	-0.08	blockFiles/set_48/main_safe/rightBlue\GB_RB_3.xlsx
21	main_safe	True	0.0	139	0	0.0	0.0	1.0	1	right	2.0	1.0	1.0	1	0.08	blockFiles/set_48/main_safe/rightBlue\GB_RB_3.xlsx
22	main_safe	True	0.0	139	0	0.0	0.0	0.0	1	left	1.0	1.0	1.0	0	-0.08	blockFiles/set_48/main_safe/rightBlue\GB_RB_3.xlsx
23	main_safe	True	0.0	139	0	0.0	0.0	0.0	1	left	1.0	0.0	1.0	0	-0.08	blockFiles/set_48/main_safe/rightBlue\GB_RB_3.xlsx
24	main_safe	True	0.0	139	0	0.0	0.0	1.0	1	right	2.0	1.0	1.0	1	0.08	blockFiles/set_48/main_safe/rightBlue\GB_RB_3.xlsx
25	main_safe	True	0.0	139	0	0.0	0.0	0.0	1	left	1.0	1.0	1.0	0	-0.08	blockFiles/set_48/main_safe/rightBlue\GB_RB_3.xlsx
26	main_safe	True	0.0	139	0	0.0	0.0	0.0	1	left	1.0	1.0	1.0	0	-0.08	blockFiles/set_48/main_safe/rightBlue\GB_RB_3.xlsx
27	main_safe	True	0.0	139	0	1.0	1.0	1.0	1	right	2.0	1.0	1.0	1	0.08	blockFiles/set_48/main_safe/rightBlue\GB_RB_1.xlsx
28	main_safe	True	0.0	139	0	1.0	1.0	1.0	1	right	2.0	1.0	1.0	1	0.08	blockFiles/set_48/main_safe/rightBlue\GB_RB_1.xlsx
29	main_safe	True	0.0	139	0	1.0	1.0	1.0	1	right	2.0	1.0	1.0	1	0.08	blockFiles/set_48/main_safe/rightBlue\GB_RB_1.xlsx
30	main_safe	True	0.0	139	0	1.0	1.0	1.0	1	right	2.0	1.0	1.0	1	0.08	blockFiles/set_48/main_safe/rightBlue\GB_RB_1.xlsx
31	main_safe	True	0.0	139	0	1.0	1.0	1.0	1	right	2.0	1.0	1.0	1	0.08	blockFiles/set_48/main_safe/rightBlue\GB_RB_1.xlsx
32	main_safe	True	0.0	139	0	1.0	1.0	0.0	1	left	1.0	0.0	1.0	0	-0.08	blockFiles/set_48/main_safe/rightBlue\GB_RB_1.xlsx
33	main_safe	True	0.0	139	0	1.0	1.0	1.0	1	right	2.0	1.0	1.0	1	0.08	blockFiles/set_48/main_safe/rightBlue\GB_RB_1.xlsx
34	main_safe	True	0.0	139	0	1.0	1.0	0.0	1	left	1.0	0.0	1.0	0	-0.08	blockFiles/set_48/main_safe/rightBlue\GB_RB_1.xlsx
35	main_safe	True	0.0	139	0	1.0	1.0	1.0	1	right	1.0	1.0	0.0	1	0.08	blockFiles/set_48/main_safe/rightBlue\GB_RB_1.xlsx
36	main_safe	True	0.0	139	0	1.0	1.0	1.0	1	right	1.0	0.0	0.0	1	0.08	blockFiles/set_48/main_safe/rightBlue\GB_RB_1.xlsx
37	main_safe	True	0.0	139	0	1.0	1.0	0.0	1	left	1.0	1.0	1.0	0	-0.08	blockFiles/set_48/main_safe/rightBlue\GB_RB_1.xlsx
38	main_safe	True	0.0	139	0	1.0	1.0	0.0	1	left	1.0	1.0	1.0	0	-0.08	blockFiles/set_48/main_safe/rightBlue\GB_RB_1.xlsx
39	main_safe	True	0.0	139	0	1.0	1.0	1.0	1	right	2.0	1.0	1.0	1	0.08	blockFiles/set_48/main_safe/rightBlue\GB_RB_1.xlsx
40	main_safe	True	0.0	139	0	1.0	1.0	1.0	1	right	2.0	1.0	1.0	1	0.08	blockFiles/set_48/main_safe/rightBlue\GB_RB_1.xlsx
41	main_safe	True	0.0	139	0	1.0	1.0	0.0	1	left	1.0	1.0	1.0	0	-0.08	blockFiles/set_48/main_safe/rightBlue\GB_RB_1.xlsx
42	main_safe	True	0.0	139	0	1.0	1.0	1.0	1	right	2.0	1.0	1.0	1	0.08	blockFiles/set_48/main_safe/rightBlue\GB_RB_1.xlsx
43	main_safe	True	0.0	139	0	1.0	1.0	0.0	1	left	1.0	1.0	1.0	0	-0.08	blockFiles/set_48/main_safe/rightBlue\GB_RB_1.xlsx
44	main_safe	True	0.0	139	0	1.0	1.0	1.0	1	right	2.0	1.0	1.0	1	0.08	blockFiles/set_48/main_safe/rightBlue\GB_RB_1.xlsx
45	main_safe	True	0.0	139	0	1.0	1.0	0.0	1	left	1.0	1.0	1.0	0	-0.08	blockFiles/set_48/main_safe/rightBlue\GB_RB_1.xlsx
46	main_safe	True	0.0	139	0	1.0	1.0	0.0	1	left	1.0	0.0	1.0	0	-0.08	blockFiles/set_48/main_safe/rightBlue\GB_RB_1.xlsx
47	main_safe	True	0.0	139	0	1.0	1.0	0.0	1	left	1.0	1.0	1.0	0	-0.08	blockFiles/set_48/main_safe/rightBlue\GB_RB_1.xlsx
48	main_safe	True	0.0	139	0	1.0	1.0	1.0	1	right	2.0	1.0	1.0	1	0.08	blockFiles/set_48/main_safe/rightBlue\GB_RB_1.xlsx
49	main_safe	True	0.0	139	0	1.0	1.0	0.0	1	left	1.0	1.0	1.0	0	-0.08	blockFiles/set_48/main_safe/rightBlue\GB_RB_1.xlsx
50	main_safe	True	0.0	139	0	1.0	1.0	0.0	1	left	1.0	1.0	1.0	0	-0.08	blockFiles/set_48/main_safe/rightBlue\GB_RB_1.xlsx
51	main_safe	True	0.0	139	0	1.0	1.0	0.0	1	left	1.0	1.0	1.0	0	-0.08	blockFiles/set_48/main_safe/rightBlue\GB_RB_1.xlsx
52	main_safe	True	0.0	139	0	2.0	2.0	1.0	1	right	2.0	0.0	0.0	1	0.08	blockFiles/set_48/main_safe/leftBlue\GB_LB_3.xlsx
53	main_safe	True	0.0	139	0	2.0	2.0	0.0	1	left	2.0	0.0	1.0	0	-0.08	blockFiles/set_48/main_safe/leftBlue\GB_LB_3.xlsx
54	main_safe	True	0.0	139	0	2.0	2.0	0.0	1	left	1.0	0.0	0.0	0	-0.08	blockFiles/set_48/main_safe/leftBlue\GB_LB_3.xlsx
55	main_safe	True	0.0	139	0	2.0	2.0	0.0	1	left	2.0	0.0	1.0	0	-0.08	blockFiles/set_48/main_safe/leftBlue\GB_LB_3.xlsx
56	main_safe	True	0.0	139	0	2.0	2.0	1.0	1	right	1.0	1.0	1.0	1	0.08	blockFiles/set_48/main_safe/leftBlue\GB_LB_3.xlsx
57	main_safe	True	0.0	139	0	2.0	2.0	1.0	1	right	1.0	1.0	1.0	1	0.08	blockFiles/set_48/main_safe/leftBlue\GB_LB_3.xlsx
58	main_safe	True	0.0	139	0	2.0	2.0	0.0	1	left	2.0	1.0	1.0	0	-0.08	blockFiles/set_48/main_safe/leftBlue\GB_LB_3.xlsx
59	main_safe	True	0.0	139	0	2.0	2.0	0.0	1	left	2.0	1.0	1.0	0	-0.08	blockFiles/set_48/main_safe/leftBlue\GB_LB_3.xlsx
60	main_safe	True	0.0	139	0	2.0	2.0	0.0	1	left	2.0	0.0	1.0	0	-0.08	blockFiles/set_48/main_safe/leftBlue\GB_LB_3.xlsx
61	main_safe	True	0.0	139	0	2.0	2.0	1.0	1	right	1.0	1.0	1.0	1	0.08	blockFiles/set_48/main_safe/leftBlue\GB_LB_3.xlsx
62	main_safe	True	0.0	139	0	2.0	2.0	1.0	1	right	1.0	0.0	1.0	1	0.08	blockFiles/set_48/main_safe/leftBlue\GB_LB_3.xlsx
63	main_safe	True	0.0	139	0	2.0	2.0	0.0	1	left	1.0	0.0	0.0	0	-0.08	blockFiles/set_48/main_safe/leftBlue\GB_LB_3.xlsx
64	main_safe	True	0.0	139	0	2.0	2.0	0.0	1	left	2.0	0.0	1.0	0	-0.08	blockFiles/set_48/main_safe/leftBlue\GB_LB_3.xlsx
65	main_safe	True	0.0	139	0	2.0	2.0	1.0	1	right	1.0	1.0	1.0	1	0.08	blockFiles/set_48/main_safe/leftBlue\GB_LB_3.xlsx
66	main_safe	True	0.0	139	0	2.0	2.0	0.0	1	left	2.0	1.0	1.0	0	-0.08	blockFiles/set_48/main_safe/leftBlue\GB_LB_3.xlsx
67	main_safe	True	0.0	139	0	2.0	2.0	1.0	1	right	1.0	1.0	1.0	1	0.08	blockFiles/set_48/main_safe/leftBlue\GB_LB_3.xlsx
68	main_safe	True	0.0	139	0	2.0	2.0	0.0	1	left	2.0	1.0	1.0	0	-0.08	blockFiles/set_48/main_safe/leftBlue\GB_LB_3.xlsx
69	main_safe	True	0.0	139	0	2.0	2.0	0.0	1	left	2.0	1.0	1.0	0	-0.08	blockFiles/set_48/main_safe/leftBlue\GB_LB_3.xlsx
70	main_safe	True	0.0	139	0	2.0	2.0	1.0	1	right	1.0	1.0	1.0	1	0.08	blockFiles/set_48/main_safe/leftBlue\GB_LB_3.xlsx
71	main_safe	True	0.0	139	0	2.0	2.0	1.0	1	right	1.0	1.0	1.0	1	0.08	blockFiles/set_48/main_safe/leftBlue\GB_LB_3.xlsx
72	main_safe	True	0.0	139	0	2.0	2.0	0.0	1	left	2.0	1.0	1.0	0	-0.08	blockFiles/set_48/main_safe/leftBlue\GB_LB_3.xlsx
73	main_safe	True	0.0	139	0	2.0	2.0	0.0	1	left	2.0	1.0	1.0	0	-0.08	blockFiles/set_48/main_safe/leftBlue\GB_LB_3.xlsx
74	main_safe	True	0.0	139	0	2.0	2.0	1.0	1	right	1.0	1.0	1.0	1	0.08	blockFiles/set_48/main_safe/leftBlue\GB_LB_3.xlsx
75	main_safe	True	0.0	139	0	2.0	2.0	1.0	1	right	1.0	1.0	1.0	1	0.08	blockFiles/set_48/main_safe/leftBlue\GB_LB_3.xlsx
76	main_safe	True	0.0	139	0	2.0	2.0	1.0	1	right	1.0	1.0	1.0	1	0.08	blockFiles/set_48/main_safe/leftBlue\GB_LB_3.xlsx
77	main_safe	True	0.0	139	0	3.0	3.0	0.0	1	left	1.0	0.0	0.0	0	-0.08	blockFiles/set_48/main_safe/leftBlue\GB_LB_1.xlsx
78	main_safe	True	0.0	139	0	3.0	3.0	1.0	1	right	1.0	1.0	1.0	1	0.08	blockFiles/set_48/main_safe/leftBlue\GB_LB_1.xlsx
79	main_safe	True	0.0	139	0	3.0	3.0	0.0	1	left	2.0	0.0	1.0	0	-0.08	blockFiles/set_48/main_safe/leftBlue\GB_LB_1.xlsx
80	main_safe	True	0.0	139	0	3.0	3.0	1.0	1	right	1.0	1.0	1.0	1	0.08	blockFiles/set_48/main_safe/leftBlue\GB_LB_1.xlsx
81	main_safe	True	0.0	139	0	3.0	3.0	0.0	1	left	2.0	0.0	1.0	0	-0.08	blockFiles/set_48/main_safe/leftBlue\GB_LB_1.xlsx
82	main_safe	True	0.0	139	0	3.0	3.0	0.0	1	left	2.0	1.0	1.0	0	-0.08	blockFiles/set_48/main_safe/leftBlue\GB_LB_1.xlsx
83	main_safe	True	0.0	139	0	3.0	3.0	0.0	1	left	2.0	1.0	1.0	0	-0.08	blockFiles/set_48/main_safe/leftBlue\GB_LB_1.xlsx
84	main_safe	True	0.0	139	0	3.0	3.0	0.0	1	left	2.0	1.0	1.0	0	-0.08	blockFiles/set_48/main_safe/leftBlue\GB_LB_1.xlsx
85	main_safe	True	0.0	139	0	3.0	3.0	0.0	1	left	2.0	1.0	1.0	0	-0.08	blockFiles/set_48/main_safe/leftBlue\GB_LB_1.xlsx
86	main_safe	True	0.0	139	0	3.0	3.0	0.0	1	left	2.0	0.0	1.0	0	-0.08	blockFiles/set_48/main_safe/leftBlue\GB_LB_1.xlsx
87	main_safe	True	0.0	139	0	3.0	3.0	0.0	1	left	2.0	1.0	1.0	0	-0.08	blockFiles/set_48/main_safe/leftBlue\GB_LB_1.xlsx
88	main_safe	True	0.0	139	0	3.0	3.0	1.0	1	right	1.0	0.0	1.0	1	0.08	blockFiles/set_48/main_safe/leftBlue\GB_LB_1.xlsx
89	main_safe	True	0.0	139	0	3.0	3.0	1.0	1	right	1.0	1.0	1.0	1	0.08	blockFiles/set_48/main_safe/leftBlue\GB_LB_1.xlsx
90	main_safe	True	0.0	139	0	3.0	3.0	1.0	1	right	1.0	1.0	1.0	1	0.08	blockFiles/set_48/main_safe/leftBlue\GB_LB_1.xlsx
91	main_safe	True	0.0	139	0	3.0	3.0	1.0	1	right	1.0	1.0	1.0	1	0.08	blockFiles/set_48/main_safe/leftBlue\GB_LB_1.xlsx
92	main_safe	True	0.0	139	0	3.0	3.0	1.0	1	right	1.0	1.0	1.0	1	0.08	blockFiles/set_48/main_safe/leftBlue\GB_LB_1.xlsx
93	main_safe	True	1.0	139	0	3.0	3.0	1.0	1	right	n/a	0.0	n/a	1	0.08	blockFiles/set_48/main_safe/leftBlue\GB_LB_1.xlsx
94	main_safe	True	0.0	139	0	3.0	3.0	1.0	1	right	1.0	1.0	1.0	1	0.08	blockFiles/set_48/main_safe/leftBlue\GB_LB_1.xlsx
95	main_safe	True	0.0	139	0	3.0	3.0	0.0	1	left	2.0	1.0	1.0	0	-0.08	blockFiles/set_48/main_safe/leftBlue\GB_LB_1.xlsx
96	main_safe	True	0.0	139	0	3.0	3.0	1.0	1	right	1.0	1.0	1.0	1	0.08	blockFiles/set_48/main_safe/leftBlue\GB_LB_1.xlsx
97	main_safe	True	0.0	139	0	3.0	3.0	1.0	1	right	1.0	1.0	1.0	1	0.08	blockFiles/set_48/main_safe/leftBlue\GB_LB_1.xlsx
98	main_safe	True	0.0	139	0	3.0	3.0	1.0	1	right	1.0	0.0	1.0	1	0.08	blockFiles/set_48/main_safe/leftBlue\GB_LB_1.xlsx
99	main_safe	True	0.0	139	0	3.0	3.0	0.0	1	left	2.0	1.0	1.0	0	-0.08	blockFiles/set_48/main_safe/leftBlue\GB_LB_1.xlsx
100	main_safe	True	0.0	139	0	3.0	3.0	1.0	1	right	1.0	1.0	1.0	1	0.08	blockFiles/set_48/main_safe/leftBlue\GB_LB_1.xlsx
101	main_safe	True	0.0	139	0	3.0	3.0	0.0	1	left	2.0	1.0	1.0	0	-0.08	blockFiles/set_48/main_safe/leftBlue\GB_LB_1.xlsx
102	main_safe	True	0.0	139	0	3.0	3.0	1.0	1	right	1.0	1.0	1.0	1	0.08	blockFiles/set_48/main_safe/leftBlue\GB_LB_1.xlsx
103	main_safe	True	0.0	139	0	4.0	4.0	0.0	1	left	1.0	1.0	0.0	0	-0.08	blockFiles/set_48/main_safe/leftBlue\GB_LB_2.xlsx
104	main_safe	True	0.0	139	0	4.0	4.0	1.0	1	right	2.0	0.0	0.0	1	0.08	blockFiles/set_48/main_safe/leftBlue\GB_LB_2.xlsx
105	main_safe	True	0.0	139	0	4.0	4.0	1.0	1	right	2.0	0.0	0.0	1	0.08	blockFiles/set_48/main_safe/leftBlue\GB_LB_2.xlsx
106	main_safe	True	0.0	139	0	4.0	4.0	0.0	1	left	2.0	1.0	1.0	0	-0.08	blockFiles/set_48/main_safe/leftBlue\GB_LB_2.xlsx
107	main_safe	True	0.0	139	0	4.0	4.0	0.0	1	left	2.0	0.0	1.0	0	-0.08	blockFiles/set_48/main_safe/leftBlue\GB_LB_2.xlsx
108	main_safe	True	0.0	139	0	4.0	4.0	1.0	1	right	2.0	0.0	0.0	1	0.08	blockFiles/set_48/main_safe/leftBlue\GB_LB_2.xlsx
109	main_safe	True	0.0	139	0	4.0	4.0	1.0	1	right	1.0	1.0	1.0	1	0.08	blockFiles/set_48/main_safe/leftBlue\GB_LB_2.xlsx
110	main_safe	True	0.0	139	0	4.0	4.0	0.0	1	left	2.0	1.0	1.0	0	-0.08	blockFiles/set_48/main_safe/leftBlue\GB_LB_2.xlsx
111	main_safe	True	0.0	139	0	4.0	4.0	1.0	1	right	1.0	1.0	1.0	1	0.08	blockFiles/set_48/main_safe/leftBlue\GB_LB_2.xlsx
112	main_safe	True	0.0	139	0	4.0	4.0	0.0	1	left	2.0	0.0	1.0	0	-0.08	blockFiles/set_48/main_safe/leftBlue\GB_LB_2.xlsx
113	main_safe	True	0.0	139	0	4.0	4.0	0.0	1	left	2.0	1.0	1.0	0	-0.08	blockFiles/set_48/main_safe/leftBlue\GB_LB_2.xlsx
114	main_safe	True	0.0	139	0	4.0	4.0	1.0	1	right	1.0	1.0	1.0	1	0.08	blockFiles/set_48/main_safe/leftBlue\GB_LB_2.xlsx
115	main_safe	True	0.0	139	0	4.0	4.0	1.0	1	right	1.0	1.0	1.0	1	0.08	blockFiles/set_48/main_safe/leftBlue\GB_LB_2.xlsx
116	main_safe	True	0.0	139	0	4.0	4.0	1.0	1	right	1.0	1.0	1.0	1	0.08	blockFiles/set_48/main_safe/leftBlue\GB_LB_2.xlsx
117	main_safe	True	0.0	139	0	4.0	4.0	1.0	1	right	1.0	0.0	1.0	1	0.08	blockFiles/set_48/main_safe/leftBlue\GB_LB_2.xlsx
118	main_safe	True	0.0	139	0	4.0	4.0	1.0	1	right	1.0	1.0	1.0	1	0.08	blockFiles/set_48/main_safe/leftBlue\GB_LB_2.xlsx
119	main_safe	True	0.0	139	0	4.0	4.0	0.0	1	left	2.0	1.0	1.0	0	-0.08	blockFiles/set_48/main_safe/leftBlue\GB_LB_2.xlsx
120	main_safe	True	0.0	139	0	4.0	4.0	1.0	1	right	1.0	1.0	1.0	1	0.08	blockFiles/set_48/main_safe/leftBlue\GB_LB_2.xlsx
121	main_safe	True	0.0	139	0	4.0	4.0	1.0	1	right	1.0	1.0	1.0	1	0.08	blockFiles/set_48/main_safe/leftBlue\GB_LB_2.xlsx
122	main_safe	True	0.0	139	0	4.0	4.0	1.0	1	right	1.0	1.0	1.0	1	0.08	blockFiles/set_48/main_safe/leftBlue\GB_LB_2.xlsx
123	main_safe	True	0.0	139	0	4.0	4.0	0.0	1	left	2.0	1.0	1.0	0	-0.08	blockFiles/set_48/main_safe/leftBlue\GB_LB_2.xlsx
124	main_safe	True	0.0	139	0	4.0	4.0	1.0	1	right	1.0	1.0	1.0	1	0.08	blockFiles/set_48/main_safe/leftBlue\GB_LB_2.xlsx
125	main_safe	True	0.0	139	0	4.0	4.0	0.0	1	left	2.0	1.0	1.0	0	-0.08	blockFiles/set_48/main_safe/leftBlue\GB_LB_2.xlsx
126	main_safe	True	0.0	139	0	4.0	4.0	0.0	1	left	2.0	0.0	1.0	0	-0.08	blockFiles/set_48/main_safe/leftBlue\GB_LB_2.xlsx
127	main_safe	True	0.0	139	0	4.0	4.0	0.0	1	left	1.0	0.0	0.0	0	-0.08	blockFiles/set_48/main_safe/leftBlue\GB_LB_2.xlsx
128	main_safe	True	0.0	139	0	5.0	5.0	1.0	1	right	2.0	1.0	1.0	1	0.08	blockFiles/set_48/main_safe/rightBlue\GB_RB_2.xlsx
129	main_safe	True	0.0	139	0	5.0	5.0	0.0	1	left	1.0	1.0	1.0	0	-0.08	blockFiles/set_48/main_safe/rightBlue\GB_RB_2.xlsx
130	main_safe	True	0.0	139	0	5.0	5.0	0.0	1	left	1.0	1.0	1.0	0	-0.08	blockFiles/set_48/main_safe/rightBlue\GB_RB_2.xlsx
131	main_safe	True	0.0	139	0	5.0	5.0	0.0	1	left	1.0	0.0	1.0	0	-0.08	blockFiles/set_48/main_safe/rightBlue\GB_RB_2.xlsx
132	main_safe	True	0.0	139	0	5.0	5.0	0.0	1	left	1.0	1.0	1.0	0	-0.08	blockFiles/set_48/main_safe/rightBlue\GB_RB_2.xlsx
133	main_safe	True	0.0	139	0	5.0	5.0	0.0	1	left	1.0	1.0	1.0	0	-0.08	blockFiles/set_48/main_safe/rightBlue\GB_RB_2.xlsx
134	main_safe	True	0.0	139	0	5.0	5.0	1.0	1	right	2.0	1.0	1.0	1	0.08	blockFiles/set_48/main_safe/rightBlue\GB_RB_2.xlsx
135	main_safe	True	0.0	139	0	5.0	5.0	0.0	1	left	1.0	1.0	1.0	0	-0.08	blockFiles/set_48/main_safe/rightBlue\GB_RB_2.xlsx
136	main_safe	True	0.0	139	0	5.0	5.0	1.0	1	right	2.0	0.0	1.0	1	0.08	blockFiles/set_48/main_safe/rightBlue\GB_RB_2.xlsx
137	main_safe	True	0.0	139	0	5.0	5.0	1.0	1	right	2.0	1.0	1.0	1	0.08	blockFiles/set_48/main_safe/rightBlue\GB_RB_2.xlsx
138	main_safe	True	0.0	139	0	5.0	5.0	1.0	1	right	2.0	0.0	1.0	1	0.08	blockFiles/set_48/main_safe/rightBlue\GB_RB_2.xlsx
139	main_safe	True	0.0	139	0	5.0	5.0	1.0	1	right	2.0	1.0	1.0	1	0.08	blockFiles/set_48/main_safe/rightBlue\GB_RB_2.xlsx
140	main_safe	True	0.0	139	0	5.0	5.0	1.0	1	right	2.0	1.0	1.0	1	0.08	blockFiles/set_48/main_safe/rightBlue\GB_RB_2.xlsx
141	main_safe	True	0.0	139	0	5.0	5.0	1.0	1	right	2.0	1.0	1.0	1	0.08	blockFiles/set_48/main_safe/rightBlue\GB_RB_2.xlsx
142	main_safe	True	0.0	139	0	5.0	5.0	0.0	1	left	1.0	1.0	1.0	0	-0.08	blockFiles/set_48/main_safe/rightBlue\GB_RB_2.xlsx
143	main_safe	True	0.0	139	0	5.0	5.0	0.0	1	left	1.0	0.0	1.0	0	-0.08	blockFiles/set_48/main_safe/rightBlue\GB_RB_2.xlsx
144	main_safe	True	0.0	139	0	5.0	5.0	0.0	1	left	1.0	1.0	1.0	0	-0.08	blockFiles/set_48/main_safe/rightBlue\GB_RB_2.xlsx
145	main_safe	True	0.0	139	0	5.0	5.0	0.0	1	left	1.0	1.0	1.0	0	-0.08	blockFiles/set_48/main_safe/rightBlue\GB_RB_2.xlsx
146	main_safe	True	0.0	139	0	5.0	5.0	1.0	1	right	2.0	1.0	1.0	1	0.08	blockFiles/set_48/main_safe/rightBlue\GB_RB_2.xlsx
147	main_safe	True	0.0	139	0	5.0	5.0	1.0	1	right	2.0	1.0	1.0	1	0.08	blockFiles/set_48/main_safe/rightBlue\GB_RB_2.xlsx
148	main_safe	True	0.0	139	0	5.0	5.0	1.0	1	right	2.0	1.0	1.0	1	0.08	blockFiles/set_48/main_safe/rightBlue\GB_RB_2.xlsx
149	main_safe	True	0.0	139	0	5.0	5.0	0.0	1	left	1.0	1.0	1.0	0	-0.08	blockFiles/set_48/main_safe/rightBlue\GB_RB_2.xlsx
150	main_safe	True	0.0	139	0	5.0	5.0	0.0	1	left	1.0	1.0	1.0	0	-0.08	blockFiles/set_48/main_safe/rightBlue\GB_RB_2.xlsx
151	main_safe	True	0.0	139	0	5.0	5.0	1.0	1	right	2.0	1.0	1.0	1	0.08	blockFiles/set_48/main_safe/rightBlue\GB_RB_2.xlsx
152	main_safe	True	0.0	139	0	5.0	5.0	1.0	1	right	2.0	1.0	1.0	1	0.08	blockFiles/set_48/main_safe/rightBlue\GB_RB_2.xlsx
153	patches	True	n/a	139	0	n/a	n/a	0.0	1	left	n/a	n/a	n/a	0	-0.029396542366599998	blockFiles/set_48/main_PD/GB_runPatches1.xlsx
154	patches	True	n/a	139	0	n/a	n/a	1.0	1	right	n/a	n/a	n/a	1	0.0681591862068	blockFiles/set_48/main_PD/GB_runPatches1.xlsx
155	patches	True	n/a	139	0	n/a	n/a	1.0	1	right	n/a	n/a	n/a	1	0.0362979658693	blockFiles/set_48/main_PD/GB_runPatches1.xlsx
156	patches	True	n/a	139	0	n/a	n/a	0.0	1	left	n/a	n/a	n/a	0	-0.015958245825	blockFiles/set_48/main_PD/GB_runPatches1.xlsx
157	patches	True	n/a	139	0	n/a	n/a	1.0	1	right	n/a	n/a	n/a	1	0.0345935972966	blockFiles/set_48/main_PD/GB_runPatches1.xlsx
158	patches	True	n/a	139	0	n/a	n/a	1.0	1	right	n/a	n/a	n/a	1	0.0297965910472	blockFiles/set_48/main_PD/GB_runPatches1.xlsx
159	patches	True	n/a	139	0	n/a	n/a	0.0	1	left	n/a	n/a	n/a	0	-0.0446246751398	blockFiles/set_48/main_PD/GB_runPatches1.xlsx
160	patches	True	n/a	139	0	n/a	n/a	0.0	1	left	n/a	n/a	n/a	0	-0.046046487316500004	blockFiles/set_48/main_PD/GB_runPatches1.xlsx
161	patches	True	n/a	139	0	n/a	n/a	0.0	1	left	n/a	n/a	n/a	0	-0.0198108163103	blockFiles/set_48/main_PD/GB_runPatches1.xlsx
162	patches	True	n/a	139	0	n/a	n/a	0.0	1	left	n/a	n/a	n/a	0	-0.0166593768075	blockFiles/set_48/main_PD/GB_runPatches1.xlsx
163	patches	True	n/a	139	0	n/a	n/a	0.0	1	left	n/a	n/a	n/a	0	-0.048380567170699995	blockFiles/set_48/main_PD/GB_runPatches1.xlsx
164	patches	True	n/a	139	0	n/a	n/a	0.0	1	left	n/a	n/a	n/a	0	-0.049567473568	blockFiles/set_48/main_PD/GB_runPatches1.xlsx
165	patches	True	n/a	139	0	n/a	n/a	0.0	0	left	n/a	n/a	n/a	1	0.011273960526999999	blockFiles/set_48/main_PD/GB_runPatches1.xlsx
166	patches	True	n/a	139	0	n/a	n/a	0.0	0	left	n/a	n/a	n/a	1	0.008649722598490001	blockFiles/set_48/main_PD/GB_runPatches1.xlsx
167	patches	True	n/a	139	0	n/a	n/a	1.0	1	right	n/a	n/a	n/a	1	0.0631390838325	blockFiles/set_48/main_PD/GB_runPatches1.xlsx
168	patches	True	n/a	139	0	n/a	n/a	n/a	0	None	n/a	n/a	n/a	0	-0.04606770228590001	blockFiles/set_48/main_PD/GB_runPatches1.xlsx
169	patches	True	n/a	139	0	n/a	n/a	0.0	1	left	n/a	n/a	n/a	0	-0.022437243387099997	blockFiles/set_48/main_PD/GB_runPatches1.xlsx
170	patches	True	n/a	139	0	n/a	n/a	0.0	0	left	n/a	n/a	n/a	1	0.06191836129869999	blockFiles/set_48/main_PD/GB_runPatches1.xlsx
171	patches	True	n/a	139	0	n/a	n/a	1.0	1	right	n/a	n/a	n/a	1	0.07305549971760002	blockFiles/set_48/main_PD/GB_runPatches1.xlsx
172	patches	True	n/a	139	0	n/a	n/a	0.0	0	left	n/a	n/a	n/a	1	0.0432740668207	blockFiles/set_48/main_PD/GB_runPatches1.xlsx
173	patches	True	n/a	139	0	n/a	n/a	0.0	1	left	n/a	n/a	n/a	0	-0.0686012286134	blockFiles/set_48/main_PD/GB_runPatches1.xlsx
174	patches	True	n/a	139	0	n/a	n/a	1.0	1	right	n/a	n/a	n/a	1	0.00736489770934	blockFiles/set_48/main_PD/GB_runPatches1.xlsx
175	patches	True	n/a	139	0	n/a	n/a	0.0	0	left	n/a	n/a	n/a	1	0.0334211751074	blockFiles/set_48/main_PD/GB_runPatches1.xlsx
176	patches	True	n/a	139	0	n/a	n/a	0.0	1	left	n/a	n/a	n/a	0	-0.00123413493857	blockFiles/set_48/main_PD/GB_runPatches1.xlsx
177	patches	True	n/a	139	0	n/a	n/a	1.0	1	right	n/a	n/a	n/a	1	0.0765460713021	blockFiles/set_48/main_PD/GB_runPatches1.xlsx
178	patches	True	n/a	139	0	n/a	n/a	0.0	1	left	n/a	n/a	n/a	0	-0.042787690479300006	blockFiles/set_48/main_PD/GB_runPatches1.xlsx
179	patches	True	n/a	139	0	n/a	n/a	1.0	1	right	n/a	n/a	n/a	1	0.0566183850914	blockFiles/set_48/main_PD/GB_runPatches1.xlsx
180	patches	True	n/a	139	0	n/a	n/a	0.0	0	left	n/a	n/a	n/a	1	0.045797492899	blockFiles/set_48/main_PD/GB_runPatches1.xlsx
181	patches	True	n/a	139	0	n/a	n/a	0.0	1	left	n/a	n/a	n/a	0	-0.0178636517003	blockFiles/set_48/main_PD/GB_runPatches1.xlsx
182	patches	True	n/a	139	0	n/a	n/a	1.0	1	right	n/a	n/a	n/a	1	0.062425309084400006	blockFiles/set_48/main_PD/GB_runPatches1.xlsx
183	patches	True	n/a	139	0	n/a	n/a	0.0	0	left	n/a	n/a	n/a	1	0.0293265879527	blockFiles/set_48/main_PD/GB_runPatches1.xlsx
184	patches	True	n/a	139	0	n/a	n/a	0.0	1	left	n/a	n/a	n/a	0	-0.0461381070316	blockFiles/set_48/main_PD/GB_runPatches1.xlsx
185	patches	True	n/a	139	0	n/a	n/a	0.0	1	left	n/a	n/a	n/a	0	-0.07040418760850001	blockFiles/set_48/main_PD/GB_runPatches1.xlsx
186	patches	True	n/a	139	0	n/a	n/a	1.0	1	right	n/a	n/a	n/a	1	0.00785110767931	blockFiles/set_48/main_PD/GB_runPatches1.xlsx
187	patches	True	n/a	139	0	n/a	n/a	0.0	1	left	n/a	n/a	n/a	0	-0.053980049956599996	blockFiles/set_48/main_PD/GB_runPatches1.xlsx
188	patches	True	n/a	139	0	n/a	n/a	0.0	0	left	n/a	n/a	n/a	1	0.00108415545896	blockFiles/set_48/main_PD/GB_runPatches1.xlsx
189	patches	True	n/a	139	0	n/a	n/a	0.0	1	left	n/a	n/a	n/a	0	-0.042282446250300004	blockFiles/set_48/main_PD/GB_runPatches1.xlsx
190	patches	True	n/a	139	0	n/a	n/a	0.0	1	left	n/a	n/a	n/a	0	-0.026119822505900003	blockFiles/set_48/main_PD/GB_runPatches1.xlsx
191	patches	True	n/a	139	0	n/a	n/a	0.0	0	left	n/a	n/a	n/a	1	0.029314641524099995	blockFiles/set_48/main_PD/GB_runPatches1.xlsx
192	patches	True	n/a	139	0	n/a	n/a	1.0	0	right	n/a	n/a	n/a	0	-0.0526636172459	blockFiles/set_48/main_PD/GB_runPatches1.xlsx
193	patches	True	n/a	139	0	n/a	n/a	0.0	1	left	n/a	n/a	n/a	0	-0.0721424764208	blockFiles/set_48/main_PD/GB_runPatches1.xlsx
194	patches	True	n/a	139	0	n/a	n/a	1.0	1	right	n/a	n/a	n/a	1	0.0617577581666	blockFiles/set_48/main_PD/GB_runPatches1.xlsx
195	patches	True	n/a	139	0	n/a	n/a	1.0	1	right	n/a	n/a	n/a	1	0.0194790062122	blockFiles/set_48/main_PD/GB_runPatches1.xlsx
196	patches	True	n/a	139	0	n/a	n/a	0.0	1	left	n/a	n/a	n/a	0	-0.051220955234000005	blockFiles/set_48/main_PD/GB_runPatches1.xlsx
197	patches	True	n/a	139	0	n/a	n/a	0.0	1	left	n/a	n/a	n/a	0	-0.030754210781299997	blockFiles/set_48/main_PD/GB_runPatches1.xlsx
198	patches	True	n/a	139	0	n/a	n/a	0.0	1	left	n/a	n/a	n/a	0	-0.0308705915697	blockFiles/set_48/main_PD/GB_runPatches1.xlsx
199	patches	True	n/a	139	0	n/a	n/a	1.0	1	right	n/a	n/a	n/a	1	0.062100438904	blockFiles/set_48/main_PD/GB_runPatches1.xlsx
200	patches	True	n/a	139	0	n/a	n/a	1.0	1	right	n/a	n/a	n/a	1	0.0652559785545	blockFiles/set_48/main_PD/GB_runPatches1.xlsx
201	patches	True	n/a	139	0	n/a	n/a	1.0	0	right	n/a	n/a	n/a	0	-0.016899911966200002	blockFiles/set_48/main_PD/GB_runPatches1.xlsx
202	patches	True	n/a	139	0	n/a	n/a	0.0	0	left	n/a	n/a	n/a	1	8.92121344805e-06	blockFiles/set_48/main_PD/GB_runPatches1.xlsx
203	patches	True	n/a	139	0	n/a	n/a	1.0	0	right	n/a	n/a	n/a	0	-0.0217580477335	blockFiles/set_48/main_PD/GB_runPatches1.xlsx
204	patches	True	n/a	139	0	n/a	n/a	0.0	0	left	n/a	n/a	n/a	1	0.05261519750580001	blockFiles/set_48/main_PD/GB_runPatches1.xlsx
205	patches	True	n/a	139	0	n/a	n/a	0.0	1	left	n/a	n/a	n/a	0	-0.07034876067189999	blockFiles/set_48/main_PD/GB_runPatches1.xlsx
206	patches	True	n/a	139	0	n/a	n/a	0.0	1	left	n/a	n/a	n/a	0	-0.0717643560283	blockFiles/set_48/main_PD/GB_runPatches1.xlsx
207	patches	True	n/a	139	0	n/a	n/a	0.0	1	left	n/a	n/a	n/a	0	-0.0232951117307	blockFiles/set_48/main_PD/GB_runPatches1.xlsx
208	patches	True	n/a	139	0	n/a	n/a	0.0	1	left	n/a	n/a	n/a	0	-0.052252159547100004	blockFiles/set_48/main_PD/GB_runPatches1.xlsx
209	patches	True	n/a	139	0	n/a	n/a	0.0	0	left	n/a	n/a	n/a	1	0.008681094869969999	blockFiles/set_48/main_PD/GB_runPatches1.xlsx
210	patches	True	n/a	139	0	n/a	n/a	1.0	1	right	n/a	n/a	n/a	1	0.0774649321288	blockFiles/set_48/main_PD/GB_runPatches1.xlsx
211	patches	True	n/a	139	0	n/a	n/a	1.0	1	right	n/a	n/a	n/a	1	0.0007364713586869999	blockFiles/set_48/main_PD/GB_runPatches1.xlsx
212	patches	True	n/a	139	0	n/a	n/a	0.0	1	left	n/a	n/a	n/a	0	-0.030694441627700002	blockFiles/set_48/main_PD/GB_runPatches1.xlsx
213	patches	True	n/a	139	0	n/a	n/a	0.0	1	left	n/a	n/a	n/a	0	-0.0610093949921	blockFiles/set_48/main_PD/GB_runPatches1.xlsx
214	patches	True	n/a	139	0	n/a	n/a	0.0	1	left	n/a	n/a	n/a	0	-0.0634481378831	blockFiles/set_48/main_PD/GB_runPatches1.xlsx
215	patches	True	n/a	139	0	n/a	n/a	0.0	0	left	n/a	n/a	n/a	1	0.0707921399549	blockFiles/set_48/main_PD/GB_runPatches1.xlsx
216	patches	True	n/a	139	0	n/a	n/a	0.0	1	left	n/a	n/a	n/a	0	-0.025406431872400003	blockFiles/set_48/main_PD/GB_runPatches1.xlsx
217	patches	True	n/a	139	0	n/a	n/a	1.0	1	right	n/a	n/a	n/a	1	0.00289103187621	blockFiles/set_48/main_PD/GB_runPatches1.xlsx
218	patches	True	n/a	139	0	n/a	n/a	1.0	1	right	n/a	n/a	n/a	1	0.031459685396400004	blockFiles/set_48/main_PD/GB_runPatches1.xlsx
219	patches	True	n/a	139	0	n/a	n/a	0.0	0	left	n/a	n/a	n/a	1	0.005965035594999999	blockFiles/set_48/main_PD/GB_runPatches1.xlsx
220	patches	True	n/a	139	0	n/a	n/a	0.0	1	left	n/a	n/a	n/a	0	-0.0191383788176	blockFiles/set_48/main_PD/GB_runPatches1.xlsx
221	patches	True	n/a	139	0	n/a	n/a	1.0	1	right	n/a	n/a	n/a	1	0.06533892355859999	blockFiles/set_48/main_PD/GB_runPatches1.xlsx
222	patches	True	n/a	139	0	n/a	n/a	0.0	1	left	n/a	n/a	n/a	0	-0.0645644208975	blockFiles/set_48/main_PD/GB_runPatches1.xlsx
223	patches	True	n/a	139	0	n/a	n/a	1.0	1	right	n/a	n/a	n/a	1	0.061309598237300006	blockFiles/set_48/main_PD/GB_runPatches1.xlsx
224	patches	True	n/a	139	0	n/a	n/a	0.0	1	left	n/a	n/a	n/a	0	-0.00854831313714	blockFiles/set_48/main_PD/GB_runPatches1.xlsx
225	patches	True	n/a	139	0	n/a	n/a	0.0	1	left	n/a	n/a	n/a	0	-0.0161536275968	blockFiles/set_48/main_PD/GB_runPatches1.xlsx
226	patches	True	n/a	139	0	n/a	n/a	1.0	1	right	n/a	n/a	n/a	1	0.0649417256936	blockFiles/set_48/main_PD/GB_runPatches1.xlsx
227	patches	True	n/a	139	0	n/a	n/a	0.0	0	left	n/a	n/a	n/a	1	0.0058787939883800005	blockFiles/set_48/main_PD/GB_runPatches1.xlsx
228	patches	True	n/a	139	0	n/a	n/a	1.0	0	right	n/a	n/a	n/a	0	-0.0232896165177	blockFiles/set_48/main_PD/GB_runPatches1.xlsx
229	patches	True	n/a	139	0	n/a	n/a	1.0	1	right	n/a	n/a	n/a	1	0.0671189394034	blockFiles/set_48/main_PD/GB_runPatches1.xlsx
230	patches	True	n/a	139	0	n/a	n/a	1.0	1	right	n/a	n/a	n/a	1	0.0602048203163	blockFiles/set_48/main_PD/GB_runPatches1.xlsx
231	patches	True	n/a	139	0	n/a	n/a	1.0	0	right	n/a	n/a	n/a	0	-0.00693179732189	blockFiles/set_48/main_PD/GB_runPatches1.xlsx
232	patches	True	n/a	139	0	n/a	n/a	1.0	1	right	n/a	n/a	n/a	1	0.0326536618173	blockFiles/set_48/main_PD/GB_runPatches1.xlsx
233	patches	True	n/a	139	0	n/a	n/a	0.0	1	left	n/a	n/a	n/a	0	-0.0689236617647	blockFiles/set_48/main_PD/GB_runPatches1.xlsx
234	patches	True	n/a	139	0	n/a	n/a	1.0	1	right	n/a	n/a	n/a	1	0.048196268063	blockFiles/set_48/main_PD/GB_runPatches1.xlsx
235	patches	True	n/a	139	0	n/a	n/a	1.0	1	right	n/a	n/a	n/a	1	0.0561367831379	blockFiles/set_48/main_PD/GB_runPatches1.xlsx
236	patches	True	n/a	139	0	n/a	n/a	0.0	1	left	n/a	n/a	n/a	0	-0.0440696516261	blockFiles/set_48/main_PD/GB_runPatches1.xlsx
237	patches	True	n/a	139	0	n/a	n/a	0.0	1	left	n/a	n/a	n/a	0	-0.011776445768799998	blockFiles/set_48/main_PD/GB_runPatches1.xlsx
238	patches	True	n/a	139	0	n/a	n/a	1.0	1	right	n/a	n/a	n/a	1	0.04700616221869999	blockFiles/set_48/main_PD/GB_runPatches1.xlsx
239	patches	True	n/a	139	0	n/a	n/a	1.0	1	right	n/a	n/a	n/a	1	0.06567695712669999	blockFiles/set_48/main_PD/GB_runPatches1.xlsx
240	patches	True	n/a	139	0	n/a	n/a	0.0	1	left	n/a	n/a	n/a	0	-0.056299251373899996	blockFiles/set_48/main_PD/GB_runPatches1.xlsx
241	patches	True	n/a	139	0	n/a	n/a	1.0	1	right	n/a	n/a	n/a	1	0.037932147290599995	blockFiles/set_48/main_PD/GB_runPatches1.xlsx
242	patches	True	n/a	139	0	n/a	n/a	1.0	1	right	n/a	n/a	n/a	1	0.0234764989838	blockFiles/set_48/main_PD/GB_runPatches1.xlsx
243	patches	True	n/a	139	0	n/a	n/a	0.0	1	left	n/a	n/a	n/a	0	-0.0791161439009	blockFiles/set_48/main_PD/GB_runPatches1.xlsx
244	patches	True	n/a	139	0	n/a	n/a	1.0	1	right	n/a	n/a	n/a	1	0.025606291480400004	blockFiles/set_48/main_PD/GB_runPatches1.xlsx
245	patches	True	n/a	139	0	n/a	n/a	0.0	1	left	n/a	n/a	n/a	0	-0.0404518636875	blockFiles/set_48/main_PD/GB_runPatches1.xlsx
246	patches	True	n/a	139	0	n/a	n/a	0.0	1	left	n/a	n/a	n/a	0	-0.005259491931649999	blockFiles/set_48/main_PD/GB_runPatches1.xlsx
247	patches	True	n/a	139	0	n/a	n/a	0.0	1	left	n/a	n/a	n/a	0	-0.07654650677	blockFiles/set_48/main_PD/GB_runPatches1.xlsx
248	patches	True	n/a	139	0	n/a	n/a	1.0	1	right	n/a	n/a	n/a	1	0.0210224967636	blockFiles/set_48/main_PD/GB_runPatches1.xlsx
249	patches	True	n/a	139	0	n/a	n/a	1.0	1	right	n/a	n/a	n/a	1	0.0504183317162	blockFiles/set_48/main_PD/GB_runPatches1.xlsx
250	patches	True	n/a	139	0	n/a	n/a	0.0	1	left	n/a	n/a	n/a	0	-0.0016239866055500001	blockFiles/set_48/main_PD/GB_runPatches1.xlsx
251	patches	True	n/a	139	0	n/a	n/a	0.0	1	left	n/a	n/a	n/a	0	-0.0211907152832	blockFiles/set_48/main_PD/GB_runPatches1.xlsx
252	patches	True	n/a	139	0	n/a	n/a	1.0	1	right	n/a	n/a	n/a	1	0.0792610774562	blockFiles/set_48/main_PD/GB_runPatches1.xlsx
253	main_unc	True	1.0	139	0	0.0	0.0	0.0	1	left	n/a	0.0	n/a	0	-0.0699759201519	blockFiles/set_48/main_unc/leftBlue\GB_LB_5.xlsx
254	main_unc	True	0.0	139	0	0.0	0.0	1.0	1	right	2.0	0.0	0.0	1	0.029136870112299998	blockFiles/set_48/main_unc/leftBlue\GB_LB_5.xlsx
255	main_unc	True	0.0	139	0	0.0	0.0	0.0	0	left	2.0	0.0	0.0	1	0.008227309752260001	blockFiles/set_48/main_unc/leftBlue\GB_LB_5.xlsx
256	main_unc	True	0.0	139	0	0.0	0.0	1.0	1	right	1.0	0.0	1.0	1	0.025951160304200003	blockFiles/set_48/main_unc/leftBlue\GB_LB_5.xlsx
257	main_unc	True	0.0	139	0	0.0	0.0	1.0	1	right	2.0	0.0	0.0	1	0.035173822976599996	blockFiles/set_48/main_unc/leftBlue\GB_LB_5.xlsx
258	main_unc	True	0.0	139	0	0.0	0.0	1.0	1	right	1.0	1.0	1.0	1	0.0169774275273	blockFiles/set_48/main_unc/leftBlue\GB_LB_5.xlsx
259	main_unc	True	0.0	139	0	0.0	0.0	1.0	1	right	1.0	1.0	1.0	1	0.0646176848188	blockFiles/set_48/main_unc/leftBlue\GB_LB_5.xlsx
260	main_unc	True	0.0	139	0	0.0	0.0	0.0	1	left	2.0	1.0	1.0	0	-0.07177970305089999	blockFiles/set_48/main_unc/leftBlue\GB_LB_5.xlsx
261	main_unc	True	0.0	139	0	0.0	0.0	0.0	1	left	2.0	0.0	1.0	0	-0.0430435376987	blockFiles/set_48/main_unc/leftBlue\GB_LB_5.xlsx
262	main_unc	True	1.0	139	0	0.0	0.0	0.0	1	left	n/a	0.0	n/a	0	-0.048142201025	blockFiles/set_48/main_unc/leftBlue\GB_LB_5.xlsx
263	main_unc	True	0.0	139	0	0.0	0.0	1.0	1	right	1.0	0.0	1.0	1	0.024502024818199998	blockFiles/set_48/main_unc/leftBlue\GB_LB_5.xlsx
264	main_unc	True	0.0	139	0	0.0	0.0	1.0	1	right	1.0	0.0	1.0	1	0.0462632604875	blockFiles/set_48/main_unc/leftBlue\GB_LB_5.xlsx
265	main_unc	True	0.0	139	0	0.0	0.0	1.0	1	right	2.0	0.0	0.0	1	0.023383928164800002	blockFiles/set_48/main_unc/leftBlue\GB_LB_5.xlsx
266	main_unc	True	0.0	139	0	0.0	0.0	0.0	1	left	1.0	0.0	0.0	0	-0.0700151873007	blockFiles/set_48/main_unc/leftBlue\GB_LB_5.xlsx
267	main_unc	True	0.0	139	0	0.0	0.0	0.0	1	left	2.0	1.0	1.0	0	-0.0384210987389	blockFiles/set_48/main_unc/leftBlue\GB_LB_5.xlsx
268	main_unc	True	0.0	139	0	0.0	0.0	1.0	1	right	1.0	1.0	1.0	1	0.0267039833777	blockFiles/set_48/main_unc/leftBlue\GB_LB_5.xlsx
269	main_unc	True	0.0	139	0	0.0	0.0	0.0	1	left	2.0	1.0	1.0	0	-0.06910053927450001	blockFiles/set_48/main_unc/leftBlue\GB_LB_5.xlsx
270	main_unc	True	0.0	139	0	0.0	0.0	0.0	1	left	1.0	0.0	0.0	0	-0.023375577181599997	blockFiles/set_48/main_unc/leftBlue\GB_LB_5.xlsx
271	main_unc	True	0.0	139	0	0.0	0.0	0.0	1	left	2.0	1.0	1.0	0	-0.047899739537399996	blockFiles/set_48/main_unc/leftBlue\GB_LB_5.xlsx
272	main_unc	True	0.0	139	0	0.0	0.0	1.0	0	right	2.0	1.0	1.0	0	-0.0037551487796000003	blockFiles/set_48/main_unc/leftBlue\GB_LB_5.xlsx
273	main_unc	True	0.0	139	0	0.0	0.0	0.0	1	left	2.0	1.0	1.0	0	-0.056757517605999994	blockFiles/set_48/main_unc/leftBlue\GB_LB_5.xlsx
274	main_unc	True	0.0	139	0	0.0	0.0	1.0	1	right	1.0	1.0	1.0	1	0.06889848420400001	blockFiles/set_48/main_unc/leftBlue\GB_LB_5.xlsx
275	main_unc	True	0.0	139	0	0.0	0.0	1.0	1	right	2.0	1.0	0.0	1	0.0026281915791300002	blockFiles/set_48/main_unc/leftBlue\GB_LB_5.xlsx
276	main_unc	True	0.0	139	0	0.0	0.0	0.0	1	left	2.0	1.0	1.0	0	-0.0618911519833	blockFiles/set_48/main_unc/leftBlue\GB_LB_5.xlsx
277	main_unc	True	0.0	139	0	0.0	0.0	1.0	1	right	1.0	0.0	1.0	1	0.0270261204243	blockFiles/set_48/main_unc/leftBlue\GB_LB_5.xlsx
278	main_unc	True	0.0	139	0	0.0	0.0	0.0	1	left	2.0	1.0	1.0	0	-0.0699759201519	blockFiles/set_48/main_unc/leftBlue\GB_LB_5.xlsx
279	main_unc	True	0.0	139	0	0.0	0.0	0.0	1	left	2.0	1.0	1.0	0	-0.048142201025	blockFiles/set_48/main_unc/leftBlue\GB_LB_5.xlsx
280	main_unc	True	0.0	139	0	1.0	1.0	0.0	1	left	1.0	0.0	0.0	0	-0.0077936309576	blockFiles/set_48/main_unc/leftBlue\GB_LB_6.xlsx
281	main_unc	True	0.0	139	0	1.0	1.0	0.0	1	left	2.0	0.0	1.0	0	-0.0784642455727	blockFiles/set_48/main_unc/leftBlue\GB_LB_6.xlsx
282	main_unc	True	0.0	139	0	1.0	1.0	0.0	1	left	2.0	1.0	1.0	0	-0.011926481705200002	blockFiles/set_48/main_unc/leftBlue\GB_LB_6.xlsx
283	main_unc	True	0.0	139	0	1.0	1.0	1.0	1	right	2.0	0.0	0.0	1	0.000373469404876	blockFiles/set_48/main_unc/leftBlue\GB_LB_6.xlsx
284	main_unc	True	0.0	139	0	1.0	1.0	0.0	1	left	2.0	0.0	1.0	0	-0.0257391797565	blockFiles/set_48/main_unc/leftBlue\GB_LB_6.xlsx
285	main_unc	True	0.0	139	0	1.0	1.0	0.0	1	left	1.0	0.0	0.0	0	-0.0523918258771	blockFiles/set_48/main_unc/leftBlue\GB_LB_6.xlsx
286	main_unc	True	0.0	139	0	1.0	1.0	0.0	1	left	2.0	1.0	1.0	0	-0.0484464665316	blockFiles/set_48/main_unc/leftBlue\GB_LB_6.xlsx
287	main_unc	True	0.0	139	0	1.0	1.0	0.0	0	left	2.0	0.0	0.0	1	0.023941076919400003	blockFiles/set_48/main_unc/leftBlue\GB_LB_6.xlsx
288	main_unc	True	0.0	139	0	1.0	1.0	1.0	1	right	1.0	0.0	1.0	1	0.07277905426919999	blockFiles/set_48/main_unc/leftBlue\GB_LB_6.xlsx
289	main_unc	True	0.0	139	0	1.0	1.0	0.0	1	left	2.0	1.0	1.0	0	-0.0613801585697	blockFiles/set_48/main_unc/leftBlue\GB_LB_6.xlsx
290	main_unc	True	0.0	139	0	1.0	1.0	1.0	1	right	1.0	1.0	1.0	1	0.0680945698917	blockFiles/set_48/main_unc/leftBlue\GB_LB_6.xlsx
291	main_unc	True	0.0	139	0	1.0	1.0	0.0	0	left	2.0	0.0	0.0	1	0.014555573351700001	blockFiles/set_48/main_unc/leftBlue\GB_LB_6.xlsx
292	main_unc	True	0.0	139	0	1.0	1.0	1.0	0	right	2.0	1.0	1.0	0	-0.043955585435	blockFiles/set_48/main_unc/leftBlue\GB_LB_6.xlsx
293	main_unc	True	0.0	139	0	1.0	1.0	1.0	1	right	1.0	1.0	1.0	1	0.0413107371703	blockFiles/set_48/main_unc/leftBlue\GB_LB_6.xlsx
294	main_unc	True	0.0	139	0	1.0	1.0	1.0	1	right	1.0	1.0	1.0	1	0.039634256921699994	blockFiles/set_48/main_unc/leftBlue\GB_LB_6.xlsx
295	main_unc	True	0.0	139	0	1.0	1.0	0.0	0	left	1.0	1.0	1.0	1	0.00668930586427	blockFiles/set_48/main_unc/leftBlue\GB_LB_6.xlsx
296	main_unc	True	0.0	139	0	1.0	1.0	0.0	1	left	2.0	1.0	1.0	0	-0.0608212485351	blockFiles/set_48/main_unc/leftBlue\GB_LB_6.xlsx
297	main_unc	True	0.0	139	0	1.0	1.0	1.0	1	right	1.0	0.0	1.0	1	0.027797732856099995	blockFiles/set_48/main_unc/leftBlue\GB_LB_6.xlsx
298	main_unc	True	0.0	139	0	1.0	1.0	1.0	1	right	1.0	1.0	1.0	1	0.0690217956342	blockFiles/set_48/main_unc/leftBlue\GB_LB_6.xlsx
299	main_unc	True	0.0	139	0	1.0	1.0	0.0	1	left	2.0	1.0	1.0	0	-0.0150920290686	blockFiles/set_48/main_unc/leftBlue\GB_LB_6.xlsx
300	main_unc	True	0.0	139	0	1.0	1.0	0.0	1	left	2.0	1.0	1.0	0	-0.0386405883729	blockFiles/set_48/main_unc/leftBlue\GB_LB_6.xlsx
301	main_unc	True	0.0	139	0	1.0	1.0	1.0	1	right	1.0	1.0	1.0	1	0.0646500425041	blockFiles/set_48/main_unc/leftBlue\GB_LB_6.xlsx
302	main_unc	True	0.0	139	0	1.0	1.0	1.0	0	right	2.0	1.0	1.0	0	-0.014874411001799998	blockFiles/set_48/main_unc/leftBlue\GB_LB_6.xlsx
303	main_unc	True	0.0	139	0	1.0	1.0	1.0	1	right	1.0	1.0	1.0	1	0.0495258512534	blockFiles/set_48/main_unc/leftBlue\GB_LB_6.xlsx
304	main_unc	True	0.0	139	0	1.0	1.0	0.0	1	left	2.0	1.0	1.0	0	-0.0404525580816	blockFiles/set_48/main_unc/leftBlue\GB_LB_6.xlsx
305	main_unc	True	1.0	139	0	2.0	2.0	n/a	0	None	n/a	0.0	n/a	1	0.0177260841243	blockFiles/set_48/main_unc/rightBlue\GB_RB_2.xlsx
306	main_unc	True	0.0	139	0	2.0	2.0	1.0	1	right	1.0	0.0	0.0	1	0.0477570782974	blockFiles/set_48/main_unc/rightBlue\GB_RB_2.xlsx
307	main_unc	True	0.0	139	0	2.0	2.0	0.0	0	left	2.0	1.0	1.0	1	0.025087364465	blockFiles/set_48/main_unc/rightBlue\GB_RB_2.xlsx
308	main_unc	True	0.0	139	0	2.0	2.0	0.0	1	left	2.0	0.0	0.0	0	-0.034800766129	blockFiles/set_48/main_unc/rightBlue\GB_RB_2.xlsx
309	main_unc	True	0.0	139	0	2.0	2.0	1.0	1	right	2.0	0.0	1.0	1	0.00216214627028	blockFiles/set_48/main_unc/rightBlue\GB_RB_2.xlsx
310	main_unc	True	0.0	139	0	2.0	2.0	0.0	0	left	1.0	0.0	0.0	1	0.045378746129599995	blockFiles/set_48/main_unc/rightBlue\GB_RB_2.xlsx
311	main_unc	True	0.0	139	0	2.0	2.0	0.0	1	left	1.0	0.0	1.0	0	-0.06526978489009999	blockFiles/set_48/main_unc/rightBlue\GB_RB_2.xlsx
312	main_unc	True	0.0	139	0	2.0	2.0	0.0	1	left	2.0	0.0	0.0	0	-0.026719237025799997	blockFiles/set_48/main_unc/rightBlue\GB_RB_2.xlsx
313	main_unc	True	0.0	139	0	2.0	2.0	1.0	1	right	2.0	1.0	1.0	1	0.07916200052950001	blockFiles/set_48/main_unc/rightBlue\GB_RB_2.xlsx
314	main_unc	True	0.0	139	0	2.0	2.0	0.0	1	left	1.0	1.0	1.0	0	-0.040425923485300004	blockFiles/set_48/main_unc/rightBlue\GB_RB_2.xlsx
315	main_unc	True	0.0	139	0	2.0	2.0	1.0	0	right	2.0	0.0	0.0	0	-0.022154171168800002	blockFiles/set_48/main_unc/rightBlue\GB_RB_2.xlsx
316	main_unc	True	0.0	139	0	2.0	2.0	1.0	1	right	2.0	1.0	1.0	1	0.0549750375934	blockFiles/set_48/main_unc/rightBlue\GB_RB_2.xlsx
317	main_unc	True	0.0	139	0	2.0	2.0	0.0	0	left	1.0	0.0	0.0	1	0.029338302202499996	blockFiles/set_48/main_unc/rightBlue\GB_RB_2.xlsx
318	main_unc	True	0.0	139	0	2.0	2.0	0.0	1	left	1.0	0.0	1.0	0	-0.0727878225595	blockFiles/set_48/main_unc/rightBlue\GB_RB_2.xlsx
319	main_unc	True	0.0	139	0	2.0	2.0	0.0	1	left	1.0	1.0	1.0	0	-0.0501958039217	blockFiles/set_48/main_unc/rightBlue\GB_RB_2.xlsx
320	main_unc	True	0.0	139	0	2.0	2.0	0.0	0	left	1.0	0.0	0.0	1	0.030956835486	blockFiles/set_48/main_unc/rightBlue\GB_RB_2.xlsx
321	main_unc	True	0.0	139	0	2.0	2.0	0.0	1	left	1.0	1.0	1.0	0	-0.0703234403022	blockFiles/set_48/main_unc/rightBlue\GB_RB_2.xlsx
322	main_unc	True	0.0	139	0	2.0	2.0	1.0	0	right	1.0	1.0	1.0	0	-0.005897134225819999	blockFiles/set_48/main_unc/rightBlue\GB_RB_2.xlsx
323	main_unc	True	0.0	139	0	2.0	2.0	0.0	1	left	1.0	1.0	1.0	0	-0.0296543396078	blockFiles/set_48/main_unc/rightBlue\GB_RB_2.xlsx
324	main_unc	True	0.0	139	0	2.0	2.0	0.0	1	left	1.0	1.0	1.0	0	-0.0227084568329	blockFiles/set_48/main_unc/rightBlue\GB_RB_2.xlsx
325	main_unc	True	0.0	139	0	2.0	2.0	1.0	1	right	2.0	1.0	1.0	1	0.051799931954600004	blockFiles/set_48/main_unc/rightBlue\GB_RB_2.xlsx
326	main_unc	True	0.0	139	0	2.0	2.0	1.0	1	right	2.0	1.0	1.0	1	0.066715453621	blockFiles/set_48/main_unc/rightBlue\GB_RB_2.xlsx
327	main_unc	True	0.0	139	0	2.0	2.0	0.0	1	left	1.0	1.0	1.0	0	-0.057813790515099994	blockFiles/set_48/main_unc/rightBlue\GB_RB_2.xlsx
328	main_unc	True	0.0	139	0	2.0	2.0	1.0	0	right	1.0	0.0	1.0	0	-0.0168526869453	blockFiles/set_48/main_unc/rightBlue\GB_RB_2.xlsx
329	main_unc	True	0.0	139	0	2.0	2.0	1.0	1	right	2.0	0.0	1.0	1	0.0531406895071	blockFiles/set_48/main_unc/rightBlue\GB_RB_2.xlsx
330	main_unc	True	0.0	139	0	2.0	2.0	1.0	1	right	2.0	0.0	1.0	1	0.0177260841243	blockFiles/set_48/main_unc/rightBlue\GB_RB_2.xlsx
331	main_unc	True	0.0	139	0	3.0	3.0	0.0	1	left	1.0	0.0	0.0	0	-0.012437436264	blockFiles/set_48/main_unc/leftBlue\GB_LB_4.xlsx
332	main_unc	True	0.0	139	0	3.0	3.0	0.0	1	left	1.0	0.0	0.0	0	-0.0481996531971	blockFiles/set_48/main_unc/leftBlue\GB_LB_4.xlsx
333	main_unc	True	0.0	139	0	3.0	3.0	1.0	1	right	2.0	1.0	0.0	1	0.0637228050269	blockFiles/set_48/main_unc/leftBlue\GB_LB_4.xlsx
334	main_unc	True	0.0	139	0	3.0	3.0	1.0	1	right	2.0	0.0	0.0	1	0.0498750499077	blockFiles/set_48/main_unc/leftBlue\GB_LB_4.xlsx
335	main_unc	True	0.0	139	0	3.0	3.0	1.0	1	right	2.0	1.0	0.0	1	0.00937455384061	blockFiles/set_48/main_unc/leftBlue\GB_LB_4.xlsx
336	main_unc	True	0.0	139	0	3.0	3.0	0.0	1	left	1.0	0.0	0.0	0	-0.022279588934	blockFiles/set_48/main_unc/leftBlue\GB_LB_4.xlsx
337	main_unc	True	0.0	139	0	3.0	3.0	1.0	1	right	2.0	0.0	0.0	1	0.0419357275404	blockFiles/set_48/main_unc/leftBlue\GB_LB_4.xlsx
338	main_unc	True	0.0	139	0	3.0	3.0	1.0	1	right	2.0	1.0	0.0	1	0.0442955284193	blockFiles/set_48/main_unc/leftBlue\GB_LB_4.xlsx
339	main_unc	True	0.0	139	0	3.0	3.0	0.0	1	left	1.0	0.0	0.0	0	-0.021778684761399998	blockFiles/set_48/main_unc/leftBlue\GB_LB_4.xlsx
340	main_unc	True	0.0	139	0	3.0	3.0	1.0	1	right	2.0	0.0	0.0	1	0.04932711659	blockFiles/set_48/main_unc/leftBlue\GB_LB_4.xlsx
341	main_unc	True	0.0	139	0	3.0	3.0	0.0	1	left	1.0	0.0	0.0	0	-0.011418294012500002	blockFiles/set_48/main_unc/leftBlue\GB_LB_4.xlsx
342	main_unc	True	0.0	139	0	3.0	3.0	1.0	1	right	2.0	0.0	0.0	1	0.0647637499124	blockFiles/set_48/main_unc/leftBlue\GB_LB_4.xlsx
343	main_unc	True	0.0	139	0	3.0	3.0	0.0	1	left	1.0	0.0	0.0	0	-0.06339802403	blockFiles/set_48/main_unc/leftBlue\GB_LB_4.xlsx
344	main_unc	True	0.0	139	0	3.0	3.0	0.0	1	left	2.0	1.0	1.0	0	-0.00795631749555	blockFiles/set_48/main_unc/leftBlue\GB_LB_4.xlsx
345	main_unc	True	0.0	139	0	3.0	3.0	0.0	1	left	2.0	0.0	1.0	0	-0.0155799866468	blockFiles/set_48/main_unc/leftBlue\GB_LB_4.xlsx
346	main_unc	True	0.0	139	0	3.0	3.0	1.0	1	right	2.0	0.0	0.0	1	0.0650722176582	blockFiles/set_48/main_unc/leftBlue\GB_LB_4.xlsx
347	main_unc	True	0.0	139	0	3.0	3.0	0.0	0	left	2.0	0.0	0.0	1	0.0370074376464	blockFiles/set_48/main_unc/leftBlue\GB_LB_4.xlsx
348	main_unc	True	0.0	139	0	3.0	3.0	1.0	1	right	2.0	1.0	0.0	1	0.0728364666179	blockFiles/set_48/main_unc/leftBlue\GB_LB_4.xlsx
349	main_unc	True	0.0	139	0	3.0	3.0	0.0	1	left	1.0	1.0	0.0	0	-0.0357850303873	blockFiles/set_48/main_unc/leftBlue\GB_LB_4.xlsx
350	main_unc	True	0.0	139	0	3.0	3.0	0.0	1	left	1.0	0.0	0.0	0	-0.0727219711058	blockFiles/set_48/main_unc/leftBlue\GB_LB_4.xlsx
351	main_unc	True	0.0	139	0	3.0	3.0	1.0	0	right	2.0	1.0	1.0	0	-0.0009625075012450001	blockFiles/set_48/main_unc/leftBlue\GB_LB_4.xlsx
352	main_unc	True	0.0	139	0	3.0	3.0	1.0	0	right	2.0	1.0	1.0	0	-0.0222121905535	blockFiles/set_48/main_unc/leftBlue\GB_LB_4.xlsx
353	main_unc	True	0.0	139	0	3.0	3.0	1.0	1	right	2.0	0.0	0.0	1	0.0248993856646	blockFiles/set_48/main_unc/leftBlue\GB_LB_4.xlsx
354	main_unc	True	0.0	139	0	3.0	3.0	1.0	1	right	1.0	1.0	1.0	1	0.0326310862601	blockFiles/set_48/main_unc/leftBlue\GB_LB_4.xlsx
355	main_unc	True	0.0	139	0	3.0	3.0	0.0	1	left	1.0	0.0	0.0	0	-0.07572174916039999	blockFiles/set_48/main_unc/leftBlue\GB_LB_4.xlsx
356	main_unc	True	1.0	139	0	4.0	4.0	n/a	0	None	n/a	0.0	n/a	1	0.030041685942599997	blockFiles/set_48/main_unc/leftBlue\GB_LB_2.xlsx
357	main_unc	True	0.0	139	0	4.0	4.0	1.0	1	right	2.0	0.0	0.0	1	0.0437043406628	blockFiles/set_48/main_unc/leftBlue\GB_LB_2.xlsx
358	main_unc	True	0.0	139	0	4.0	4.0	0.0	1	left	1.0	0.0	0.0	0	-0.0440448951349	blockFiles/set_48/main_unc/leftBlue\GB_LB_2.xlsx
359	main_unc	True	0.0	139	0	4.0	4.0	1.0	1	right	1.0	1.0	1.0	1	0.060629630088800006	blockFiles/set_48/main_unc/leftBlue\GB_LB_2.xlsx
360	main_unc	True	0.0	139	0	4.0	4.0	0.0	1	left	2.0	0.0	1.0	0	-0.0312801938318	blockFiles/set_48/main_unc/leftBlue\GB_LB_2.xlsx
361	main_unc	True	0.0	139	0	4.0	4.0	0.0	1	left	2.0	0.0	1.0	0	-0.034805610925	blockFiles/set_48/main_unc/leftBlue\GB_LB_2.xlsx
362	main_unc	True	0.0	139	0	4.0	4.0	0.0	1	left	1.0	0.0	0.0	0	-0.043060402888799997	blockFiles/set_48/main_unc/leftBlue\GB_LB_2.xlsx
363	main_unc	True	0.0	139	0	4.0	4.0	1.0	1	right	2.0	1.0	0.0	1	0.0196003833227	blockFiles/set_48/main_unc/leftBlue\GB_LB_2.xlsx
364	main_unc	True	0.0	139	0	4.0	4.0	0.0	1	left	1.0	0.0	0.0	0	-0.039620052166300004	blockFiles/set_48/main_unc/leftBlue\GB_LB_2.xlsx
365	main_unc	True	0.0	139	0	4.0	4.0	0.0	1	left	2.0	1.0	1.0	0	-0.0670873754285	blockFiles/set_48/main_unc/leftBlue\GB_LB_2.xlsx
366	main_unc	True	0.0	139	0	4.0	4.0	1.0	1	right	1.0	1.0	1.0	1	0.0276656959765	blockFiles/set_48/main_unc/leftBlue\GB_LB_2.xlsx
367	main_unc	True	0.0	139	0	4.0	4.0	1.0	1	right	1.0	1.0	1.0	1	0.0720781829022	blockFiles/set_48/main_unc/leftBlue\GB_LB_2.xlsx
368	main_unc	True	0.0	139	0	4.0	4.0	0.0	1	left	2.0	0.0	1.0	0	-0.043768628612199996	blockFiles/set_48/main_unc/leftBlue\GB_LB_2.xlsx
369	main_unc	True	0.0	139	0	4.0	4.0	0.0	1	left	2.0	1.0	1.0	0	-0.0161163416691	blockFiles/set_48/main_unc/leftBlue\GB_LB_2.xlsx
370	main_unc	True	0.0	139	0	4.0	4.0	1.0	1	right	1.0	1.0	1.0	1	0.038525706175699996	blockFiles/set_48/main_unc/leftBlue\GB_LB_2.xlsx
371	main_unc	True	0.0	139	0	4.0	4.0	1.0	1	right	2.0	0.0	0.0	1	0.012714853659299998	blockFiles/set_48/main_unc/leftBlue\GB_LB_2.xlsx
372	main_unc	True	0.0	139	0	4.0	4.0	0.0	1	left	2.0	1.0	1.0	0	-0.0797502768412	blockFiles/set_48/main_unc/leftBlue\GB_LB_2.xlsx
373	main_unc	True	0.0	139	0	4.0	4.0	1.0	1	right	1.0	0.0	1.0	1	0.0473140031286	blockFiles/set_48/main_unc/leftBlue\GB_LB_2.xlsx
374	main_unc	True	0.0	139	0	4.0	4.0	1.0	1	right	1.0	1.0	1.0	1	0.071179673411	blockFiles/set_48/main_unc/leftBlue\GB_LB_2.xlsx
375	main_unc	True	0.0	139	0	4.0	4.0	0.0	0	left	2.0	0.0	0.0	1	0.00262514743954	blockFiles/set_48/main_unc/leftBlue\GB_LB_2.xlsx
376	main_unc	True	0.0	139	0	4.0	4.0	0.0	1	left	2.0	1.0	1.0	0	-0.0331071877107	blockFiles/set_48/main_unc/leftBlue\GB_LB_2.xlsx
377	main_unc	True	0.0	139	0	4.0	4.0	1.0	1	right	1.0	1.0	1.0	1	0.0484758435935	blockFiles/set_48/main_unc/leftBlue\GB_LB_2.xlsx
378	main_unc	True	0.0	139	0	4.0	4.0	0.0	0	left	2.0	0.0	0.0	1	0.00185635004193	blockFiles/set_48/main_unc/leftBlue\GB_LB_2.xlsx
379	main_unc	True	0.0	139	0	4.0	4.0	0.0	1	left	2.0	0.0	1.0	0	-0.0146278188191	blockFiles/set_48/main_unc/leftBlue\GB_LB_2.xlsx
380	main_unc	True	0.0	139	0	4.0	4.0	0.0	1	left	2.0	1.0	1.0	0	-0.06305757777769999	blockFiles/set_48/main_unc/leftBlue\GB_LB_2.xlsx
381	main_unc	True	0.0	139	0	4.0	4.0	1.0	1	right	1.0	1.0	1.0	1	0.030041685942599997	blockFiles/set_48/main_unc/leftBlue\GB_LB_2.xlsx
382	main_unc	True	0.0	139	0	5.0	5.0	0.0	0	left	2.0	1.0	1.0	1	0.013313409201799999	blockFiles/set_48/main_unc/rightBlue\GB_RB_3.xlsx
383	main_unc	True	0.0	139	0	5.0	5.0	0.0	1	left	2.0	0.0	0.0	0	-0.0174214204215	blockFiles/set_48/main_unc/rightBlue\GB_RB_3.xlsx
384	main_unc	True	0.0	139	0	5.0	5.0	1.0	1	right	1.0	1.0	0.0	1	0.043536299243599995	blockFiles/set_48/main_unc/rightBlue\GB_RB_3.xlsx
385	main_unc	True	0.0	139	0	5.0	5.0	1.0	1	right	1.0	0.0	0.0	1	0.0594361275248	blockFiles/set_48/main_unc/rightBlue\GB_RB_3.xlsx
386	main_unc	True	0.0	139	0	5.0	5.0	0.0	1	left	2.0	1.0	0.0	0	-0.033103065677	blockFiles/set_48/main_unc/rightBlue\GB_RB_3.xlsx
387	main_unc	True	0.0	139	0	5.0	5.0	1.0	1	right	1.0	0.0	0.0	1	0.046338385660199995	blockFiles/set_48/main_unc/rightBlue\GB_RB_3.xlsx
388	main_unc	True	0.0	139	0	5.0	5.0	1.0	1	right	1.0	0.0	0.0	1	0.0113778971508	blockFiles/set_48/main_unc/rightBlue\GB_RB_3.xlsx
389	main_unc	True	0.0	139	0	5.0	5.0	1.0	1	right	1.0	0.0	0.0	1	0.0556898252293	blockFiles/set_48/main_unc/rightBlue\GB_RB_3.xlsx
390	main_unc	True	0.0	139	0	5.0	5.0	0.0	0	left	1.0	1.0	0.0	1	0.030332400407599998	blockFiles/set_48/main_unc/rightBlue\GB_RB_3.xlsx
391	main_unc	True	0.0	139	0	5.0	5.0	1.0	1	right	1.0	1.0	0.0	1	0.046425083521800005	blockFiles/set_48/main_unc/rightBlue\GB_RB_3.xlsx
392	main_unc	True	0.0	139	0	5.0	5.0	0.0	1	left	2.0	0.0	0.0	0	-0.0610884542018	blockFiles/set_48/main_unc/rightBlue\GB_RB_3.xlsx
393	main_unc	True	0.0	139	0	5.0	5.0	0.0	1	left	2.0	0.0	0.0	0	-0.00923096969724	blockFiles/set_48/main_unc/rightBlue\GB_RB_3.xlsx
394	main_unc	True	0.0	139	0	5.0	5.0	0.0	1	left	2.0	0.0	0.0	0	-0.0737842284515	blockFiles/set_48/main_unc/rightBlue\GB_RB_3.xlsx
395	main_unc	True	0.0	139	0	5.0	5.0	1.0	1	right	1.0	0.0	0.0	1	0.062125008720899995	blockFiles/set_48/main_unc/rightBlue\GB_RB_3.xlsx
396	main_unc	True	0.0	139	0	5.0	5.0	0.0	1	left	2.0	0.0	0.0	0	-0.026296380981799997	blockFiles/set_48/main_unc/rightBlue\GB_RB_3.xlsx
397	main_unc	True	0.0	139	0	5.0	5.0	0.0	1	left	2.0	0.0	0.0	0	-0.017743194010099998	blockFiles/set_48/main_unc/rightBlue\GB_RB_3.xlsx
398	main_unc	True	0.0	139	0	5.0	5.0	0.0	1	left	2.0	0.0	0.0	0	-0.0600683943182	blockFiles/set_48/main_unc/rightBlue\GB_RB_3.xlsx
399	main_unc	True	0.0	139	0	5.0	5.0	1.0	0	right	2.0	0.0	0.0	0	-0.00416416246444	blockFiles/set_48/main_unc/rightBlue\GB_RB_3.xlsx
400	main_unc	True	1.0	139	0	5.0	5.0	n/a	0	None	n/a	0.0	n/a	1	0.0111963774823	blockFiles/set_48/main_unc/rightBlue\GB_RB_3.xlsx
401	main_unc	True	0.0	139	0	5.0	5.0	0.0	1	left	1.0	1.0	1.0	0	-0.0690498677827	blockFiles/set_48/main_unc/rightBlue\GB_RB_3.xlsx
402	main_unc	True	0.0	139	0	5.0	5.0	0.0	0	left	1.0	0.0	0.0	1	0.024971079714599997	blockFiles/set_48/main_unc/rightBlue\GB_RB_3.xlsx
403	main_unc	True	0.0	139	0	5.0	5.0	1.0	1	right	2.0	1.0	1.0	1	0.079112435095	blockFiles/set_48/main_unc/rightBlue\GB_RB_3.xlsx
404	main_unc	True	0.0	139	0	5.0	5.0	1.0	1	right	2.0	1.0	1.0	1	0.05027137426659999	blockFiles/set_48/main_unc/rightBlue\GB_RB_3.xlsx
405	main_unc	True	0.0	139	0	5.0	5.0	0.0	1	left	1.0	1.0	1.0	0	-0.0100038653985	blockFiles/set_48/main_unc/rightBlue\GB_RB_3.xlsx
406	main_unc	True	0.0	139	0	5.0	5.0	0.0	1	left	1.0	0.0	1.0	0	-0.026764254756299996	blockFiles/set_48/main_unc/rightBlue\GB_RB_3.xlsx
407	main_unc	True	0.0	139	0	5.0	5.0	1.0	1	right	2.0	1.0	1.0	1	0.0111963774823	blockFiles/set_48/main_unc/rightBlue\GB_RB_3.xlsx
408	main_unc	True	0.0	139	0	6.0	6.0	1.0	1	right	2.0	1.0	1.0	1	0.04960842283440001	blockFiles/set_48/main_unc/rightBlue\GB_RB_6.xlsx
409	main_unc	True	0.0	139	0	6.0	6.0	0.0	1	left	1.0	1.0	1.0	0	-0.0184223526902	blockFiles/set_48/main_unc/rightBlue\GB_RB_6.xlsx
410	main_unc	True	0.0	139	0	6.0	6.0	0.0	1	left	1.0	1.0	1.0	0	-0.0124013991095	blockFiles/set_48/main_unc/rightBlue\GB_RB_6.xlsx
411	main_unc	True	0.0	139	0	6.0	6.0	1.0	1	right	2.0	0.0	1.0	1	0.07346400169660001	blockFiles/set_48/main_unc/rightBlue\GB_RB_6.xlsx
412	main_unc	True	0.0	139	0	6.0	6.0	1.0	1	right	2.0	1.0	1.0	1	0.06268926540389999	blockFiles/set_48/main_unc/rightBlue\GB_RB_6.xlsx
413	main_unc	True	0.0	139	0	6.0	6.0	0.0	0	left	1.0	0.0	0.0	1	0.00488213868812	blockFiles/set_48/main_unc/rightBlue\GB_RB_6.xlsx
414	main_unc	True	0.0	139	0	6.0	6.0	0.0	1	left	1.0	0.0	1.0	0	-0.0378701112792	blockFiles/set_48/main_unc/rightBlue\GB_RB_6.xlsx
415	main_unc	True	0.0	139	0	6.0	6.0	1.0	0	right	1.0	1.0	1.0	0	-0.012105857823	blockFiles/set_48/main_unc/rightBlue\GB_RB_6.xlsx
416	main_unc	True	0.0	139	0	6.0	6.0	1.0	1	right	2.0	1.0	1.0	1	0.0315544358641	blockFiles/set_48/main_unc/rightBlue\GB_RB_6.xlsx
417	main_unc	True	0.0	139	0	6.0	6.0	0.0	1	left	1.0	0.0	1.0	0	-0.0685661780648	blockFiles/set_48/main_unc/rightBlue\GB_RB_6.xlsx
418	main_unc	True	0.0	139	0	6.0	6.0	0.0	1	left	1.0	1.0	1.0	0	-0.035924123656	blockFiles/set_48/main_unc/rightBlue\GB_RB_6.xlsx
419	main_unc	True	0.0	139	0	6.0	6.0	0.0	1	left	1.0	0.0	1.0	0	-0.00525415098295	blockFiles/set_48/main_unc/rightBlue\GB_RB_6.xlsx
420	main_unc	True	0.0	139	0	6.0	6.0	1.0	1	right	2.0	1.0	1.0	1	0.0758037250116	blockFiles/set_48/main_unc/rightBlue\GB_RB_6.xlsx
421	main_unc	True	0.0	139	0	6.0	6.0	0.0	1	left	2.0	0.0	0.0	0	-0.010687433816500001	blockFiles/set_48/main_unc/rightBlue\GB_RB_6.xlsx
422	main_unc	True	0.0	139	0	6.0	6.0	0.0	1	left	1.0	1.0	1.0	0	-0.0116759667732	blockFiles/set_48/main_unc/rightBlue\GB_RB_6.xlsx
423	main_unc	True	0.0	139	0	6.0	6.0	0.0	1	left	1.0	1.0	1.0	0	-0.0511642454192	blockFiles/set_48/main_unc/rightBlue\GB_RB_6.xlsx
424	main_unc	True	0.0	139	0	6.0	6.0	0.0	1	left	1.0	1.0	1.0	0	-0.0407480688207	blockFiles/set_48/main_unc/rightBlue\GB_RB_6.xlsx
425	main_unc	True	0.0	139	0	6.0	6.0	0.0	0	left	2.0	1.0	1.0	1	0.06442637465890001	blockFiles/set_48/main_unc/rightBlue\GB_RB_6.xlsx
426	main_unc	True	0.0	139	0	6.0	6.0	1.0	1	right	2.0	1.0	1.0	1	0.0422090391256	blockFiles/set_48/main_unc/rightBlue\GB_RB_6.xlsx
427	main_unc	True	0.0	139	0	6.0	6.0	0.0	0	left	2.0	1.0	1.0	1	0.0166415158287	blockFiles/set_48/main_unc/rightBlue\GB_RB_6.xlsx
428	main_unc	True	0.0	139	0	6.0	6.0	1.0	1	right	2.0	0.0	1.0	1	0.074700002335	blockFiles/set_48/main_unc/rightBlue\GB_RB_6.xlsx
429	main_unc	True	0.0	139	0	6.0	6.0	0.0	0	left	1.0	0.0	0.0	1	0.018325621392599998	blockFiles/set_48/main_unc/rightBlue\GB_RB_6.xlsx
430	main_unc	True	0.0	139	0	6.0	6.0	1.0	1	right	2.0	1.0	1.0	1	0.0459078405425	blockFiles/set_48/main_unc/rightBlue\GB_RB_6.xlsx
431	main_unc	True	0.0	139	0	6.0	6.0	0.0	0	left	1.0	0.0	0.0	1	0.00492971954867	blockFiles/set_48/main_unc/rightBlue\GB_RB_6.xlsx
432	main_unc	True	0.0	139	0	6.0	6.0	1.0	1	right	1.0	0.0	0.0	1	0.0245423139445	blockFiles/set_48/main_unc/rightBlue\GB_RB_6.xlsx
433	main_unc	True	0.0	139	0	7.0	7.0	0.0	1	left	1.0	1.0	0.0	0	-0.0175013353303	blockFiles/set_48/main_unc/leftBlue\GB_LB_1.xlsx
434	main_unc	True	0.0	139	0	7.0	7.0	0.0	1	left	1.0	0.0	0.0	0	-0.0478730164468	blockFiles/set_48/main_unc/leftBlue\GB_LB_1.xlsx
435	main_unc	True	0.0	139	0	7.0	7.0	1.0	1	right	2.0	0.0	0.0	1	0.0521986449696	blockFiles/set_48/main_unc/leftBlue\GB_LB_1.xlsx
436	main_unc	True	0.0	139	0	7.0	7.0	0.0	0	left	2.0	1.0	0.0	1	0.00131384082139	blockFiles/set_48/main_unc/leftBlue\GB_LB_1.xlsx
437	main_unc	True	0.0	139	0	7.0	7.0	0.0	1	left	2.0	1.0	1.0	0	-0.0448401975632	blockFiles/set_48/main_unc/leftBlue\GB_LB_1.xlsx
438	main_unc	True	0.0	139	0	7.0	7.0	0.0	1	left	2.0	1.0	1.0	0	-0.0329687185958	blockFiles/set_48/main_unc/leftBlue\GB_LB_1.xlsx
439	main_unc	True	0.0	139	0	7.0	7.0	1.0	1	right	1.0	1.0	1.0	1	0.0463987799175	blockFiles/set_48/main_unc/leftBlue\GB_LB_1.xlsx
440	main_unc	True	0.0	139	0	7.0	7.0	0.0	1	left	2.0	1.0	1.0	0	-0.040214843601	blockFiles/set_48/main_unc/leftBlue\GB_LB_1.xlsx
441	main_unc	True	0.0	139	0	7.0	7.0	1.0	1	right	1.0	1.0	1.0	1	0.0314418115281	blockFiles/set_48/main_unc/leftBlue\GB_LB_1.xlsx
442	main_unc	True	0.0	139	0	7.0	7.0	0.0	0	left	1.0	1.0	1.0	1	0.03466353429480001	blockFiles/set_48/main_unc/leftBlue\GB_LB_1.xlsx
443	main_unc	True	0.0	139	0	7.0	7.0	0.0	1	left	2.0	0.0	1.0	0	-0.0772678973712	blockFiles/set_48/main_unc/leftBlue\GB_LB_1.xlsx
444	main_unc	True	0.0	139	0	7.0	7.0	1.0	1	right	1.0	1.0	1.0	1	0.0385713170096	blockFiles/set_48/main_unc/leftBlue\GB_LB_1.xlsx
445	main_unc	True	0.0	139	0	7.0	7.0	0.0	1	left	2.0	1.0	1.0	0	-0.0502282534167	blockFiles/set_48/main_unc/leftBlue\GB_LB_1.xlsx
446	main_unc	True	0.0	139	0	7.0	7.0	0.0	1	left	2.0	1.0	1.0	0	-0.0414182850905	blockFiles/set_48/main_unc/leftBlue\GB_LB_1.xlsx
447	main_unc	True	0.0	139	0	7.0	7.0	1.0	1	right	1.0	1.0	1.0	1	0.0423593569361	blockFiles/set_48/main_unc/leftBlue\GB_LB_1.xlsx
448	main_unc	True	0.0	139	0	7.0	7.0	0.0	1	left	2.0	1.0	1.0	0	-0.0651901013032	blockFiles/set_48/main_unc/leftBlue\GB_LB_1.xlsx
449	main_unc	True	0.0	139	0	7.0	7.0	1.0	1	right	1.0	0.0	1.0	1	0.00356303136796	blockFiles/set_48/main_unc/leftBlue\GB_LB_1.xlsx
450	main_unc	True	0.0	139	0	7.0	7.0	0.0	1	left	2.0	0.0	1.0	0	-0.06861073166130001	blockFiles/set_48/main_unc/leftBlue\GB_LB_1.xlsx
451	main_unc	True	0.0	139	0	7.0	7.0	0.0	1	left	2.0	1.0	1.0	0	-0.020308798216299998	blockFiles/set_48/main_unc/leftBlue\GB_LB_1.xlsx
452	main_unc	True	0.0	139	0	7.0	7.0	0.0	1	left	2.0	1.0	1.0	0	-0.00695885442197	blockFiles/set_48/main_unc/leftBlue\GB_LB_1.xlsx
453	main_unc	True	0.0	139	0	7.0	7.0	0.0	1	left	2.0	1.0	1.0	0	-0.055664865411800005	blockFiles/set_48/main_unc/leftBlue\GB_LB_1.xlsx
454	main_unc	True	0.0	139	0	7.0	7.0	1.0	1	right	1.0	1.0	1.0	1	0.07047903414819999	blockFiles/set_48/main_unc/leftBlue\GB_LB_1.xlsx
455	main_unc	True	0.0	139	0	7.0	7.0	1.0	1	right	1.0	1.0	1.0	1	0.040558834672	blockFiles/set_48/main_unc/leftBlue\GB_LB_1.xlsx
456	main_unc	True	0.0	139	0	7.0	7.0	1.0	1	right	1.0	0.0	1.0	1	0.018564920239200002	blockFiles/set_48/main_unc/leftBlue\GB_LB_1.xlsx
457	main_unc	True	0.0	139	0	7.0	7.0	0.0	0	left	1.0	1.0	1.0	1	0.005628382153810001	blockFiles/set_48/main_unc/leftBlue\GB_LB_1.xlsx
458	main_unc	True	0.0	139	0	8.0	8.0	1.0	1	right	2.0	1.0	1.0	1	0.0651607947797	blockFiles/set_48/main_unc/rightBlue\GB_RB_4.xlsx
459	main_unc	True	0.0	139	0	8.0	8.0	0.0	1	left	1.0	0.0	1.0	0	-0.0751875901408	blockFiles/set_48/main_unc/rightBlue\GB_RB_4.xlsx
460	main_unc	True	0.0	139	0	8.0	8.0	0.0	1	left	1.0	1.0	1.0	0	-0.0007043430581689999	blockFiles/set_48/main_unc/rightBlue\GB_RB_4.xlsx
461	main_unc	True	0.0	139	0	8.0	8.0	1.0	1	right	1.0	0.0	0.0	1	0.010499435793600001	blockFiles/set_48/main_unc/rightBlue\GB_RB_4.xlsx
462	main_unc	True	0.0	139	0	8.0	8.0	1.0	1	right	2.0	1.0	1.0	1	0.028628865759799997	blockFiles/set_48/main_unc/rightBlue\GB_RB_4.xlsx
463	main_unc	True	0.0	139	0	8.0	8.0	1.0	1	right	2.0	1.0	1.0	1	0.0224754003808	blockFiles/set_48/main_unc/rightBlue\GB_RB_4.xlsx
464	main_unc	True	0.0	139	0	8.0	8.0	0.0	0	left	2.0	1.0	1.0	1	0.0519007617794	blockFiles/set_48/main_unc/rightBlue\GB_RB_4.xlsx
465	main_unc	True	0.0	139	0	8.0	8.0	0.0	1	left	1.0	1.0	1.0	0	-0.0788660649955	blockFiles/set_48/main_unc/rightBlue\GB_RB_4.xlsx
466	main_unc	True	0.0	139	0	8.0	8.0	0.0	1	left	1.0	0.0	1.0	0	-0.060886162444900006	blockFiles/set_48/main_unc/rightBlue\GB_RB_4.xlsx
467	main_unc	True	0.0	139	0	8.0	8.0	0.0	1	left	1.0	0.0	1.0	0	-0.010169379767	blockFiles/set_48/main_unc/rightBlue\GB_RB_4.xlsx
468	main_unc	True	0.0	139	0	8.0	8.0	0.0	1	left	1.0	1.0	1.0	0	-0.028754270356099995	blockFiles/set_48/main_unc/rightBlue\GB_RB_4.xlsx
469	main_unc	True	0.0	139	0	8.0	8.0	1.0	1	right	2.0	1.0	1.0	1	0.04369164898990001	blockFiles/set_48/main_unc/rightBlue\GB_RB_4.xlsx
470	main_unc	True	0.0	139	0	8.0	8.0	1.0	1	right	2.0	1.0	1.0	1	0.046940758340099996	blockFiles/set_48/main_unc/rightBlue\GB_RB_4.xlsx
471	main_unc	True	0.0	139	0	8.0	8.0	0.0	1	left	1.0	1.0	1.0	0	-0.04366404837	blockFiles/set_48/main_unc/rightBlue\GB_RB_4.xlsx
472	main_unc	True	0.0	139	0	8.0	8.0	1.0	1	right	2.0	1.0	1.0	1	0.06030279165130001	blockFiles/set_48/main_unc/rightBlue\GB_RB_4.xlsx
473	main_unc	True	0.0	139	0	8.0	8.0	0.0	1	left	1.0	1.0	1.0	0	-0.0363491001725	blockFiles/set_48/main_unc/rightBlue\GB_RB_4.xlsx
474	main_unc	True	0.0	139	0	8.0	8.0	1.0	1	right	1.0	0.0	0.0	1	0.012120734453200001	blockFiles/set_48/main_unc/rightBlue\GB_RB_4.xlsx
475	main_unc	True	0.0	139	0	8.0	8.0	0.0	1	left	1.0	1.0	1.0	0	-0.0772644683905	blockFiles/set_48/main_unc/rightBlue\GB_RB_4.xlsx
476	main_unc	True	0.0	139	0	8.0	8.0	1.0	0	right	1.0	1.0	1.0	0	-0.006455547902729999	blockFiles/set_48/main_unc/rightBlue\GB_RB_4.xlsx
477	main_unc	True	0.0	139	0	8.0	8.0	0.0	1	left	1.0	1.0	1.0	0	-0.0340757493116	blockFiles/set_48/main_unc/rightBlue\GB_RB_4.xlsx
478	main_unc	True	1.0	139	0	8.0	8.0	1.0	1	right	n/a	0.0	n/a	1	0.0669049323164	blockFiles/set_48/main_unc/rightBlue\GB_RB_4.xlsx
479	main_unc	True	0.0	139	0	8.0	8.0	0.0	1	left	1.0	0.0	1.0	0	-0.04083128029480001	blockFiles/set_48/main_unc/rightBlue\GB_RB_4.xlsx
480	main_unc	True	0.0	139	0	8.0	8.0	1.0	1	right	2.0	1.0	1.0	1	0.0535822474957	blockFiles/set_48/main_unc/rightBlue\GB_RB_4.xlsx
481	main_unc	True	0.0	139	0	8.0	8.0	0.0	1	left	1.0	1.0	1.0	0	-0.06887885857369999	blockFiles/set_48/main_unc/rightBlue\GB_RB_4.xlsx
482	main_unc	True	0.0	139	0	8.0	8.0	0.0	1	left	1.0	1.0	1.0	0	-0.0460533376411	blockFiles/set_48/main_unc/rightBlue\GB_RB_4.xlsx
483	main_unc	True	0.0	139	0	8.0	8.0	1.0	1	right	2.0	1.0	1.0	1	0.0669049323164	blockFiles/set_48/main_unc/rightBlue\GB_RB_4.xlsx
484	main_unc	True	0.0	139	0	9.0	9.0	1.0	1	right	1.0	1.0	1.0	1	0.0342337034829	blockFiles/set_48/main_unc/leftBlue\GB_LB_3.xlsx
485	main_unc	True	0.0	139	0	9.0	9.0	0.0	1	left	2.0	0.0	1.0	0	-0.0716247002967	blockFiles/set_48/main_unc/leftBlue\GB_LB_3.xlsx
486	main_unc	True	0.0	139	0	9.0	9.0	1.0	1	right	1.0	1.0	1.0	1	0.0314234140888	blockFiles/set_48/main_unc/leftBlue\GB_LB_3.xlsx
487	main_unc	True	0.0	139	0	9.0	9.0	1.0	1	right	1.0	0.0	1.0	1	0.0684392397106	blockFiles/set_48/main_unc/leftBlue\GB_LB_3.xlsx
488	main_unc	True	0.0	139	0	9.0	9.0	0.0	0	left	1.0	1.0	1.0	1	0.0101980651356	blockFiles/set_48/main_unc/leftBlue\GB_LB_3.xlsx
489	main_unc	True	0.0	139	0	9.0	9.0	1.0	0	right	1.0	0.0	0.0	0	-0.005412923041729999	blockFiles/set_48/main_unc/leftBlue\GB_LB_3.xlsx
490	main_unc	True	0.0	139	0	9.0	9.0	0.0	1	left	2.0	1.0	1.0	0	-0.0688087577932	blockFiles/set_48/main_unc/leftBlue\GB_LB_3.xlsx
491	main_unc	True	0.0	139	0	9.0	9.0	0.0	1	left	2.0	0.0	1.0	0	-0.045945910252599996	blockFiles/set_48/main_unc/leftBlue\GB_LB_3.xlsx
492	main_unc	True	0.0	139	0	9.0	9.0	1.0	0	right	1.0	0.0	0.0	0	-0.00242965314537	blockFiles/set_48/main_unc/leftBlue\GB_LB_3.xlsx
493	main_unc	True	0.0	139	0	9.0	9.0	0.0	1	left	2.0	1.0	1.0	0	-0.06285575589169999	blockFiles/set_48/main_unc/leftBlue\GB_LB_3.xlsx
494	main_unc	True	0.0	139	0	9.0	9.0	1.0	1	right	2.0	0.0	0.0	1	0.0041482225433000005	blockFiles/set_48/main_unc/leftBlue\GB_LB_3.xlsx
495	main_unc	True	0.0	139	0	9.0	9.0	1.0	1	right	1.0	1.0	1.0	1	0.0793523400463	blockFiles/set_48/main_unc/leftBlue\GB_LB_3.xlsx
496	main_unc	True	0.0	139	0	9.0	9.0	1.0	1	right	2.0	0.0	0.0	1	0.0762566312961	blockFiles/set_48/main_unc/leftBlue\GB_LB_3.xlsx
497	main_unc	True	0.0	139	0	9.0	9.0	0.0	1	left	1.0	0.0	0.0	0	-0.025386579968	blockFiles/set_48/main_unc/leftBlue\GB_LB_3.xlsx
498	main_unc	True	0.0	139	0	9.0	9.0	0.0	1	left	2.0	1.0	1.0	0	-0.034193911925	blockFiles/set_48/main_unc/leftBlue\GB_LB_3.xlsx
499	main_unc	True	0.0	139	0	9.0	9.0	0.0	1	left	2.0	0.0	1.0	0	-0.0523172792792	blockFiles/set_48/main_unc/leftBlue\GB_LB_3.xlsx
500	main_unc	True	0.0	139	0	9.0	9.0	0.0	1	left	2.0	1.0	1.0	0	-0.0599672994204	blockFiles/set_48/main_unc/leftBlue\GB_LB_3.xlsx
501	main_unc	True	0.0	139	0	9.0	9.0	0.0	0	left	2.0	0.0	0.0	1	0.00827775245532	blockFiles/set_48/main_unc/leftBlue\GB_LB_3.xlsx
502	main_unc	True	0.0	139	0	9.0	9.0	0.0	0	left	1.0	1.0	1.0	1	0.0405653734133	blockFiles/set_48/main_unc/leftBlue\GB_LB_3.xlsx
503	main_unc	True	0.0	139	0	9.0	9.0	1.0	1	right	1.0	1.0	1.0	1	0.04653686208650001	blockFiles/set_48/main_unc/leftBlue\GB_LB_3.xlsx
504	main_unc	True	0.0	139	0	9.0	9.0	0.0	1	left	2.0	1.0	1.0	0	-0.0619417805411	blockFiles/set_48/main_unc/leftBlue\GB_LB_3.xlsx
505	main_unc	True	0.0	139	0	9.0	9.0	1.0	1	right	1.0	0.0	1.0	1	0.036570740472499995	blockFiles/set_48/main_unc/leftBlue\GB_LB_3.xlsx
506	main_unc	True	0.0	139	0	9.0	9.0	0.0	1	left	2.0	0.0	1.0	0	-0.0292654780298	blockFiles/set_48/main_unc/leftBlue\GB_LB_3.xlsx
507	main_unc	True	0.0	139	0	9.0	9.0	0.0	1	left	2.0	1.0	1.0	0	-0.034020789489199996	blockFiles/set_48/main_unc/leftBlue\GB_LB_3.xlsx
508	main_unc	True	0.0	139	0	9.0	9.0	0.0	0	left	1.0	1.0	1.0	1	0.0531950402819	blockFiles/set_48/main_unc/leftBlue\GB_LB_3.xlsx
509	main_unc	True	0.0	139	0	10.0	10.0	0.0	1	left	1.0	1.0	1.0	0	-0.0757855846174	blockFiles/set_48/main_unc/rightBlue\GB_RB_1.xlsx
510	main_unc	True	0.0	139	0	10.0	10.0	1.0	1	right	2.0	0.0	1.0	1	0.0251726459339	blockFiles/set_48/main_unc/rightBlue\GB_RB_1.xlsx
511	main_unc	True	0.0	139	0	10.0	10.0	0.0	0	left	1.0	0.0	0.0	1	0.0076033934950799995	blockFiles/set_48/main_unc/rightBlue\GB_RB_1.xlsx
512	main_unc	True	0.0	139	0	10.0	10.0	0.0	0	left	1.0	0.0	0.0	1	0.00128047341481	blockFiles/set_48/main_unc/rightBlue\GB_RB_1.xlsx
513	main_unc	True	0.0	139	0	10.0	10.0	1.0	1	right	2.0	1.0	1.0	1	0.0669070200436	blockFiles/set_48/main_unc/rightBlue\GB_RB_1.xlsx
514	main_unc	True	0.0	139	0	10.0	10.0	0.0	1	left	1.0	1.0	1.0	0	-0.07927536182110001	blockFiles/set_48/main_unc/rightBlue\GB_RB_1.xlsx
515	main_unc	True	0.0	139	0	10.0	10.0	0.0	1	left	1.0	1.0	1.0	0	-0.0753599232621	blockFiles/set_48/main_unc/rightBlue\GB_RB_1.xlsx
516	main_unc	True	0.0	139	0	10.0	10.0	1.0	0	right	1.0	1.0	1.0	0	-0.0221076686122	blockFiles/set_48/main_unc/rightBlue\GB_RB_1.xlsx
517	main_unc	True	0.0	139	0	10.0	10.0	0.0	1	left	1.0	1.0	1.0	0	-0.00411992767826	blockFiles/set_48/main_unc/rightBlue\GB_RB_1.xlsx
518	main_unc	True	0.0	139	0	10.0	10.0	1.0	1	right	2.0	1.0	1.0	1	0.048148450981800005	blockFiles/set_48/main_unc/rightBlue\GB_RB_1.xlsx
519	main_unc	True	0.0	139	0	10.0	10.0	0.0	1	left	1.0	1.0	1.0	0	-0.0136863128841	blockFiles/set_48/main_unc/rightBlue\GB_RB_1.xlsx
520	main_unc	True	0.0	139	0	10.0	10.0	1.0	1	right	2.0	1.0	1.0	1	0.0557114703022	blockFiles/set_48/main_unc/rightBlue\GB_RB_1.xlsx
521	main_unc	True	0.0	139	0	10.0	10.0	1.0	1	right	2.0	1.0	1.0	1	0.0741637855582	blockFiles/set_48/main_unc/rightBlue\GB_RB_1.xlsx
522	main_unc	True	0.0	139	0	10.0	10.0	1.0	1	right	2.0	0.0	1.0	1	0.0133383000828	blockFiles/set_48/main_unc/rightBlue\GB_RB_1.xlsx
523	main_unc	True	0.0	139	0	10.0	10.0	0.0	1	left	1.0	1.0	1.0	0	-0.0185823388584	blockFiles/set_48/main_unc/rightBlue\GB_RB_1.xlsx
524	main_unc	True	0.0	139	0	10.0	10.0	1.0	1	right	1.0	1.0	0.0	1	0.042398148085900006	blockFiles/set_48/main_unc/rightBlue\GB_RB_1.xlsx
525	main_unc	True	0.0	139	0	10.0	10.0	1.0	1	right	2.0	0.0	1.0	1	0.0211771045439	blockFiles/set_48/main_unc/rightBlue\GB_RB_1.xlsx
526	main_unc	True	0.0	139	0	10.0	10.0	1.0	1	right	2.0	1.0	1.0	1	0.0535347792879	blockFiles/set_48/main_unc/rightBlue\GB_RB_1.xlsx
527	main_unc	True	0.0	139	0	10.0	10.0	1.0	1	right	2.0	1.0	1.0	1	0.0521592422388	blockFiles/set_48/main_unc/rightBlue\GB_RB_1.xlsx
528	main_unc	True	0.0	139	0	10.0	10.0	0.0	1	left	1.0	0.0	1.0	0	-0.0416999515705	blockFiles/set_48/main_unc/rightBlue\GB_RB_1.xlsx
529	main_unc	True	0.0	139	0	10.0	10.0	0.0	1	left	1.0	1.0	1.0	0	-0.022735540568800002	blockFiles/set_48/main_unc/rightBlue\GB_RB_1.xlsx
530	main_unc	True	0.0	139	0	10.0	10.0	1.0	1	right	2.0	1.0	1.0	1	0.04467686181890001	blockFiles/set_48/main_unc/rightBlue\GB_RB_1.xlsx
531	main_unc	True	0.0	139	0	10.0	10.0	0.0	1	left	1.0	1.0	1.0	0	-0.0715486065112	blockFiles/set_48/main_unc/rightBlue\GB_RB_1.xlsx
532	main_unc	True	0.0	139	0	10.0	10.0	1.0	1	right	2.0	1.0	1.0	1	0.059109950233300006	blockFiles/set_48/main_unc/rightBlue\GB_RB_1.xlsx
533	main_unc	True	0.0	139	0	10.0	10.0	0.0	1	left	1.0	0.0	1.0	0	-0.0198383040354	blockFiles/set_48/main_unc/rightBlue\GB_RB_1.xlsx
534	main_unc	True	0.0	139	0	11.0	11.0	1.0	1	right	2.0	1.0	1.0	1	0.034394846875199996	blockFiles/set_48/main_unc/rightBlue\GB_RB_5.xlsx
535	main_unc	True	0.0	139	0	11.0	11.0	1.0	1	right	2.0	1.0	1.0	1	0.05905986202880001	blockFiles/set_48/main_unc/rightBlue\GB_RB_5.xlsx
536	main_unc	True	0.0	139	0	11.0	11.0	0.0	1	left	1.0	1.0	1.0	0	-0.050846289917800006	blockFiles/set_48/main_unc/rightBlue\GB_RB_5.xlsx
537	main_unc	True	0.0	139	0	11.0	11.0	1.0	1	right	2.0	0.0	1.0	1	0.071067040097	blockFiles/set_48/main_unc/rightBlue\GB_RB_5.xlsx
538	main_unc	True	0.0	139	0	11.0	11.0	0.0	0	left	2.0	1.0	1.0	1	0.0173741072044	blockFiles/set_48/main_unc/rightBlue\GB_RB_5.xlsx
539	main_unc	True	0.0	139	0	11.0	11.0	0.0	1	left	1.0	1.0	1.0	0	-0.0329171524011	blockFiles/set_48/main_unc/rightBlue\GB_RB_5.xlsx
540	main_unc	True	0.0	139	0	11.0	11.0	1.0	0	right	1.0	1.0	1.0	0	-0.0364061605185	blockFiles/set_48/main_unc/rightBlue\GB_RB_5.xlsx
541	main_unc	True	0.0	139	0	11.0	11.0	1.0	1	right	2.0	1.0	1.0	1	0.0575951196253	blockFiles/set_48/main_unc/rightBlue\GB_RB_5.xlsx
542	main_unc	True	0.0	139	0	11.0	11.0	1.0	1	right	2.0	1.0	1.0	1	0.0397438490205	blockFiles/set_48/main_unc/rightBlue\GB_RB_5.xlsx
543	main_unc	True	0.0	139	0	11.0	11.0	1.0	1	right	2.0	1.0	1.0	1	0.0389275895618	blockFiles/set_48/main_unc/rightBlue\GB_RB_5.xlsx
544	main_unc	True	0.0	139	0	11.0	11.0	0.0	1	left	1.0	0.0	1.0	0	-0.0119692682289	blockFiles/set_48/main_unc/rightBlue\GB_RB_5.xlsx
545	main_unc	True	0.0	139	0	11.0	11.0	0.0	1	left	1.0	1.0	1.0	0	-0.0709606590122	blockFiles/set_48/main_unc/rightBlue\GB_RB_5.xlsx
546	main_unc	True	0.0	139	0	11.0	11.0	0.0	1	left	1.0	1.0	1.0	0	-0.0618604525551	blockFiles/set_48/main_unc/rightBlue\GB_RB_5.xlsx
547	main_unc	True	0.0	139	0	11.0	11.0	1.0	1	right	2.0	1.0	1.0	1	0.06955470463260001	blockFiles/set_48/main_unc/rightBlue\GB_RB_5.xlsx
548	main_unc	True	0.0	139	0	11.0	11.0	1.0	1	right	1.0	0.0	0.0	1	0.004274187143889999	blockFiles/set_48/main_unc/rightBlue\GB_RB_5.xlsx
549	main_unc	True	0.0	139	0	11.0	11.0	0.0	1	left	1.0	1.0	1.0	0	-0.05456311319019999	blockFiles/set_48/main_unc/rightBlue\GB_RB_5.xlsx
550	main_unc	True	0.0	139	0	11.0	11.0	1.0	1	right	2.0	1.0	1.0	1	0.07207902684810001	blockFiles/set_48/main_unc/rightBlue\GB_RB_5.xlsx
551	main_unc	True	0.0	139	0	11.0	11.0	1.0	0	right	1.0	1.0	1.0	0	-0.0034955003298800004	blockFiles/set_48/main_unc/rightBlue\GB_RB_5.xlsx
552	main_unc	True	0.0	139	0	11.0	11.0	0.0	1	left	1.0	1.0	1.0	0	-0.054486081861	blockFiles/set_48/main_unc/rightBlue\GB_RB_5.xlsx
553	main_unc	True	0.0	139	0	11.0	11.0	0.0	1	left	1.0	1.0	1.0	0	-0.011459899935899999	blockFiles/set_48/main_unc/rightBlue\GB_RB_5.xlsx
554	main_unc	True	0.0	139	0	11.0	11.0	1.0	1	right	2.0	1.0	1.0	1	0.0555948382244	blockFiles/set_48/main_unc/rightBlue\GB_RB_5.xlsx
555	main_unc	True	0.0	139	0	11.0	11.0	0.0	1	left	1.0	0.0	1.0	0	-0.06303083484989999	blockFiles/set_48/main_unc/rightBlue\GB_RB_5.xlsx
556	main_unc	True	0.0	139	0	11.0	11.0	1.0	1	right	2.0	1.0	1.0	1	0.031178734507400004	blockFiles/set_48/main_unc/rightBlue\GB_RB_5.xlsx
557	main_unc	True	0.0	139	0	11.0	11.0	0.0	1	left	1.0	1.0	1.0	0	-0.0640419033542	blockFiles/set_48/main_unc/rightBlue\GB_RB_5.xlsx
558	main_unc	True	0.0	139	0	11.0	11.0	1.0	1	right	2.0	1.0	1.0	1	0.0404406265914	blockFiles/set_48/main_unc/rightBlue\GB_RB_5.xlsx
