	trial_type	complete	missIndex	participant	id	blockNumber	b_t	d_t	decision1.corr	decision1.keys	a_t	r_t	decision2.corr	s_t	u_t	block_file
0	main_safe	True	0.0	439	0	0.0	0.0	0.0	1	left	1.0	0.0	0.0	0	-0.08	blockFiles/set_16/main_safe/leftBlue\GB_LB_1.xlsx
1	main_safe	True	0.0	439	0	0.0	0.0	0.0	1	left	2.0	1.0	1.0	0	-0.08	blockFiles/set_16/main_safe/leftBlue\GB_LB_1.xlsx
2	main_safe	True	0.0	439	0	0.0	0.0	1.0	1	right	1.0	1.0	1.0	1	0.08	blockFiles/set_16/main_safe/leftBlue\GB_LB_1.xlsx
3	main_safe	True	0.0	439	0	0.0	0.0	0.0	1	left	2.0	1.0	1.0	0	-0.08	blockFiles/set_16/main_safe/leftBlue\GB_LB_1.xlsx
4	main_safe	True	0.0	439	0	0.0	0.0	1.0	1	right	1.0	0.0	1.0	1	0.08	blockFiles/set_16/main_safe/leftBlue\GB_LB_1.xlsx
5	main_safe	True	0.0	439	0	0.0	0.0	1.0	1	right	1.0	1.0	1.0	1	0.08	blockFiles/set_16/main_safe/leftBlue\GB_LB_1.xlsx
6	main_safe	True	0.0	439	0	0.0	0.0	0.0	1	left	2.0	1.0	1.0	0	-0.08	blockFiles/set_16/main_safe/leftBlue\GB_LB_1.xlsx
7	main_safe	True	0.0	439	0	0.0	0.0	1.0	1	right	1.0	1.0	1.0	1	0.08	blockFiles/set_16/main_safe/leftBlue\GB_LB_1.xlsx
8	main_safe	True	0.0	439	0	0.0	0.0	1.0	1	right	1.0	1.0	1.0	1	0.08	blockFiles/set_16/main_safe/leftBlue\GB_LB_1.xlsx
9	main_safe	True	0.0	439	0	0.0	0.0	1.0	1	right	1.0	0.0	1.0	1	0.08	blockFiles/set_16/main_safe/leftBlue\GB_LB_1.xlsx
10	main_safe	True	0.0	439	0	0.0	0.0	0.0	1	left	2.0	1.0	1.0	0	-0.08	blockFiles/set_16/main_safe/leftBlue\GB_LB_1.xlsx
11	main_safe	True	0.0	439	0	0.0	0.0	1.0	1	right	1.0	1.0	1.0	1	0.08	blockFiles/set_16/main_safe/leftBlue\GB_LB_1.xlsx
12	main_safe	True	0.0	439	0	0.0	0.0	0.0	1	left	2.0	0.0	1.0	0	-0.08	blockFiles/set_16/main_safe/leftBlue\GB_LB_1.xlsx
13	main_safe	True	0.0	439	0	0.0	0.0	1.0	1	right	1.0	0.0	1.0	1	0.08	blockFiles/set_16/main_safe/leftBlue\GB_LB_1.xlsx
14	main_safe	True	0.0	439	0	0.0	0.0	0.0	1	left	2.0	1.0	1.0	0	-0.08	blockFiles/set_16/main_safe/leftBlue\GB_LB_1.xlsx
15	main_safe	True	0.0	439	0	0.0	0.0	1.0	1	right	1.0	1.0	1.0	1	0.08	blockFiles/set_16/main_safe/leftBlue\GB_LB_1.xlsx
16	main_safe	True	0.0	439	0	0.0	0.0	0.0	1	left	2.0	1.0	1.0	0	-0.08	blockFiles/set_16/main_safe/leftBlue\GB_LB_1.xlsx
17	main_safe	True	0.0	439	0	0.0	0.0	0.0	1	left	2.0	1.0	1.0	0	-0.08	blockFiles/set_16/main_safe/leftBlue\GB_LB_1.xlsx
18	main_safe	True	0.0	439	0	0.0	0.0	1.0	1	right	1.0	1.0	1.0	1	0.08	blockFiles/set_16/main_safe/leftBlue\GB_LB_1.xlsx
19	main_safe	True	0.0	439	0	0.0	0.0	0.0	1	left	2.0	1.0	1.0	0	-0.08	blockFiles/set_16/main_safe/leftBlue\GB_LB_1.xlsx
20	main_safe	True	0.0	439	0	0.0	0.0	1.0	1	right	1.0	0.0	1.0	1	0.08	blockFiles/set_16/main_safe/leftBlue\GB_LB_1.xlsx
21	main_safe	True	0.0	439	0	0.0	0.0	0.0	1	left	2.0	1.0	1.0	0	-0.08	blockFiles/set_16/main_safe/leftBlue\GB_LB_1.xlsx
22	main_safe	True	0.0	439	0	0.0	0.0	0.0	1	left	2.0	1.0	1.0	0	-0.08	blockFiles/set_16/main_safe/leftBlue\GB_LB_1.xlsx
23	main_safe	True	0.0	439	0	0.0	0.0	1.0	1	right	1.0	1.0	1.0	1	0.08	blockFiles/set_16/main_safe/leftBlue\GB_LB_1.xlsx
24	main_safe	True	0.0	439	0	0.0	0.0	0.0	1	left	2.0	1.0	1.0	0	-0.08	blockFiles/set_16/main_safe/leftBlue\GB_LB_1.xlsx
25	main_safe	True	0.0	439	0	1.0	1.0	1.0	1	right	2.0	0.0	1.0	1	0.08	blockFiles/set_16/main_safe/rightBlue\GB_RB_3.xlsx
26	main_safe	True	0.0	439	0	1.0	1.0	1.0	1	right	1.0	0.0	0.0	1	0.08	blockFiles/set_16/main_safe/rightBlue\GB_RB_3.xlsx
27	main_safe	True	0.0	439	0	1.0	1.0	1.0	1	right	1.0	0.0	0.0	1	0.08	blockFiles/set_16/main_safe/rightBlue\GB_RB_3.xlsx
28	main_safe	True	0.0	439	0	1.0	1.0	1.0	1	right	1.0	0.0	0.0	1	0.08	blockFiles/set_16/main_safe/rightBlue\GB_RB_3.xlsx
29	main_safe	True	0.0	439	0	1.0	1.0	0.0	1	left	1.0	1.0	1.0	0	-0.08	blockFiles/set_16/main_safe/rightBlue\GB_RB_3.xlsx
30	main_safe	True	0.0	439	0	1.0	1.0	1.0	1	right	2.0	1.0	1.0	1	0.08	blockFiles/set_16/main_safe/rightBlue\GB_RB_3.xlsx
31	main_safe	True	0.0	439	0	1.0	1.0	1.0	1	right	2.0	1.0	1.0	1	0.08	blockFiles/set_16/main_safe/rightBlue\GB_RB_3.xlsx
32	main_safe	True	0.0	439	0	1.0	1.0	0.0	1	left	1.0	1.0	1.0	0	-0.08	blockFiles/set_16/main_safe/rightBlue\GB_RB_3.xlsx
33	main_safe	True	0.0	439	0	1.0	1.0	1.0	1	right	2.0	1.0	1.0	1	0.08	blockFiles/set_16/main_safe/rightBlue\GB_RB_3.xlsx
34	main_safe	True	0.0	439	0	1.0	1.0	1.0	1	right	2.0	0.0	1.0	1	0.08	blockFiles/set_16/main_safe/rightBlue\GB_RB_3.xlsx
35	main_safe	True	0.0	439	0	1.0	1.0	0.0	1	left	1.0	1.0	1.0	0	-0.08	blockFiles/set_16/main_safe/rightBlue\GB_RB_3.xlsx
36	main_safe	True	0.0	439	0	1.0	1.0	1.0	1	right	2.0	0.0	1.0	1	0.08	blockFiles/set_16/main_safe/rightBlue\GB_RB_3.xlsx
37	main_safe	True	0.0	439	0	1.0	1.0	1.0	1	right	2.0	1.0	1.0	1	0.08	blockFiles/set_16/main_safe/rightBlue\GB_RB_3.xlsx
38	main_safe	True	0.0	439	0	1.0	1.0	0.0	1	left	1.0	1.0	1.0	0	-0.08	blockFiles/set_16/main_safe/rightBlue\GB_RB_3.xlsx
39	main_safe	True	0.0	439	0	1.0	1.0	0.0	1	left	1.0	0.0	1.0	0	-0.08	blockFiles/set_16/main_safe/rightBlue\GB_RB_3.xlsx
40	main_safe	True	0.0	439	0	1.0	1.0	1.0	1	right	2.0	1.0	1.0	1	0.08	blockFiles/set_16/main_safe/rightBlue\GB_RB_3.xlsx
41	main_safe	True	0.0	439	0	1.0	1.0	0.0	1	left	1.0	1.0	1.0	0	-0.08	blockFiles/set_16/main_safe/rightBlue\GB_RB_3.xlsx
42	main_safe	True	0.0	439	0	1.0	1.0	0.0	1	left	1.0	1.0	1.0	0	-0.08	blockFiles/set_16/main_safe/rightBlue\GB_RB_3.xlsx
43	main_safe	True	0.0	439	0	1.0	1.0	1.0	1	right	2.0	1.0	1.0	1	0.08	blockFiles/set_16/main_safe/rightBlue\GB_RB_3.xlsx
44	main_safe	True	0.0	439	0	1.0	1.0	0.0	1	left	1.0	1.0	1.0	0	-0.08	blockFiles/set_16/main_safe/rightBlue\GB_RB_3.xlsx
45	main_safe	True	0.0	439	0	1.0	1.0	0.0	1	left	1.0	1.0	1.0	0	-0.08	blockFiles/set_16/main_safe/rightBlue\GB_RB_3.xlsx
46	main_safe	True	0.0	439	0	1.0	1.0	0.0	1	left	1.0	1.0	1.0	0	-0.08	blockFiles/set_16/main_safe/rightBlue\GB_RB_3.xlsx
47	main_safe	True	0.0	439	0	1.0	1.0	0.0	1	left	1.0	0.0	1.0	0	-0.08	blockFiles/set_16/main_safe/rightBlue\GB_RB_3.xlsx
48	main_safe	True	0.0	439	0	1.0	1.0	1.0	1	right	2.0	0.0	1.0	1	0.08	blockFiles/set_16/main_safe/rightBlue\GB_RB_3.xlsx
49	main_safe	True	0.0	439	0	1.0	1.0	0.0	1	left	1.0	1.0	1.0	0	-0.08	blockFiles/set_16/main_safe/rightBlue\GB_RB_3.xlsx
50	main_safe	True	0.0	439	0	2.0	2.0	1.0	1	right	2.0	0.0	0.0	1	0.08	blockFiles/set_16/main_safe/leftBlue\GB_LB_3.xlsx
51	main_safe	True	0.0	439	0	2.0	2.0	1.0	1	right	1.0	1.0	1.0	1	0.08	blockFiles/set_16/main_safe/leftBlue\GB_LB_3.xlsx
52	main_safe	True	0.0	439	0	2.0	2.0	1.0	1	right	1.0	1.0	1.0	1	0.08	blockFiles/set_16/main_safe/leftBlue\GB_LB_3.xlsx
53	main_safe	True	0.0	439	0	2.0	2.0	1.0	1	right	1.0	1.0	1.0	1	0.08	blockFiles/set_16/main_safe/leftBlue\GB_LB_3.xlsx
54	main_safe	True	0.0	439	0	2.0	2.0	1.0	1	right	1.0	1.0	1.0	1	0.08	blockFiles/set_16/main_safe/leftBlue\GB_LB_3.xlsx
55	main_safe	True	0.0	439	0	2.0	2.0	1.0	1	right	1.0	1.0	1.0	1	0.08	blockFiles/set_16/main_safe/leftBlue\GB_LB_3.xlsx
56	main_safe	True	0.0	439	0	2.0	2.0	0.0	1	left	2.0	1.0	1.0	0	-0.08	blockFiles/set_16/main_safe/leftBlue\GB_LB_3.xlsx
57	main_safe	True	0.0	439	0	2.0	2.0	0.0	1	left	2.0	1.0	1.0	0	-0.08	blockFiles/set_16/main_safe/leftBlue\GB_LB_3.xlsx
58	main_safe	True	0.0	439	0	2.0	2.0	0.0	1	left	2.0	1.0	1.0	0	-0.08	blockFiles/set_16/main_safe/leftBlue\GB_LB_3.xlsx
59	main_safe	True	0.0	439	0	2.0	2.0	0.0	1	left	2.0	1.0	1.0	0	-0.08	blockFiles/set_16/main_safe/leftBlue\GB_LB_3.xlsx
60	main_safe	True	0.0	439	0	2.0	2.0	0.0	1	left	2.0	0.0	1.0	0	-0.08	blockFiles/set_16/main_safe/leftBlue\GB_LB_3.xlsx
61	main_safe	True	0.0	439	0	2.0	2.0	0.0	1	left	2.0	1.0	1.0	0	-0.08	blockFiles/set_16/main_safe/leftBlue\GB_LB_3.xlsx
62	main_safe	True	0.0	439	0	2.0	2.0	1.0	1	right	1.0	1.0	1.0	1	0.08	blockFiles/set_16/main_safe/leftBlue\GB_LB_3.xlsx
63	main_safe	True	0.0	439	0	2.0	2.0	1.0	1	right	1.0	0.0	1.0	1	0.08	blockFiles/set_16/main_safe/leftBlue\GB_LB_3.xlsx
64	main_safe	True	0.0	439	0	2.0	2.0	1.0	1	right	1.0	0.0	1.0	1	0.08	blockFiles/set_16/main_safe/leftBlue\GB_LB_3.xlsx
65	main_safe	True	0.0	439	0	2.0	2.0	1.0	1	right	1.0	1.0	1.0	1	0.08	blockFiles/set_16/main_safe/leftBlue\GB_LB_3.xlsx
66	main_safe	True	0.0	439	0	2.0	2.0	0.0	1	left	2.0	1.0	1.0	0	-0.08	blockFiles/set_16/main_safe/leftBlue\GB_LB_3.xlsx
67	main_safe	True	0.0	439	0	2.0	2.0	0.0	1	left	2.0	1.0	1.0	0	-0.08	blockFiles/set_16/main_safe/leftBlue\GB_LB_3.xlsx
68	main_safe	True	0.0	439	0	2.0	2.0	0.0	1	left	2.0	1.0	1.0	0	-0.08	blockFiles/set_16/main_safe/leftBlue\GB_LB_3.xlsx
69	main_safe	True	0.0	439	0	2.0	2.0	0.0	1	left	2.0	1.0	1.0	0	-0.08	blockFiles/set_16/main_safe/leftBlue\GB_LB_3.xlsx
70	main_safe	True	0.0	439	0	2.0	2.0	0.0	1	left	2.0	0.0	1.0	0	-0.08	blockFiles/set_16/main_safe/leftBlue\GB_LB_3.xlsx
71	main_safe	True	0.0	439	0	2.0	2.0	1.0	1	right	1.0	1.0	1.0	1	0.08	blockFiles/set_16/main_safe/leftBlue\GB_LB_3.xlsx
72	main_safe	True	0.0	439	0	2.0	2.0	0.0	1	left	1.0	0.0	0.0	0	-0.08	blockFiles/set_16/main_safe/leftBlue\GB_LB_3.xlsx
73	main_safe	True	0.0	439	0	2.0	2.0	0.0	1	left	2.0	1.0	1.0	0	-0.08	blockFiles/set_16/main_safe/leftBlue\GB_LB_3.xlsx
74	main_safe	True	0.0	439	0	2.0	2.0	1.0	1	right	1.0	1.0	1.0	1	0.08	blockFiles/set_16/main_safe/leftBlue\GB_LB_3.xlsx
75	main_safe	True	0.0	439	0	3.0	3.0	1.0	1	right	1.0	0.0	0.0	1	0.08	blockFiles/set_16/main_safe/rightBlue\GB_RB_2.xlsx
76	main_safe	True	0.0	439	0	3.0	3.0	1.0	1	right	2.0	1.0	1.0	1	0.08	blockFiles/set_16/main_safe/rightBlue\GB_RB_2.xlsx
77	main_safe	True	0.0	439	0	3.0	3.0	0.0	1	left	1.0	1.0	1.0	0	-0.08	blockFiles/set_16/main_safe/rightBlue\GB_RB_2.xlsx
78	main_safe	True	0.0	439	0	3.0	3.0	0.0	1	left	1.0	1.0	1.0	0	-0.08	blockFiles/set_16/main_safe/rightBlue\GB_RB_2.xlsx
79	main_safe	True	0.0	439	0	3.0	3.0	0.0	1	left	1.0	1.0	1.0	0	-0.08	blockFiles/set_16/main_safe/rightBlue\GB_RB_2.xlsx
80	main_safe	True	0.0	439	0	3.0	3.0	1.0	1	right	2.0	1.0	1.0	1	0.08	blockFiles/set_16/main_safe/rightBlue\GB_RB_2.xlsx
81	main_safe	True	0.0	439	0	3.0	3.0	1.0	1	right	2.0	0.0	1.0	1	0.08	blockFiles/set_16/main_safe/rightBlue\GB_RB_2.xlsx
82	main_safe	True	0.0	439	0	3.0	3.0	0.0	1	left	1.0	1.0	1.0	0	-0.08	blockFiles/set_16/main_safe/rightBlue\GB_RB_2.xlsx
83	main_safe	True	0.0	439	0	3.0	3.0	0.0	1	left	1.0	1.0	1.0	0	-0.08	blockFiles/set_16/main_safe/rightBlue\GB_RB_2.xlsx
84	main_safe	True	0.0	439	0	3.0	3.0	1.0	1	right	2.0	1.0	1.0	1	0.08	blockFiles/set_16/main_safe/rightBlue\GB_RB_2.xlsx
85	main_safe	True	0.0	439	0	3.0	3.0	0.0	1	left	1.0	1.0	1.0	0	-0.08	blockFiles/set_16/main_safe/rightBlue\GB_RB_2.xlsx
86	main_safe	True	0.0	439	0	3.0	3.0	1.0	1	right	2.0	1.0	1.0	1	0.08	blockFiles/set_16/main_safe/rightBlue\GB_RB_2.xlsx
87	main_safe	True	0.0	439	0	3.0	3.0	1.0	1	right	2.0	1.0	1.0	1	0.08	blockFiles/set_16/main_safe/rightBlue\GB_RB_2.xlsx
88	main_safe	True	0.0	439	0	3.0	3.0	1.0	1	right	2.0	1.0	1.0	1	0.08	blockFiles/set_16/main_safe/rightBlue\GB_RB_2.xlsx
89	main_safe	True	0.0	439	0	3.0	3.0	0.0	1	left	1.0	0.0	1.0	0	-0.08	blockFiles/set_16/main_safe/rightBlue\GB_RB_2.xlsx
90	main_safe	True	0.0	439	0	3.0	3.0	0.0	1	left	1.0	1.0	1.0	0	-0.08	blockFiles/set_16/main_safe/rightBlue\GB_RB_2.xlsx
91	main_safe	True	0.0	439	0	3.0	3.0	0.0	1	left	1.0	1.0	1.0	0	-0.08	blockFiles/set_16/main_safe/rightBlue\GB_RB_2.xlsx
92	main_safe	True	0.0	439	0	3.0	3.0	0.0	1	left	1.0	1.0	1.0	0	-0.08	blockFiles/set_16/main_safe/rightBlue\GB_RB_2.xlsx
93	main_safe	True	0.0	439	0	3.0	3.0	1.0	1	right	2.0	1.0	1.0	1	0.08	blockFiles/set_16/main_safe/rightBlue\GB_RB_2.xlsx
94	main_safe	True	0.0	439	0	3.0	3.0	0.0	1	left	1.0	0.0	1.0	0	-0.08	blockFiles/set_16/main_safe/rightBlue\GB_RB_2.xlsx
95	main_safe	True	0.0	439	0	3.0	3.0	1.0	1	right	2.0	1.0	1.0	1	0.08	blockFiles/set_16/main_safe/rightBlue\GB_RB_2.xlsx
96	main_safe	True	0.0	439	0	3.0	3.0	1.0	1	right	2.0	0.0	1.0	1	0.08	blockFiles/set_16/main_safe/rightBlue\GB_RB_2.xlsx
97	main_safe	True	0.0	439	0	3.0	3.0	1.0	1	right	2.0	1.0	1.0	1	0.08	blockFiles/set_16/main_safe/rightBlue\GB_RB_2.xlsx
98	main_safe	True	0.0	439	0	3.0	3.0	0.0	1	left	2.0	0.0	0.0	0	-0.08	blockFiles/set_16/main_safe/rightBlue\GB_RB_2.xlsx
99	main_safe	True	0.0	439	0	3.0	3.0	1.0	1	right	1.0	0.0	0.0	1	0.08	blockFiles/set_16/main_safe/rightBlue\GB_RB_2.xlsx
100	main_safe	True	0.0	439	0	4.0	4.0	0.0	1	left	1.0	1.0	1.0	0	-0.08	blockFiles/set_16/main_safe/rightBlue\GB_RB_1.xlsx
101	main_safe	True	0.0	439	0	4.0	4.0	1.0	1	right	2.0	1.0	1.0	1	0.08	blockFiles/set_16/main_safe/rightBlue\GB_RB_1.xlsx
102	main_safe	True	0.0	439	0	4.0	4.0	0.0	1	left	1.0	1.0	1.0	0	-0.08	blockFiles/set_16/main_safe/rightBlue\GB_RB_1.xlsx
103	main_safe	True	0.0	439	0	4.0	4.0	1.0	1	right	2.0	1.0	1.0	1	0.08	blockFiles/set_16/main_safe/rightBlue\GB_RB_1.xlsx
104	main_safe	True	0.0	439	0	4.0	4.0	0.0	1	left	1.0	1.0	1.0	0	-0.08	blockFiles/set_16/main_safe/rightBlue\GB_RB_1.xlsx
105	main_safe	True	0.0	439	0	4.0	4.0	1.0	1	right	2.0	0.0	1.0	1	0.08	blockFiles/set_16/main_safe/rightBlue\GB_RB_1.xlsx
106	main_safe	True	0.0	439	0	4.0	4.0	1.0	1	right	2.0	1.0	1.0	1	0.08	blockFiles/set_16/main_safe/rightBlue\GB_RB_1.xlsx
107	main_safe	True	0.0	439	0	4.0	4.0	1.0	1	right	2.0	1.0	1.0	1	0.08	blockFiles/set_16/main_safe/rightBlue\GB_RB_1.xlsx
108	main_safe	True	0.0	439	0	4.0	4.0	1.0	1	right	2.0	1.0	1.0	1	0.08	blockFiles/set_16/main_safe/rightBlue\GB_RB_1.xlsx
109	main_safe	True	0.0	439	0	4.0	4.0	0.0	1	left	1.0	1.0	1.0	0	-0.08	blockFiles/set_16/main_safe/rightBlue\GB_RB_1.xlsx
110	main_safe	True	0.0	439	0	4.0	4.0	0.0	1	left	1.0	1.0	1.0	0	-0.08	blockFiles/set_16/main_safe/rightBlue\GB_RB_1.xlsx
111	main_safe	True	0.0	439	0	4.0	4.0	1.0	1	right	2.0	0.0	1.0	1	0.08	blockFiles/set_16/main_safe/rightBlue\GB_RB_1.xlsx
112	main_safe	True	0.0	439	0	4.0	4.0	0.0	1	left	1.0	1.0	1.0	0	-0.08	blockFiles/set_16/main_safe/rightBlue\GB_RB_1.xlsx
113	main_safe	True	0.0	439	0	4.0	4.0	0.0	1	left	1.0	1.0	1.0	0	-0.08	blockFiles/set_16/main_safe/rightBlue\GB_RB_1.xlsx
114	main_safe	True	0.0	439	0	4.0	4.0	0.0	1	left	1.0	1.0	1.0	0	-0.08	blockFiles/set_16/main_safe/rightBlue\GB_RB_1.xlsx
115	main_safe	True	0.0	439	0	4.0	4.0	0.0	1	left	1.0	1.0	1.0	0	-0.08	blockFiles/set_16/main_safe/rightBlue\GB_RB_1.xlsx
116	main_safe	True	0.0	439	0	4.0	4.0	0.0	1	left	1.0	0.0	1.0	0	-0.08	blockFiles/set_16/main_safe/rightBlue\GB_RB_1.xlsx
117	main_safe	True	0.0	439	0	4.0	4.0	1.0	1	right	2.0	1.0	1.0	1	0.08	blockFiles/set_16/main_safe/rightBlue\GB_RB_1.xlsx
118	main_safe	True	0.0	439	0	4.0	4.0	1.0	1	right	2.0	1.0	1.0	1	0.08	blockFiles/set_16/main_safe/rightBlue\GB_RB_1.xlsx
119	main_safe	True	0.0	439	0	4.0	4.0	1.0	1	right	2.0	1.0	1.0	1	0.08	blockFiles/set_16/main_safe/rightBlue\GB_RB_1.xlsx
120	main_safe	True	0.0	439	0	4.0	4.0	0.0	1	left	1.0	1.0	1.0	0	-0.08	blockFiles/set_16/main_safe/rightBlue\GB_RB_1.xlsx
121	main_safe	True	0.0	439	0	4.0	4.0	1.0	1	right	2.0	1.0	1.0	1	0.08	blockFiles/set_16/main_safe/rightBlue\GB_RB_1.xlsx
122	main_safe	True	0.0	439	0	4.0	4.0	0.0	1	left	1.0	1.0	1.0	0	-0.08	blockFiles/set_16/main_safe/rightBlue\GB_RB_1.xlsx
123	main_safe	True	0.0	439	0	4.0	4.0	1.0	1	right	2.0	0.0	1.0	1	0.08	blockFiles/set_16/main_safe/rightBlue\GB_RB_1.xlsx
124	main_safe	True	0.0	439	0	4.0	4.0	0.0	1	left	1.0	1.0	1.0	0	-0.08	blockFiles/set_16/main_safe/rightBlue\GB_RB_1.xlsx
125	main_safe	True	0.0	439	0	5.0	5.0	0.0	1	left	2.0	1.0	1.0	0	-0.08	blockFiles/set_16/main_safe/leftBlue\GB_LB_2.xlsx
126	main_safe	True	0.0	439	0	5.0	5.0	0.0	1	left	2.0	1.0	1.0	0	-0.08	blockFiles/set_16/main_safe/leftBlue\GB_LB_2.xlsx
127	main_safe	True	0.0	439	0	5.0	5.0	0.0	1	left	2.0	1.0	1.0	0	-0.08	blockFiles/set_16/main_safe/leftBlue\GB_LB_2.xlsx
128	main_safe	True	0.0	439	0	5.0	5.0	1.0	1	right	1.0	0.0	1.0	1	0.08	blockFiles/set_16/main_safe/leftBlue\GB_LB_2.xlsx
129	main_safe	True	0.0	439	0	5.0	5.0	1.0	1	right	2.0	0.0	0.0	1	0.08	blockFiles/set_16/main_safe/leftBlue\GB_LB_2.xlsx
130	main_safe	True	0.0	439	0	5.0	5.0	1.0	1	right	1.0	1.0	1.0	1	0.08	blockFiles/set_16/main_safe/leftBlue\GB_LB_2.xlsx
131	main_safe	True	0.0	439	0	5.0	5.0	1.0	1	right	1.0	0.0	1.0	1	0.08	blockFiles/set_16/main_safe/leftBlue\GB_LB_2.xlsx
132	main_safe	True	0.0	439	0	5.0	5.0	1.0	1	right	1.0	1.0	1.0	1	0.08	blockFiles/set_16/main_safe/leftBlue\GB_LB_2.xlsx
133	main_safe	True	0.0	439	0	5.0	5.0	0.0	0	left	1.0	1.0	1.0	1	0.08	blockFiles/set_16/main_safe/leftBlue\GB_LB_2.xlsx
134	main_safe	True	0.0	439	0	5.0	5.0	1.0	1	right	2.0	1.0	0.0	1	0.08	blockFiles/set_16/main_safe/leftBlue\GB_LB_2.xlsx
135	main_safe	True	0.0	439	0	5.0	5.0	0.0	1	left	2.0	1.0	1.0	0	-0.08	blockFiles/set_16/main_safe/leftBlue\GB_LB_2.xlsx
136	main_safe	True	0.0	439	0	5.0	5.0	1.0	1	right	1.0	1.0	1.0	1	0.08	blockFiles/set_16/main_safe/leftBlue\GB_LB_2.xlsx
137	main_safe	True	0.0	439	0	5.0	5.0	1.0	1	right	1.0	1.0	1.0	1	0.08	blockFiles/set_16/main_safe/leftBlue\GB_LB_2.xlsx
138	main_safe	True	0.0	439	0	5.0	5.0	0.0	1	left	2.0	1.0	1.0	0	-0.08	blockFiles/set_16/main_safe/leftBlue\GB_LB_2.xlsx
139	main_safe	True	0.0	439	0	5.0	5.0	0.0	1	left	1.0	1.0	0.0	0	-0.08	blockFiles/set_16/main_safe/leftBlue\GB_LB_2.xlsx
140	main_safe	True	0.0	439	0	5.0	5.0	0.0	1	left	1.0	0.0	0.0	0	-0.08	blockFiles/set_16/main_safe/leftBlue\GB_LB_2.xlsx
141	main_safe	True	0.0	439	0	5.0	5.0	0.0	1	left	2.0	1.0	1.0	0	-0.08	blockFiles/set_16/main_safe/leftBlue\GB_LB_2.xlsx
142	main_safe	True	0.0	439	0	5.0	5.0	1.0	1	right	1.0	1.0	1.0	1	0.08	blockFiles/set_16/main_safe/leftBlue\GB_LB_2.xlsx
143	main_safe	True	0.0	439	0	5.0	5.0	0.0	1	left	2.0	1.0	1.0	0	-0.08	blockFiles/set_16/main_safe/leftBlue\GB_LB_2.xlsx
144	main_safe	True	0.0	439	0	5.0	5.0	0.0	1	left	2.0	1.0	1.0	0	-0.08	blockFiles/set_16/main_safe/leftBlue\GB_LB_2.xlsx
145	main_safe	True	0.0	439	0	5.0	5.0	0.0	1	left	2.0	0.0	1.0	0	-0.08	blockFiles/set_16/main_safe/leftBlue\GB_LB_2.xlsx
146	main_safe	True	0.0	439	0	5.0	5.0	1.0	1	right	1.0	0.0	1.0	1	0.08	blockFiles/set_16/main_safe/leftBlue\GB_LB_2.xlsx
147	main_safe	True	0.0	439	0	5.0	5.0	1.0	1	right	1.0	1.0	1.0	1	0.08	blockFiles/set_16/main_safe/leftBlue\GB_LB_2.xlsx
148	main_safe	True	0.0	439	0	5.0	5.0	0.0	1	left	2.0	1.0	1.0	0	-0.08	blockFiles/set_16/main_safe/leftBlue\GB_LB_2.xlsx
149	main_safe	True	0.0	439	0	5.0	5.0	1.0	1	right	1.0	1.0	1.0	1	0.08	blockFiles/set_16/main_safe/leftBlue\GB_LB_2.xlsx
150	patches	True	n/a	439	0	n/a	n/a	n/a	0	None	n/a	n/a	n/a	1	0.06986347118389999	blockFiles/set_16/main_PD/GB_runPatches1.xlsx
151	patches	True	n/a	439	0	n/a	n/a	1.0	1	right	n/a	n/a	n/a	1	0.0289689284563	blockFiles/set_16/main_PD/GB_runPatches1.xlsx
152	patches	True	n/a	439	0	n/a	n/a	1.0	1	right	n/a	n/a	n/a	1	0.0540864893049	blockFiles/set_16/main_PD/GB_runPatches1.xlsx
153	patches	True	n/a	439	0	n/a	n/a	0.0	1	left	n/a	n/a	n/a	0	-0.042739634700100004	blockFiles/set_16/main_PD/GB_runPatches1.xlsx
154	patches	True	n/a	439	0	n/a	n/a	1.0	1	right	n/a	n/a	n/a	1	0.0717610081844	blockFiles/set_16/main_PD/GB_runPatches1.xlsx
155	patches	True	n/a	439	0	n/a	n/a	0.0	1	left	n/a	n/a	n/a	0	-0.0652760652266	blockFiles/set_16/main_PD/GB_runPatches1.xlsx
156	patches	True	n/a	439	0	n/a	n/a	0.0	1	left	n/a	n/a	n/a	0	-0.040137606393499996	blockFiles/set_16/main_PD/GB_runPatches1.xlsx
157	patches	True	n/a	439	0	n/a	n/a	0.0	0	left	n/a	n/a	n/a	1	0.00290834050626	blockFiles/set_16/main_PD/GB_runPatches1.xlsx
158	patches	True	n/a	439	0	n/a	n/a	1.0	1	right	n/a	n/a	n/a	1	0.043944831267	blockFiles/set_16/main_PD/GB_runPatches1.xlsx
159	patches	True	n/a	439	0	n/a	n/a	1.0	1	right	n/a	n/a	n/a	1	0.0668559098989	blockFiles/set_16/main_PD/GB_runPatches1.xlsx
160	patches	True	n/a	439	0	n/a	n/a	0.0	1	left	n/a	n/a	n/a	0	-0.027344597689799997	blockFiles/set_16/main_PD/GB_runPatches1.xlsx
161	patches	True	n/a	439	0	n/a	n/a	1.0	0	right	n/a	n/a	n/a	0	-0.0107247751951	blockFiles/set_16/main_PD/GB_runPatches1.xlsx
162	patches	True	n/a	439	0	n/a	n/a	0.0	1	left	n/a	n/a	n/a	0	-0.0335003988631	blockFiles/set_16/main_PD/GB_runPatches1.xlsx
163	patches	True	n/a	439	0	n/a	n/a	1.0	1	right	n/a	n/a	n/a	1	0.050943713150899995	blockFiles/set_16/main_PD/GB_runPatches1.xlsx
164	patches	True	n/a	439	0	n/a	n/a	1.0	1	right	n/a	n/a	n/a	1	0.0222230467014	blockFiles/set_16/main_PD/GB_runPatches1.xlsx
165	patches	True	n/a	439	0	n/a	n/a	1.0	1	right	n/a	n/a	n/a	1	0.079314653147	blockFiles/set_16/main_PD/GB_runPatches1.xlsx
166	patches	True	n/a	439	0	n/a	n/a	0.0	1	left	n/a	n/a	n/a	0	-0.0421482254751	blockFiles/set_16/main_PD/GB_runPatches1.xlsx
167	patches	True	n/a	439	0	n/a	n/a	0.0	1	left	n/a	n/a	n/a	0	-0.0585707612149	blockFiles/set_16/main_PD/GB_runPatches1.xlsx
168	patches	True	n/a	439	0	n/a	n/a	1.0	1	right	n/a	n/a	n/a	1	0.013396821226899999	blockFiles/set_16/main_PD/GB_runPatches1.xlsx
169	patches	True	n/a	439	0	n/a	n/a	1.0	1	right	n/a	n/a	n/a	1	0.045253963768499994	blockFiles/set_16/main_PD/GB_runPatches1.xlsx
170	patches	True	n/a	439	0	n/a	n/a	0.0	1	left	n/a	n/a	n/a	0	-0.053317438662099995	blockFiles/set_16/main_PD/GB_runPatches1.xlsx
171	patches	True	n/a	439	0	n/a	n/a	1.0	1	right	n/a	n/a	n/a	1	0.0633729196712	blockFiles/set_16/main_PD/GB_runPatches1.xlsx
172	patches	True	n/a	439	0	n/a	n/a	1.0	0	right	n/a	n/a	n/a	0	-0.0318610684015	blockFiles/set_16/main_PD/GB_runPatches1.xlsx
173	patches	True	n/a	439	0	n/a	n/a	0.0	1	left	n/a	n/a	n/a	0	-0.05357534453269999	blockFiles/set_16/main_PD/GB_runPatches1.xlsx
174	patches	True	n/a	439	0	n/a	n/a	1.0	1	right	n/a	n/a	n/a	1	0.037332394477	blockFiles/set_16/main_PD/GB_runPatches1.xlsx
175	patches	True	n/a	439	0	n/a	n/a	1.0	1	right	n/a	n/a	n/a	1	0.0061112701334099994	blockFiles/set_16/main_PD/GB_runPatches1.xlsx
176	patches	True	n/a	439	0	n/a	n/a	1.0	1	right	n/a	n/a	n/a	1	0.051451606974	blockFiles/set_16/main_PD/GB_runPatches1.xlsx
177	patches	True	n/a	439	0	n/a	n/a	1.0	1	right	n/a	n/a	n/a	1	0.0462774534151	blockFiles/set_16/main_PD/GB_runPatches1.xlsx
178	patches	True	n/a	439	0	n/a	n/a	1.0	0	right	n/a	n/a	n/a	0	-0.00908666243777	blockFiles/set_16/main_PD/GB_runPatches1.xlsx
179	patches	True	n/a	439	0	n/a	n/a	0.0	1	left	n/a	n/a	n/a	0	-0.0378349221125	blockFiles/set_16/main_PD/GB_runPatches1.xlsx
180	patches	True	n/a	439	0	n/a	n/a	1.0	1	right	n/a	n/a	n/a	1	0.022988484054799998	blockFiles/set_16/main_PD/GB_runPatches1.xlsx
181	patches	True	n/a	439	0	n/a	n/a	1.0	1	right	n/a	n/a	n/a	1	0.04956261714919999	blockFiles/set_16/main_PD/GB_runPatches1.xlsx
182	patches	True	n/a	439	0	n/a	n/a	1.0	1	right	n/a	n/a	n/a	1	0.0574027446285	blockFiles/set_16/main_PD/GB_runPatches1.xlsx
183	patches	True	n/a	439	0	n/a	n/a	0.0	0	left	n/a	n/a	n/a	1	0.017076220642799997	blockFiles/set_16/main_PD/GB_runPatches1.xlsx
184	patches	True	n/a	439	0	n/a	n/a	1.0	1	right	n/a	n/a	n/a	1	0.0399847071245	blockFiles/set_16/main_PD/GB_runPatches1.xlsx
185	patches	True	n/a	439	0	n/a	n/a	1.0	0	right	n/a	n/a	n/a	0	-0.0719309898838	blockFiles/set_16/main_PD/GB_runPatches1.xlsx
186	patches	True	n/a	439	0	n/a	n/a	1.0	1	right	n/a	n/a	n/a	1	0.0510532236286	blockFiles/set_16/main_PD/GB_runPatches1.xlsx
187	patches	True	n/a	439	0	n/a	n/a	0.0	1	left	n/a	n/a	n/a	0	-0.0625366160646	blockFiles/set_16/main_PD/GB_runPatches1.xlsx
188	patches	True	n/a	439	0	n/a	n/a	1.0	1	right	n/a	n/a	n/a	1	0.034082677420200005	blockFiles/set_16/main_PD/GB_runPatches1.xlsx
189	patches	True	n/a	439	0	n/a	n/a	0.0	1	left	n/a	n/a	n/a	0	-0.037668173369	blockFiles/set_16/main_PD/GB_runPatches1.xlsx
190	patches	True	n/a	439	0	n/a	n/a	0.0	1	left	n/a	n/a	n/a	0	-0.057292685993	blockFiles/set_16/main_PD/GB_runPatches1.xlsx
191	patches	True	n/a	439	0	n/a	n/a	0.0	1	left	n/a	n/a	n/a	0	-0.0347531748377	blockFiles/set_16/main_PD/GB_runPatches1.xlsx
192	patches	True	n/a	439	0	n/a	n/a	1.0	1	right	n/a	n/a	n/a	1	0.00320741755888	blockFiles/set_16/main_PD/GB_runPatches1.xlsx
193	patches	True	n/a	439	0	n/a	n/a	1.0	1	right	n/a	n/a	n/a	1	0.0251861159503	blockFiles/set_16/main_PD/GB_runPatches1.xlsx
194	patches	True	n/a	439	0	n/a	n/a	1.0	1	right	n/a	n/a	n/a	1	0.0543211142533	blockFiles/set_16/main_PD/GB_runPatches1.xlsx
195	patches	True	n/a	439	0	n/a	n/a	0.0	1	left	n/a	n/a	n/a	0	-0.0650575192459	blockFiles/set_16/main_PD/GB_runPatches1.xlsx
196	patches	True	n/a	439	0	n/a	n/a	1.0	1	right	n/a	n/a	n/a	1	0.0210915931687	blockFiles/set_16/main_PD/GB_runPatches1.xlsx
197	patches	True	n/a	439	0	n/a	n/a	1.0	0	right	n/a	n/a	n/a	0	-0.0106711644307	blockFiles/set_16/main_PD/GB_runPatches1.xlsx
198	patches	True	n/a	439	0	n/a	n/a	0.0	1	left	n/a	n/a	n/a	0	-0.07204229025169999	blockFiles/set_16/main_PD/GB_runPatches1.xlsx
199	patches	True	n/a	439	0	n/a	n/a	1.0	0	right	n/a	n/a	n/a	0	-0.0224024575949	blockFiles/set_16/main_PD/GB_runPatches1.xlsx
200	patches	True	n/a	439	0	n/a	n/a	1.0	1	right	n/a	n/a	n/a	1	0.071145794671	blockFiles/set_16/main_PD/GB_runPatches1.xlsx
201	patches	True	n/a	439	0	n/a	n/a	1.0	1	right	n/a	n/a	n/a	1	0.07431576147680001	blockFiles/set_16/main_PD/GB_runPatches1.xlsx
202	patches	True	n/a	439	0	n/a	n/a	0.0	1	left	n/a	n/a	n/a	0	-0.0409118879028	blockFiles/set_16/main_PD/GB_runPatches1.xlsx
203	patches	True	n/a	439	0	n/a	n/a	1.0	0	right	n/a	n/a	n/a	0	-0.0159082377143	blockFiles/set_16/main_PD/GB_runPatches1.xlsx
204	patches	True	n/a	439	0	n/a	n/a	1.0	1	right	n/a	n/a	n/a	1	0.0008124916627999999	blockFiles/set_16/main_PD/GB_runPatches1.xlsx
205	patches	True	n/a	439	0	n/a	n/a	1.0	1	right	n/a	n/a	n/a	1	0.0790503572859	blockFiles/set_16/main_PD/GB_runPatches1.xlsx
206	patches	True	n/a	439	0	n/a	n/a	0.0	1	left	n/a	n/a	n/a	0	-0.0733116773702	blockFiles/set_16/main_PD/GB_runPatches1.xlsx
207	patches	True	n/a	439	0	n/a	n/a	1.0	1	right	n/a	n/a	n/a	1	0.0251482551917	blockFiles/set_16/main_PD/GB_runPatches1.xlsx
208	patches	True	n/a	439	0	n/a	n/a	n/a	0	None	n/a	n/a	n/a	0	-0.00900531245396	blockFiles/set_16/main_PD/GB_runPatches1.xlsx
209	patches	True	n/a	439	0	n/a	n/a	1.0	1	right	n/a	n/a	n/a	1	0.0397100810893	blockFiles/set_16/main_PD/GB_runPatches1.xlsx
210	patches	True	n/a	439	0	n/a	n/a	0.0	1	left	n/a	n/a	n/a	0	-0.00520334023982	blockFiles/set_16/main_PD/GB_runPatches1.xlsx
211	patches	True	n/a	439	0	n/a	n/a	1.0	1	right	n/a	n/a	n/a	1	0.0347906835563	blockFiles/set_16/main_PD/GB_runPatches1.xlsx
212	patches	True	n/a	439	0	n/a	n/a	1.0	1	right	n/a	n/a	n/a	1	0.0383988514356	blockFiles/set_16/main_PD/GB_runPatches1.xlsx
213	patches	True	n/a	439	0	n/a	n/a	0.0	1	left	n/a	n/a	n/a	0	-0.036504181977400005	blockFiles/set_16/main_PD/GB_runPatches1.xlsx
214	patches	True	n/a	439	0	n/a	n/a	1.0	1	right	n/a	n/a	n/a	1	0.0738039966114	blockFiles/set_16/main_PD/GB_runPatches1.xlsx
215	patches	True	n/a	439	0	n/a	n/a	1.0	0	right	n/a	n/a	n/a	0	-0.0342773491703	blockFiles/set_16/main_PD/GB_runPatches1.xlsx
216	patches	True	n/a	439	0	n/a	n/a	1.0	0	right	n/a	n/a	n/a	0	-0.016760605573700002	blockFiles/set_16/main_PD/GB_runPatches1.xlsx
217	patches	True	n/a	439	0	n/a	n/a	0.0	1	left	n/a	n/a	n/a	0	-0.0472673349641	blockFiles/set_16/main_PD/GB_runPatches1.xlsx
218	patches	True	n/a	439	0	n/a	n/a	1.0	1	right	n/a	n/a	n/a	1	0.058470632229	blockFiles/set_16/main_PD/GB_runPatches1.xlsx
219	patches	True	n/a	439	0	n/a	n/a	n/a	0	None	n/a	n/a	n/a	0	-0.0135456579179	blockFiles/set_16/main_PD/GB_runPatches1.xlsx
220	patches	True	n/a	439	0	n/a	n/a	1.0	0	right	n/a	n/a	n/a	0	-0.00379653021693	blockFiles/set_16/main_PD/GB_runPatches1.xlsx
221	patches	True	n/a	439	0	n/a	n/a	1.0	1	right	n/a	n/a	n/a	1	0.0697435465641	blockFiles/set_16/main_PD/GB_runPatches1.xlsx
222	patches	True	n/a	439	0	n/a	n/a	1.0	1	right	n/a	n/a	n/a	1	0.0347073517367	blockFiles/set_16/main_PD/GB_runPatches1.xlsx
223	patches	True	n/a	439	0	n/a	n/a	1.0	1	right	n/a	n/a	n/a	1	0.054421050678900004	blockFiles/set_16/main_PD/GB_runPatches1.xlsx
224	patches	True	n/a	439	0	n/a	n/a	0.0	1	left	n/a	n/a	n/a	0	-0.0758302937821	blockFiles/set_16/main_PD/GB_runPatches1.xlsx
225	patches	True	n/a	439	0	n/a	n/a	1.0	1	right	n/a	n/a	n/a	1	0.018118404597	blockFiles/set_16/main_PD/GB_runPatches1.xlsx
226	patches	True	n/a	439	0	n/a	n/a	0.0	1	left	n/a	n/a	n/a	0	-0.0349455997907	blockFiles/set_16/main_PD/GB_runPatches1.xlsx
227	patches	True	n/a	439	0	n/a	n/a	1.0	1	right	n/a	n/a	n/a	1	0.019574083145700003	blockFiles/set_16/main_PD/GB_runPatches1.xlsx
228	patches	True	n/a	439	0	n/a	n/a	1.0	1	right	n/a	n/a	n/a	1	0.0288869281486	blockFiles/set_16/main_PD/GB_runPatches1.xlsx
229	patches	True	n/a	439	0	n/a	n/a	0.0	1	left	n/a	n/a	n/a	0	-0.0689748123288	blockFiles/set_16/main_PD/GB_runPatches1.xlsx
230	patches	True	n/a	439	0	n/a	n/a	0.0	1	left	n/a	n/a	n/a	0	-0.0344042507187	blockFiles/set_16/main_PD/GB_runPatches1.xlsx
231	patches	True	n/a	439	0	n/a	n/a	1.0	1	right	n/a	n/a	n/a	1	0.0795654638112	blockFiles/set_16/main_PD/GB_runPatches1.xlsx
232	patches	True	n/a	439	0	n/a	n/a	1.0	0	right	n/a	n/a	n/a	0	-0.0032512556947800007	blockFiles/set_16/main_PD/GB_runPatches1.xlsx
233	patches	True	n/a	439	0	n/a	n/a	1.0	0	right	n/a	n/a	n/a	0	-0.026896864008200003	blockFiles/set_16/main_PD/GB_runPatches1.xlsx
234	patches	True	n/a	439	0	n/a	n/a	1.0	0	right	n/a	n/a	n/a	0	-0.042657460235099996	blockFiles/set_16/main_PD/GB_runPatches1.xlsx
235	patches	True	n/a	439	0	n/a	n/a	1.0	1	right	n/a	n/a	n/a	1	0.0660913060419	blockFiles/set_16/main_PD/GB_runPatches1.xlsx
236	patches	True	n/a	439	0	n/a	n/a	1.0	1	right	n/a	n/a	n/a	1	0.0514235668071	blockFiles/set_16/main_PD/GB_runPatches1.xlsx
237	patches	True	n/a	439	0	n/a	n/a	0.0	1	left	n/a	n/a	n/a	0	-0.053827610202099994	blockFiles/set_16/main_PD/GB_runPatches1.xlsx
238	patches	True	n/a	439	0	n/a	n/a	0.0	1	left	n/a	n/a	n/a	0	-0.0318890919723	blockFiles/set_16/main_PD/GB_runPatches1.xlsx
239	patches	True	n/a	439	0	n/a	n/a	1.0	0	right	n/a	n/a	n/a	0	-0.006139542423189999	blockFiles/set_16/main_PD/GB_runPatches1.xlsx
240	patches	True	n/a	439	0	n/a	n/a	1.0	0	right	n/a	n/a	n/a	0	-0.0016497855261	blockFiles/set_16/main_PD/GB_runPatches1.xlsx
241	patches	True	n/a	439	0	n/a	n/a	1.0	0	right	n/a	n/a	n/a	0	-0.00272278044373	blockFiles/set_16/main_PD/GB_runPatches1.xlsx
242	patches	True	n/a	439	0	n/a	n/a	1.0	1	right	n/a	n/a	n/a	1	0.07001374267039999	blockFiles/set_16/main_PD/GB_runPatches1.xlsx
243	patches	True	n/a	439	0	n/a	n/a	0.0	1	left	n/a	n/a	n/a	0	-0.0492791903391	blockFiles/set_16/main_PD/GB_runPatches1.xlsx
244	patches	True	n/a	439	0	n/a	n/a	0.0	1	left	n/a	n/a	n/a	0	-0.0547960396297	blockFiles/set_16/main_PD/GB_runPatches1.xlsx
245	patches	True	n/a	439	0	n/a	n/a	1.0	1	right	n/a	n/a	n/a	1	0.0372166183591	blockFiles/set_16/main_PD/GB_runPatches1.xlsx
246	patches	True	n/a	439	0	n/a	n/a	0.0	1	left	n/a	n/a	n/a	0	-0.0624362153187	blockFiles/set_16/main_PD/GB_runPatches1.xlsx
247	patches	True	n/a	439	0	n/a	n/a	1.0	1	right	n/a	n/a	n/a	1	0.034704982042300006	blockFiles/set_16/main_PD/GB_runPatches1.xlsx
248	patches	True	n/a	439	0	n/a	n/a	0.0	1	left	n/a	n/a	n/a	0	-0.059577170684900004	blockFiles/set_16/main_PD/GB_runPatches1.xlsx
249	patches	True	n/a	439	0	n/a	n/a	0.0	1	left	n/a	n/a	n/a	0	-0.021345393676299996	blockFiles/set_16/main_PD/GB_runPatches1.xlsx
250	main_unc	True	0.0	439	0	0.0	0.0	1.0	1	right	2.0	1.0	1.0	1	0.06588591003790001	blockFiles/set_16/main_unc/rightBlue\GB_RB_5.xlsx
251	main_unc	True	0.0	439	0	0.0	0.0	1.0	1	right	2.0	1.0	1.0	1	0.025539454501099998	blockFiles/set_16/main_unc/rightBlue\GB_RB_5.xlsx
252	main_unc	True	0.0	439	0	0.0	0.0	1.0	0	right	2.0	1.0	0.0	0	-0.00175416726619	blockFiles/set_16/main_unc/rightBlue\GB_RB_5.xlsx
253	main_unc	True	0.0	439	0	0.0	0.0	0.0	1	left	1.0	1.0	1.0	0	-0.0281275236607	blockFiles/set_16/main_unc/rightBlue\GB_RB_5.xlsx
254	main_unc	True	0.0	439	0	0.0	0.0	0.0	1	left	1.0	1.0	1.0	0	-0.07599170206110001	blockFiles/set_16/main_unc/rightBlue\GB_RB_5.xlsx
255	main_unc	True	0.0	439	0	0.0	0.0	0.0	1	left	1.0	1.0	1.0	0	-0.0345985792577	blockFiles/set_16/main_unc/rightBlue\GB_RB_5.xlsx
256	main_unc	True	0.0	439	0	0.0	0.0	1.0	1	right	2.0	1.0	1.0	1	0.05980126284059999	blockFiles/set_16/main_unc/rightBlue\GB_RB_5.xlsx
257	main_unc	True	1.0	439	0	0.0	0.0	n/a	0	None	n/a	0.0	n/a	0	-0.0063763894327	blockFiles/set_16/main_unc/rightBlue\GB_RB_5.xlsx
258	main_unc	True	0.0	439	0	0.0	0.0	1.0	1	right	2.0	1.0	1.0	1	0.0270083425567	blockFiles/set_16/main_unc/rightBlue\GB_RB_5.xlsx
259	main_unc	True	0.0	439	0	0.0	0.0	0.0	1	left	1.0	1.0	1.0	0	-0.0414604599029	blockFiles/set_16/main_unc/rightBlue\GB_RB_5.xlsx
260	main_unc	True	0.0	439	0	0.0	0.0	0.0	1	left	1.0	1.0	1.0	0	-0.0618043049239	blockFiles/set_16/main_unc/rightBlue\GB_RB_5.xlsx
261	main_unc	True	0.0	439	0	0.0	0.0	1.0	1	right	2.0	1.0	1.0	1	0.0320129932463	blockFiles/set_16/main_unc/rightBlue\GB_RB_5.xlsx
262	main_unc	True	0.0	439	0	0.0	0.0	0.0	1	left	1.0	1.0	1.0	0	-0.0196773282066	blockFiles/set_16/main_unc/rightBlue\GB_RB_5.xlsx
263	main_unc	True	0.0	439	0	0.0	0.0	1.0	1	right	2.0	0.0	1.0	1	0.077525734622	blockFiles/set_16/main_unc/rightBlue\GB_RB_5.xlsx
264	main_unc	True	0.0	439	0	0.0	0.0	0.0	0	left	1.0	1.0	0.0	1	0.00315647069365	blockFiles/set_16/main_unc/rightBlue\GB_RB_5.xlsx
265	main_unc	True	0.0	439	0	0.0	0.0	0.0	1	left	1.0	1.0	1.0	0	-0.0698046859354	blockFiles/set_16/main_unc/rightBlue\GB_RB_5.xlsx
266	main_unc	True	0.0	439	0	0.0	0.0	1.0	1	right	2.0	1.0	1.0	1	0.0205074246041	blockFiles/set_16/main_unc/rightBlue\GB_RB_5.xlsx
267	main_unc	True	0.0	439	0	0.0	0.0	0.0	0	left	1.0	0.0	0.0	1	0.016462634317600002	blockFiles/set_16/main_unc/rightBlue\GB_RB_5.xlsx
268	main_unc	True	0.0	439	0	0.0	0.0	1.0	1	right	2.0	1.0	1.0	1	0.0202033215202	blockFiles/set_16/main_unc/rightBlue\GB_RB_5.xlsx
269	main_unc	True	0.0	439	0	0.0	0.0	0.0	1	left	1.0	0.0	1.0	0	-0.052223395165099995	blockFiles/set_16/main_unc/rightBlue\GB_RB_5.xlsx
270	main_unc	True	0.0	439	0	0.0	0.0	0.0	1	left	1.0	1.0	1.0	0	-0.0739645878412	blockFiles/set_16/main_unc/rightBlue\GB_RB_5.xlsx
271	main_unc	True	0.0	439	0	0.0	0.0	1.0	1	right	2.0	1.0	1.0	1	0.0393149470352	blockFiles/set_16/main_unc/rightBlue\GB_RB_5.xlsx
272	main_unc	True	0.0	439	0	0.0	0.0	0.0	0	left	1.0	0.0	0.0	1	0.024238130208099996	blockFiles/set_16/main_unc/rightBlue\GB_RB_5.xlsx
273	main_unc	True	0.0	439	0	0.0	0.0	1.0	1	right	2.0	0.0	1.0	1	0.0423607853986	blockFiles/set_16/main_unc/rightBlue\GB_RB_5.xlsx
274	main_unc	True	0.0	439	0	0.0	0.0	1.0	1	right	2.0	1.0	1.0	1	0.0424673067033	blockFiles/set_16/main_unc/rightBlue\GB_RB_5.xlsx
275	main_unc	True	0.0	439	0	0.0	0.0	1.0	0	right	2.0	0.0	0.0	0	-0.0063763894327	blockFiles/set_16/main_unc/rightBlue\GB_RB_5.xlsx
276	main_unc	True	0.0	439	0	1.0	1.0	1.0	1	right	1.0	1.0	1.0	1	0.057574595194300006	blockFiles/set_16/main_unc/leftBlue\GB_LB_1.xlsx
277	main_unc	True	0.0	439	0	1.0	1.0	0.0	1	left	2.0	1.0	1.0	0	-0.0343655823916	blockFiles/set_16/main_unc/leftBlue\GB_LB_1.xlsx
278	main_unc	True	0.0	439	0	1.0	1.0	0.0	1	left	2.0	1.0	1.0	0	-0.0246510706842	blockFiles/set_16/main_unc/leftBlue\GB_LB_1.xlsx
279	main_unc	True	0.0	439	0	1.0	1.0	0.0	1	left	2.0	0.0	1.0	0	-0.0223844587989	blockFiles/set_16/main_unc/leftBlue\GB_LB_1.xlsx
280	main_unc	True	0.0	439	0	1.0	1.0	0.0	1	left	2.0	1.0	1.0	0	-0.0582638262399	blockFiles/set_16/main_unc/leftBlue\GB_LB_1.xlsx
281	main_unc	True	0.0	439	0	1.0	1.0	1.0	1	right	1.0	1.0	1.0	1	0.030148226283499998	blockFiles/set_16/main_unc/leftBlue\GB_LB_1.xlsx
282	main_unc	True	0.0	439	0	1.0	1.0	0.0	1	left	1.0	0.0	0.0	0	-0.077396279797	blockFiles/set_16/main_unc/leftBlue\GB_LB_1.xlsx
283	main_unc	True	0.0	439	0	1.0	1.0	0.0	1	left	2.0	1.0	1.0	0	-0.044460708797	blockFiles/set_16/main_unc/leftBlue\GB_LB_1.xlsx
284	main_unc	True	0.0	439	0	1.0	1.0	1.0	1	right	1.0	1.0	1.0	1	0.006734680272640001	blockFiles/set_16/main_unc/leftBlue\GB_LB_1.xlsx
285	main_unc	True	0.0	439	0	1.0	1.0	0.0	1	left	2.0	1.0	1.0	0	-0.007046043667939999	blockFiles/set_16/main_unc/leftBlue\GB_LB_1.xlsx
286	main_unc	True	0.0	439	0	1.0	1.0	1.0	1	right	1.0	1.0	1.0	1	0.0295031126961	blockFiles/set_16/main_unc/leftBlue\GB_LB_1.xlsx
287	main_unc	True	0.0	439	0	1.0	1.0	1.0	1	right	1.0	1.0	1.0	1	0.0327996969596	blockFiles/set_16/main_unc/leftBlue\GB_LB_1.xlsx
288	main_unc	True	0.0	439	0	1.0	1.0	1.0	1	right	1.0	1.0	1.0	1	0.0175321990997	blockFiles/set_16/main_unc/leftBlue\GB_LB_1.xlsx
289	main_unc	True	0.0	439	0	1.0	1.0	1.0	1	right	1.0	1.0	1.0	1	0.0663551839255	blockFiles/set_16/main_unc/leftBlue\GB_LB_1.xlsx
290	main_unc	True	0.0	439	0	1.0	1.0	1.0	1	right	1.0	0.0	1.0	1	0.0469849217497	blockFiles/set_16/main_unc/leftBlue\GB_LB_1.xlsx
291	main_unc	True	0.0	439	0	1.0	1.0	0.0	1	left	2.0	1.0	1.0	0	-0.0551424202323	blockFiles/set_16/main_unc/leftBlue\GB_LB_1.xlsx
292	main_unc	True	1.0	439	0	1.0	1.0	0.0	1	left	n/a	0.0	n/a	0	-0.0513171353936	blockFiles/set_16/main_unc/leftBlue\GB_LB_1.xlsx
293	main_unc	True	0.0	439	0	1.0	1.0	1.0	0	right	1.0	1.0	0.0	0	-0.0015707633271800003	blockFiles/set_16/main_unc/leftBlue\GB_LB_1.xlsx
294	main_unc	True	0.0	439	0	1.0	1.0	0.0	1	left	2.0	1.0	1.0	0	-0.0231442804262	blockFiles/set_16/main_unc/leftBlue\GB_LB_1.xlsx
295	main_unc	True	0.0	439	0	1.0	1.0	0.0	1	left	2.0	0.0	1.0	0	-0.0620098131336	blockFiles/set_16/main_unc/leftBlue\GB_LB_1.xlsx
296	main_unc	True	0.0	439	0	1.0	1.0	0.0	1	left	2.0	0.0	1.0	0	-0.0612099820003	blockFiles/set_16/main_unc/leftBlue\GB_LB_1.xlsx
297	main_unc	True	0.0	439	0	1.0	1.0	1.0	1	right	1.0	1.0	1.0	1	0.0746048815548	blockFiles/set_16/main_unc/leftBlue\GB_LB_1.xlsx
298	main_unc	True	0.0	439	0	1.0	1.0	1.0	1	right	1.0	1.0	1.0	1	0.05950114579869999	blockFiles/set_16/main_unc/leftBlue\GB_LB_1.xlsx
299	main_unc	True	0.0	439	0	1.0	1.0	1.0	1	right	1.0	1.0	1.0	1	0.0157871081308	blockFiles/set_16/main_unc/leftBlue\GB_LB_1.xlsx
300	main_unc	True	0.0	439	0	1.0	1.0	0.0	0	left	2.0	0.0	0.0	1	0.0106700444035	blockFiles/set_16/main_unc/leftBlue\GB_LB_1.xlsx
301	main_unc	True	0.0	439	0	1.0	1.0	0.0	1	left	2.0	1.0	1.0	0	-0.0513171353936	blockFiles/set_16/main_unc/leftBlue\GB_LB_1.xlsx
302	main_unc	True	0.0	439	0	2.0	2.0	0.0	1	left	2.0	0.0	0.0	0	-0.0780978357792	blockFiles/set_16/main_unc/rightBlue\GB_RB_3.xlsx
303	main_unc	True	0.0	439	0	2.0	2.0	0.0	1	left	1.0	1.0	1.0	0	-0.007624329589310001	blockFiles/set_16/main_unc/rightBlue\GB_RB_3.xlsx
304	main_unc	True	0.0	439	0	2.0	2.0	0.0	1	left	1.0	1.0	1.0	0	-0.0259501495957	blockFiles/set_16/main_unc/rightBlue\GB_RB_3.xlsx
305	main_unc	True	1.0	439	0	2.0	2.0	n/a	0	None	n/a	0.0	n/a	0	-0.024824849013200003	blockFiles/set_16/main_unc/rightBlue\GB_RB_3.xlsx
306	main_unc	True	0.0	439	0	2.0	2.0	0.0	1	left	1.0	1.0	1.0	0	-0.0239494266361	blockFiles/set_16/main_unc/rightBlue\GB_RB_3.xlsx
307	main_unc	True	0.0	439	0	2.0	2.0	1.0	1	right	2.0	1.0	1.0	1	0.07839715885	blockFiles/set_16/main_unc/rightBlue\GB_RB_3.xlsx
308	main_unc	True	0.0	439	0	2.0	2.0	1.0	1	right	2.0	1.0	1.0	1	0.0260404391959	blockFiles/set_16/main_unc/rightBlue\GB_RB_3.xlsx
309	main_unc	True	0.0	439	0	2.0	2.0	1.0	1	right	2.0	1.0	1.0	1	0.0395613068156	blockFiles/set_16/main_unc/rightBlue\GB_RB_3.xlsx
310	main_unc	True	0.0	439	0	2.0	2.0	0.0	1	left	1.0	1.0	1.0	0	-0.0172176556475	blockFiles/set_16/main_unc/rightBlue\GB_RB_3.xlsx
311	main_unc	True	0.0	439	0	2.0	2.0	0.0	1	left	1.0	0.0	1.0	0	-0.052162621393800006	blockFiles/set_16/main_unc/rightBlue\GB_RB_3.xlsx
312	main_unc	True	0.0	439	0	2.0	2.0	1.0	1	right	1.0	0.0	0.0	1	0.0505254723877	blockFiles/set_16/main_unc/rightBlue\GB_RB_3.xlsx
313	main_unc	True	0.0	439	0	2.0	2.0	0.0	1	left	1.0	0.0	1.0	0	-0.055281095691	blockFiles/set_16/main_unc/rightBlue\GB_RB_3.xlsx
314	main_unc	True	0.0	439	0	2.0	2.0	1.0	1	right	2.0	0.0	1.0	1	0.037857358139	blockFiles/set_16/main_unc/rightBlue\GB_RB_3.xlsx
315	main_unc	True	0.0	439	0	2.0	2.0	1.0	1	right	2.0	1.0	1.0	1	0.04644298465919999	blockFiles/set_16/main_unc/rightBlue\GB_RB_3.xlsx
316	main_unc	True	0.0	439	0	2.0	2.0	0.0	1	left	1.0	1.0	1.0	0	-0.0133976486139	blockFiles/set_16/main_unc/rightBlue\GB_RB_3.xlsx
317	main_unc	True	0.0	439	0	2.0	2.0	1.0	1	right	2.0	1.0	1.0	1	0.0608503292128	blockFiles/set_16/main_unc/rightBlue\GB_RB_3.xlsx
318	main_unc	True	0.0	439	0	2.0	2.0	1.0	1	right	2.0	1.0	1.0	1	0.0651818742231	blockFiles/set_16/main_unc/rightBlue\GB_RB_3.xlsx
319	main_unc	True	0.0	439	0	2.0	2.0	0.0	1	left	1.0	0.0	1.0	0	-0.0168086269125	blockFiles/set_16/main_unc/rightBlue\GB_RB_3.xlsx
320	main_unc	True	0.0	439	0	2.0	2.0	0.0	1	left	1.0	1.0	1.0	0	-0.06771882852540001	blockFiles/set_16/main_unc/rightBlue\GB_RB_3.xlsx
321	main_unc	True	0.0	439	0	2.0	2.0	1.0	1	right	1.0	1.0	0.0	1	0.0202912840061	blockFiles/set_16/main_unc/rightBlue\GB_RB_3.xlsx
322	main_unc	True	0.0	439	0	2.0	2.0	1.0	1	right	2.0	1.0	1.0	1	0.0344522166811	blockFiles/set_16/main_unc/rightBlue\GB_RB_3.xlsx
323	main_unc	True	0.0	439	0	2.0	2.0	0.0	0	left	1.0	0.0	0.0	1	0.0273093560152	blockFiles/set_16/main_unc/rightBlue\GB_RB_3.xlsx
324	main_unc	True	0.0	439	0	2.0	2.0	1.0	1	right	2.0	1.0	1.0	1	0.0698816291615	blockFiles/set_16/main_unc/rightBlue\GB_RB_3.xlsx
325	main_unc	True	0.0	439	0	2.0	2.0	0.0	0	left	1.0	0.0	0.0	1	0.00495804546401	blockFiles/set_16/main_unc/rightBlue\GB_RB_3.xlsx
326	main_unc	True	0.0	439	0	2.0	2.0	0.0	1	left	1.0	0.0	1.0	0	-0.0787533174455	blockFiles/set_16/main_unc/rightBlue\GB_RB_3.xlsx
327	main_unc	True	0.0	439	0	2.0	2.0	1.0	0	right	2.0	0.0	0.0	0	-0.024824849013200003	blockFiles/set_16/main_unc/rightBlue\GB_RB_3.xlsx
328	main_unc	True	0.0	439	0	3.0	3.0	0.0	1	left	1.0	0.0	0.0	0	-0.07949502041560001	blockFiles/set_16/main_unc/leftBlue\GB_LB_5.xlsx
329	main_unc	True	0.0	439	0	3.0	3.0	1.0	1	right	1.0	1.0	1.0	1	0.0383206601627	blockFiles/set_16/main_unc/leftBlue\GB_LB_5.xlsx
330	main_unc	True	0.0	439	0	3.0	3.0	1.0	1	right	1.0	1.0	1.0	1	0.0347152589075	blockFiles/set_16/main_unc/leftBlue\GB_LB_5.xlsx
331	main_unc	True	0.0	439	0	3.0	3.0	1.0	1	right	1.0	0.0	1.0	1	0.050472371224300004	blockFiles/set_16/main_unc/leftBlue\GB_LB_5.xlsx
332	main_unc	True	0.0	439	0	3.0	3.0	0.0	1	left	2.0	1.0	1.0	0	-0.0796067806147	blockFiles/set_16/main_unc/leftBlue\GB_LB_5.xlsx
333	main_unc	True	0.0	439	0	3.0	3.0	0.0	0	left	2.0	0.0	0.0	1	0.000195485446602	blockFiles/set_16/main_unc/leftBlue\GB_LB_5.xlsx
334	main_unc	True	0.0	439	0	3.0	3.0	0.0	1	left	2.0	0.0	1.0	0	-0.0245165005513	blockFiles/set_16/main_unc/leftBlue\GB_LB_5.xlsx
335	main_unc	True	0.0	439	0	3.0	3.0	0.0	1	left	2.0	1.0	1.0	0	-0.042764617838	blockFiles/set_16/main_unc/leftBlue\GB_LB_5.xlsx
336	main_unc	True	0.0	439	0	3.0	3.0	0.0	1	left	2.0	1.0	1.0	0	-0.0119966526516	blockFiles/set_16/main_unc/leftBlue\GB_LB_5.xlsx
337	main_unc	True	0.0	439	0	3.0	3.0	1.0	1	right	1.0	1.0	1.0	1	0.071255885046	blockFiles/set_16/main_unc/leftBlue\GB_LB_5.xlsx
338	main_unc	True	0.0	439	0	3.0	3.0	0.0	1	left	2.0	1.0	1.0	0	-0.0642829561606	blockFiles/set_16/main_unc/leftBlue\GB_LB_5.xlsx
339	main_unc	True	0.0	439	0	3.0	3.0	1.0	0	right	1.0	1.0	0.0	0	-0.0558454242162	blockFiles/set_16/main_unc/leftBlue\GB_LB_5.xlsx
340	main_unc	True	0.0	439	0	3.0	3.0	0.0	0	left	2.0	0.0	0.0	1	0.00464061016217	blockFiles/set_16/main_unc/leftBlue\GB_LB_5.xlsx
341	main_unc	True	0.0	439	0	3.0	3.0	1.0	1	right	1.0	1.0	1.0	1	0.0492568466812	blockFiles/set_16/main_unc/leftBlue\GB_LB_5.xlsx
342	main_unc	True	0.0	439	0	3.0	3.0	1.0	1	right	1.0	1.0	1.0	1	0.037991221044199996	blockFiles/set_16/main_unc/leftBlue\GB_LB_5.xlsx
343	main_unc	True	0.0	439	0	3.0	3.0	1.0	1	right	1.0	1.0	1.0	1	0.0269562615454	blockFiles/set_16/main_unc/leftBlue\GB_LB_5.xlsx
344	main_unc	True	0.0	439	0	3.0	3.0	0.0	1	left	2.0	1.0	1.0	0	-0.0249657420628	blockFiles/set_16/main_unc/leftBlue\GB_LB_5.xlsx
345	main_unc	True	0.0	439	0	3.0	3.0	0.0	1	left	2.0	1.0	1.0	0	-0.050828051157300005	blockFiles/set_16/main_unc/leftBlue\GB_LB_5.xlsx
346	main_unc	True	0.0	439	0	3.0	3.0	1.0	1	right	1.0	1.0	1.0	1	0.0627641814388	blockFiles/set_16/main_unc/leftBlue\GB_LB_5.xlsx
347	main_unc	True	0.0	439	0	3.0	3.0	1.0	1	right	1.0	0.0	1.0	1	0.0532146304101	blockFiles/set_16/main_unc/leftBlue\GB_LB_5.xlsx
348	main_unc	True	0.0	439	0	3.0	3.0	1.0	1	right	1.0	1.0	1.0	1	0.00990133287385	blockFiles/set_16/main_unc/leftBlue\GB_LB_5.xlsx
349	main_unc	True	0.0	439	0	3.0	3.0	1.0	1	right	1.0	1.0	1.0	1	0.0758390271291	blockFiles/set_16/main_unc/leftBlue\GB_LB_5.xlsx
350	main_unc	True	0.0	439	0	3.0	3.0	1.0	0	right	1.0	0.0	0.0	0	-0.007405332420020001	blockFiles/set_16/main_unc/leftBlue\GB_LB_5.xlsx
351	main_unc	True	0.0	439	0	3.0	3.0	1.0	0	right	1.0	0.0	0.0	0	-0.024134565983	blockFiles/set_16/main_unc/leftBlue\GB_LB_5.xlsx
352	main_unc	True	0.0	439	0	3.0	3.0	1.0	1	right	1.0	1.0	1.0	1	0.07830058449880001	blockFiles/set_16/main_unc/leftBlue\GB_LB_5.xlsx
353	main_unc	True	0.0	439	0	4.0	4.0	0.0	1	left	2.0	1.0	1.0	0	-0.000445060003549	blockFiles/set_16/main_unc/leftBlue\GB_LB_2.xlsx
354	main_unc	True	0.0	439	0	4.0	4.0	0.0	1	left	2.0	1.0	1.0	0	-0.0508461531252	blockFiles/set_16/main_unc/leftBlue\GB_LB_2.xlsx
355	main_unc	True	0.0	439	0	4.0	4.0	1.0	1	right	1.0	1.0	1.0	1	0.0108864639141	blockFiles/set_16/main_unc/leftBlue\GB_LB_2.xlsx
356	main_unc	True	0.0	439	0	4.0	4.0	0.0	1	left	2.0	1.0	1.0	0	-0.05357850221919999	blockFiles/set_16/main_unc/leftBlue\GB_LB_2.xlsx
357	main_unc	True	0.0	439	0	4.0	4.0	0.0	1	left	2.0	1.0	1.0	0	-0.0548874764889	blockFiles/set_16/main_unc/leftBlue\GB_LB_2.xlsx
358	main_unc	True	0.0	439	0	4.0	4.0	0.0	0	left	1.0	1.0	1.0	1	0.046032005772	blockFiles/set_16/main_unc/leftBlue\GB_LB_2.xlsx
359	main_unc	True	0.0	439	0	4.0	4.0	0.0	1	left	2.0	1.0	1.0	0	-0.075871103052	blockFiles/set_16/main_unc/leftBlue\GB_LB_2.xlsx
360	main_unc	True	0.0	439	0	4.0	4.0	1.0	1	right	1.0	1.0	1.0	1	0.0650861728564	blockFiles/set_16/main_unc/leftBlue\GB_LB_2.xlsx
361	main_unc	True	0.0	439	0	4.0	4.0	0.0	1	left	1.0	0.0	0.0	0	-0.0258006177098	blockFiles/set_16/main_unc/leftBlue\GB_LB_2.xlsx
362	main_unc	True	0.0	439	0	4.0	4.0	1.0	1	right	1.0	1.0	1.0	1	0.05394397081809999	blockFiles/set_16/main_unc/leftBlue\GB_LB_2.xlsx
363	main_unc	True	0.0	439	0	4.0	4.0	1.0	1	right	1.0	1.0	1.0	1	0.0234713164717	blockFiles/set_16/main_unc/leftBlue\GB_LB_2.xlsx
364	main_unc	True	0.0	439	0	4.0	4.0	1.0	1	right	1.0	0.0	1.0	1	0.00783575272188	blockFiles/set_16/main_unc/leftBlue\GB_LB_2.xlsx
365	main_unc	True	0.0	439	0	4.0	4.0	0.0	1	left	2.0	1.0	1.0	0	-0.0416454185359	blockFiles/set_16/main_unc/leftBlue\GB_LB_2.xlsx
366	main_unc	True	0.0	439	0	4.0	4.0	1.0	1	right	1.0	1.0	1.0	1	0.045016297772500005	blockFiles/set_16/main_unc/leftBlue\GB_LB_2.xlsx
367	main_unc	True	0.0	439	0	4.0	4.0	0.0	0	left	2.0	0.0	0.0	1	0.0153736991622	blockFiles/set_16/main_unc/leftBlue\GB_LB_2.xlsx
368	main_unc	True	0.0	439	0	4.0	4.0	0.0	1	left	2.0	0.0	1.0	0	-0.042689865361900003	blockFiles/set_16/main_unc/leftBlue\GB_LB_2.xlsx
369	main_unc	True	0.0	439	0	4.0	4.0	0.0	1	left	2.0	1.0	1.0	0	-0.054183541275599996	blockFiles/set_16/main_unc/leftBlue\GB_LB_2.xlsx
370	main_unc	True	0.0	439	0	4.0	4.0	0.0	1	left	2.0	1.0	1.0	0	-0.0348759666644	blockFiles/set_16/main_unc/leftBlue\GB_LB_2.xlsx
371	main_unc	True	0.0	439	0	4.0	4.0	1.0	1	right	1.0	0.0	1.0	1	0.0345193094201	blockFiles/set_16/main_unc/leftBlue\GB_LB_2.xlsx
372	main_unc	True	0.0	439	0	4.0	4.0	1.0	1	right	1.0	1.0	1.0	1	0.0448658999614	blockFiles/set_16/main_unc/leftBlue\GB_LB_2.xlsx
373	main_unc	True	0.0	439	0	4.0	4.0	1.0	1	right	1.0	1.0	1.0	1	0.07263582913210001	blockFiles/set_16/main_unc/leftBlue\GB_LB_2.xlsx
374	main_unc	True	0.0	439	0	4.0	4.0	1.0	1	right	1.0	1.0	1.0	1	0.047891615871299996	blockFiles/set_16/main_unc/leftBlue\GB_LB_2.xlsx
375	main_unc	True	0.0	439	0	4.0	4.0	1.0	1	right	1.0	0.0	1.0	1	0.0182970639318	blockFiles/set_16/main_unc/leftBlue\GB_LB_2.xlsx
376	main_unc	True	0.0	439	0	4.0	4.0	1.0	0	right	1.0	1.0	0.0	0	-0.0030796361155799997	blockFiles/set_16/main_unc/leftBlue\GB_LB_2.xlsx
377	main_unc	True	0.0	439	0	4.0	4.0	1.0	1	right	1.0	1.0	1.0	1	0.0358928485028	blockFiles/set_16/main_unc/leftBlue\GB_LB_2.xlsx
378	main_unc	True	0.0	439	0	5.0	5.0	1.0	1	right	1.0	1.0	0.0	1	0.0126154310815	blockFiles/set_16/main_unc/rightBlue\GB_RB_1.xlsx
379	main_unc	True	0.0	439	0	5.0	5.0	1.0	1	right	1.0	0.0	0.0	1	0.0651318922453	blockFiles/set_16/main_unc/rightBlue\GB_RB_1.xlsx
380	main_unc	True	0.0	439	0	5.0	5.0	1.0	1	right	1.0	0.0	0.0	1	0.0326149881817	blockFiles/set_16/main_unc/rightBlue\GB_RB_1.xlsx
381	main_unc	True	0.0	439	0	5.0	5.0	1.0	0	right	2.0	0.0	0.0	0	-0.0009344097226860002	blockFiles/set_16/main_unc/rightBlue\GB_RB_1.xlsx
382	main_unc	True	0.0	439	0	5.0	5.0	0.0	1	left	1.0	1.0	1.0	0	-0.0410442891158	blockFiles/set_16/main_unc/rightBlue\GB_RB_1.xlsx
383	main_unc	True	0.0	439	0	5.0	5.0	0.0	1	left	1.0	1.0	1.0	0	-0.0649903928116	blockFiles/set_16/main_unc/rightBlue\GB_RB_1.xlsx
384	main_unc	True	0.0	439	0	5.0	5.0	1.0	1	right	2.0	1.0	1.0	1	0.0146444321796	blockFiles/set_16/main_unc/rightBlue\GB_RB_1.xlsx
385	main_unc	True	0.0	439	0	5.0	5.0	1.0	1	right	2.0	1.0	1.0	1	0.054100191593199995	blockFiles/set_16/main_unc/rightBlue\GB_RB_1.xlsx
386	main_unc	True	0.0	439	0	5.0	5.0	0.0	1	left	1.0	0.0	1.0	0	-0.036109491493599995	blockFiles/set_16/main_unc/rightBlue\GB_RB_1.xlsx
387	main_unc	True	0.0	439	0	5.0	5.0	1.0	1	right	2.0	1.0	1.0	1	0.0795956793427	blockFiles/set_16/main_unc/rightBlue\GB_RB_1.xlsx
388	main_unc	True	0.0	439	0	5.0	5.0	0.0	0	left	1.0	0.0	0.0	1	0.00805003050715	blockFiles/set_16/main_unc/rightBlue\GB_RB_1.xlsx
389	main_unc	True	0.0	439	0	5.0	5.0	1.0	1	right	2.0	1.0	1.0	1	0.0080781612359	blockFiles/set_16/main_unc/rightBlue\GB_RB_1.xlsx
390	main_unc	True	0.0	439	0	5.0	5.0	1.0	1	right	2.0	1.0	1.0	1	0.0490689845011	blockFiles/set_16/main_unc/rightBlue\GB_RB_1.xlsx
391	main_unc	True	0.0	439	0	5.0	5.0	1.0	0	right	2.0	0.0	0.0	0	-0.0115356252156	blockFiles/set_16/main_unc/rightBlue\GB_RB_1.xlsx
392	main_unc	True	0.0	439	0	5.0	5.0	0.0	1	left	1.0	0.0	1.0	0	-0.0671743002534	blockFiles/set_16/main_unc/rightBlue\GB_RB_1.xlsx
393	main_unc	True	0.0	439	0	5.0	5.0	0.0	1	left	1.0	1.0	1.0	0	-0.04298959618430001	blockFiles/set_16/main_unc/rightBlue\GB_RB_1.xlsx
394	main_unc	True	0.0	439	0	5.0	5.0	1.0	1	right	2.0	0.0	1.0	1	0.0384248203412	blockFiles/set_16/main_unc/rightBlue\GB_RB_1.xlsx
395	main_unc	True	0.0	439	0	5.0	5.0	0.0	1	left	1.0	1.0	1.0	0	-0.057920547016	blockFiles/set_16/main_unc/rightBlue\GB_RB_1.xlsx
396	main_unc	True	0.0	439	0	5.0	5.0	1.0	0	right	2.0	1.0	0.0	0	-0.004446668811140001	blockFiles/set_16/main_unc/rightBlue\GB_RB_1.xlsx
397	main_unc	True	0.0	439	0	5.0	5.0	0.0	1	left	1.0	1.0	1.0	0	-0.035106879957	blockFiles/set_16/main_unc/rightBlue\GB_RB_1.xlsx
398	main_unc	True	0.0	439	0	5.0	5.0	0.0	1	left	1.0	1.0	1.0	0	-0.0687934338301	blockFiles/set_16/main_unc/rightBlue\GB_RB_1.xlsx
399	main_unc	True	0.0	439	0	5.0	5.0	0.0	1	left	1.0	1.0	1.0	0	-0.00451830895618	blockFiles/set_16/main_unc/rightBlue\GB_RB_1.xlsx
400	main_unc	True	0.0	439	0	5.0	5.0	1.0	1	right	2.0	1.0	1.0	1	0.0040903445147	blockFiles/set_16/main_unc/rightBlue\GB_RB_1.xlsx
401	main_unc	True	0.0	439	0	5.0	5.0	1.0	1	right	2.0	1.0	1.0	1	0.0381561742723	blockFiles/set_16/main_unc/rightBlue\GB_RB_1.xlsx
402	main_unc	True	0.0	439	0	5.0	5.0	0.0	1	left	1.0	1.0	1.0	0	-0.0494286909327	blockFiles/set_16/main_unc/rightBlue\GB_RB_1.xlsx
403	main_unc	True	0.0	439	0	6.0	6.0	0.0	1	left	2.0	1.0	1.0	0	-0.0133892006427	blockFiles/set_16/main_unc/leftBlue\GB_LB_3.xlsx
404	main_unc	True	0.0	439	0	6.0	6.0	1.0	1	right	1.0	1.0	1.0	1	0.06522528136149999	blockFiles/set_16/main_unc/leftBlue\GB_LB_3.xlsx
405	main_unc	True	0.0	439	0	6.0	6.0	1.0	1	right	1.0	1.0	1.0	1	0.0592099119723	blockFiles/set_16/main_unc/leftBlue\GB_LB_3.xlsx
406	main_unc	True	0.0	439	0	6.0	6.0	1.0	1	right	1.0	1.0	1.0	1	0.024109083209199998	blockFiles/set_16/main_unc/leftBlue\GB_LB_3.xlsx
407	main_unc	True	0.0	439	0	6.0	6.0	0.0	1	left	2.0	1.0	1.0	0	-0.0440490444377	blockFiles/set_16/main_unc/leftBlue\GB_LB_3.xlsx
408	main_unc	True	0.0	439	0	6.0	6.0	1.0	1	right	2.0	1.0	0.0	1	0.0594827927276	blockFiles/set_16/main_unc/leftBlue\GB_LB_3.xlsx
409	main_unc	True	0.0	439	0	6.0	6.0	1.0	1	right	1.0	1.0	1.0	1	0.0509993782453	blockFiles/set_16/main_unc/leftBlue\GB_LB_3.xlsx
410	main_unc	True	0.0	439	0	6.0	6.0	1.0	1	right	1.0	1.0	1.0	1	0.016887926124	blockFiles/set_16/main_unc/leftBlue\GB_LB_3.xlsx
411	main_unc	True	0.0	439	0	6.0	6.0	1.0	1	right	1.0	1.0	1.0	1	0.03326799253	blockFiles/set_16/main_unc/leftBlue\GB_LB_3.xlsx
412	main_unc	True	0.0	439	0	6.0	6.0	1.0	0	right	1.0	0.0	0.0	0	-0.021401953306	blockFiles/set_16/main_unc/leftBlue\GB_LB_3.xlsx
413	main_unc	True	0.0	439	0	6.0	6.0	0.0	1	left	2.0	1.0	1.0	0	-0.00536098564044	blockFiles/set_16/main_unc/leftBlue\GB_LB_3.xlsx
414	main_unc	True	0.0	439	0	6.0	6.0	0.0	1	left	2.0	1.0	1.0	0	-0.0290307865478	blockFiles/set_16/main_unc/leftBlue\GB_LB_3.xlsx
415	main_unc	True	0.0	439	0	6.0	6.0	0.0	1	left	2.0	0.0	1.0	0	-0.0643356218934	blockFiles/set_16/main_unc/leftBlue\GB_LB_3.xlsx
416	main_unc	True	0.0	439	0	6.0	6.0	0.0	1	left	2.0	0.0	1.0	0	-0.046473333891500004	blockFiles/set_16/main_unc/leftBlue\GB_LB_3.xlsx
417	main_unc	True	0.0	439	0	6.0	6.0	1.0	1	right	1.0	1.0	1.0	1	0.0757890406996	blockFiles/set_16/main_unc/leftBlue\GB_LB_3.xlsx
418	main_unc	True	0.0	439	0	6.0	6.0	1.0	1	right	1.0	1.0	1.0	1	0.0203396216035	blockFiles/set_16/main_unc/leftBlue\GB_LB_3.xlsx
419	main_unc	True	0.0	439	0	6.0	6.0	1.0	1	right	1.0	0.0	1.0	1	0.050230854079099996	blockFiles/set_16/main_unc/leftBlue\GB_LB_3.xlsx
420	main_unc	True	0.0	439	0	6.0	6.0	0.0	1	left	2.0	1.0	1.0	0	-0.0606930988841	blockFiles/set_16/main_unc/leftBlue\GB_LB_3.xlsx
421	main_unc	True	0.0	439	0	6.0	6.0	0.0	1	left	2.0	1.0	1.0	0	-0.00622831007466	blockFiles/set_16/main_unc/leftBlue\GB_LB_3.xlsx
422	main_unc	True	0.0	439	0	6.0	6.0	0.0	1	left	2.0	1.0	1.0	0	-0.0612676328234	blockFiles/set_16/main_unc/leftBlue\GB_LB_3.xlsx
423	main_unc	True	0.0	439	0	6.0	6.0	0.0	1	left	2.0	0.0	1.0	0	-0.0302503480762	blockFiles/set_16/main_unc/leftBlue\GB_LB_3.xlsx
424	main_unc	True	0.0	439	0	6.0	6.0	1.0	0	right	1.0	0.0	0.0	0	-0.000559291020036	blockFiles/set_16/main_unc/leftBlue\GB_LB_3.xlsx
425	main_unc	True	0.0	439	0	6.0	6.0	1.0	1	right	1.0	1.0	1.0	1	0.041875759158300004	blockFiles/set_16/main_unc/leftBlue\GB_LB_3.xlsx
426	main_unc	True	0.0	439	0	6.0	6.0	1.0	1	right	1.0	1.0	1.0	1	0.0373192411289	blockFiles/set_16/main_unc/leftBlue\GB_LB_3.xlsx
427	main_unc	True	0.0	439	0	6.0	6.0	1.0	1	right	1.0	0.0	1.0	1	0.074737344794	blockFiles/set_16/main_unc/leftBlue\GB_LB_3.xlsx
428	main_unc	True	0.0	439	0	7.0	7.0	0.0	0	left	1.0	0.0	0.0	1	0.0349505822733	blockFiles/set_16/main_unc/rightBlue\GB_RB_6.xlsx
429	main_unc	True	0.0	439	0	7.0	7.0	0.0	1	left	2.0	0.0	0.0	0	-0.0602659111097	blockFiles/set_16/main_unc/rightBlue\GB_RB_6.xlsx
430	main_unc	True	0.0	439	0	7.0	7.0	1.0	1	right	2.0	1.0	1.0	1	0.050426756981800006	blockFiles/set_16/main_unc/rightBlue\GB_RB_6.xlsx
431	main_unc	True	0.0	439	0	7.0	7.0	1.0	1	right	2.0	0.0	1.0	1	0.033496977109500004	blockFiles/set_16/main_unc/rightBlue\GB_RB_6.xlsx
432	main_unc	True	0.0	439	0	7.0	7.0	0.0	0	left	1.0	0.0	0.0	1	0.00445429136977	blockFiles/set_16/main_unc/rightBlue\GB_RB_6.xlsx
433	main_unc	True	0.0	439	0	7.0	7.0	1.0	1	right	1.0	1.0	0.0	1	0.00423054767773	blockFiles/set_16/main_unc/rightBlue\GB_RB_6.xlsx
434	main_unc	True	0.0	439	0	7.0	7.0	1.0	1	right	1.0	0.0	0.0	1	0.0490508776903	blockFiles/set_16/main_unc/rightBlue\GB_RB_6.xlsx
435	main_unc	True	0.0	439	0	7.0	7.0	1.0	1	right	1.0	0.0	0.0	1	0.059797582756699996	blockFiles/set_16/main_unc/rightBlue\GB_RB_6.xlsx
436	main_unc	True	0.0	439	0	7.0	7.0	0.0	1	left	1.0	1.0	1.0	0	-0.06230499627069999	blockFiles/set_16/main_unc/rightBlue\GB_RB_6.xlsx
437	main_unc	True	0.0	439	0	7.0	7.0	0.0	1	left	1.0	1.0	1.0	0	-0.0179522209428	blockFiles/set_16/main_unc/rightBlue\GB_RB_6.xlsx
438	main_unc	True	0.0	439	0	7.0	7.0	1.0	1	right	2.0	1.0	1.0	1	0.057984191160599996	blockFiles/set_16/main_unc/rightBlue\GB_RB_6.xlsx
439	main_unc	True	0.0	439	0	7.0	7.0	0.0	0	left	1.0	0.0	0.0	1	0.0164635604434	blockFiles/set_16/main_unc/rightBlue\GB_RB_6.xlsx
440	main_unc	True	0.0	439	0	7.0	7.0	1.0	0	right	2.0	0.0	0.0	0	-0.00973436465487	blockFiles/set_16/main_unc/rightBlue\GB_RB_6.xlsx
441	main_unc	True	0.0	439	0	7.0	7.0	0.0	1	left	1.0	1.0	1.0	0	-0.06274684660140001	blockFiles/set_16/main_unc/rightBlue\GB_RB_6.xlsx
442	main_unc	True	0.0	439	0	7.0	7.0	0.0	1	left	1.0	1.0	1.0	0	-0.0214887074381	blockFiles/set_16/main_unc/rightBlue\GB_RB_6.xlsx
443	main_unc	True	0.0	439	0	7.0	7.0	0.0	1	left	1.0	0.0	1.0	0	-0.0535878111795	blockFiles/set_16/main_unc/rightBlue\GB_RB_6.xlsx
444	main_unc	True	0.0	439	0	7.0	7.0	0.0	1	left	1.0	0.0	1.0	0	-0.0399261819758	blockFiles/set_16/main_unc/rightBlue\GB_RB_6.xlsx
445	main_unc	True	0.0	439	0	7.0	7.0	1.0	1	right	1.0	0.0	0.0	1	0.0311768827215	blockFiles/set_16/main_unc/rightBlue\GB_RB_6.xlsx
446	main_unc	True	0.0	439	0	7.0	7.0	0.0	1	left	1.0	1.0	1.0	0	-0.0133057548851	blockFiles/set_16/main_unc/rightBlue\GB_RB_6.xlsx
447	main_unc	True	0.0	439	0	7.0	7.0	0.0	1	left	1.0	0.0	1.0	0	-0.0661597265489	blockFiles/set_16/main_unc/rightBlue\GB_RB_6.xlsx
448	main_unc	True	0.0	439	0	7.0	7.0	0.0	1	left	2.0	0.0	0.0	0	-0.012902620621	blockFiles/set_16/main_unc/rightBlue\GB_RB_6.xlsx
449	main_unc	True	0.0	439	0	7.0	7.0	1.0	1	right	2.0	1.0	1.0	1	0.058020266387599995	blockFiles/set_16/main_unc/rightBlue\GB_RB_6.xlsx
450	main_unc	True	0.0	439	0	7.0	7.0	0.0	1	left	1.0	1.0	1.0	0	-0.0792908620462	blockFiles/set_16/main_unc/rightBlue\GB_RB_6.xlsx
451	main_unc	True	0.0	439	0	7.0	7.0	1.0	1	right	2.0	1.0	1.0	1	0.054332696814099996	blockFiles/set_16/main_unc/rightBlue\GB_RB_6.xlsx
452	main_unc	True	0.0	439	0	7.0	7.0	0.0	1	left	1.0	1.0	1.0	0	-0.0428129459918	blockFiles/set_16/main_unc/rightBlue\GB_RB_6.xlsx
453	main_unc	True	0.0	439	0	8.0	8.0	0.0	1	left	1.0	1.0	1.0	0	-0.0431179519184	blockFiles/set_16/main_unc/rightBlue\GB_RB_4.xlsx
454	main_unc	True	0.0	439	0	8.0	8.0	1.0	1	right	2.0	1.0	1.0	1	0.0568139441125	blockFiles/set_16/main_unc/rightBlue\GB_RB_4.xlsx
455	main_unc	True	0.0	439	0	8.0	8.0	0.0	1	left	1.0	0.0	1.0	0	-0.013186762165299999	blockFiles/set_16/main_unc/rightBlue\GB_RB_4.xlsx
456	main_unc	True	0.0	439	0	8.0	8.0	0.0	1	left	1.0	1.0	1.0	0	-0.0065343490615499995	blockFiles/set_16/main_unc/rightBlue\GB_RB_4.xlsx
457	main_unc	True	0.0	439	0	8.0	8.0	1.0	1	right	2.0	1.0	1.0	1	0.047741902228399996	blockFiles/set_16/main_unc/rightBlue\GB_RB_4.xlsx
458	main_unc	True	0.0	439	0	8.0	8.0	0.0	1	left	1.0	0.0	1.0	0	-0.0528883383051	blockFiles/set_16/main_unc/rightBlue\GB_RB_4.xlsx
459	main_unc	True	0.0	439	0	8.0	8.0	0.0	1	left	1.0	1.0	1.0	0	-0.046438316553800006	blockFiles/set_16/main_unc/rightBlue\GB_RB_4.xlsx
460	main_unc	True	0.0	439	0	8.0	8.0	0.0	1	left	1.0	0.0	1.0	0	-0.019234038069799998	blockFiles/set_16/main_unc/rightBlue\GB_RB_4.xlsx
461	main_unc	True	0.0	439	0	8.0	8.0	1.0	1	right	2.0	1.0	1.0	1	0.0145039291866	blockFiles/set_16/main_unc/rightBlue\GB_RB_4.xlsx
462	main_unc	True	0.0	439	0	8.0	8.0	0.0	1	left	1.0	1.0	1.0	0	-0.060096938982600004	blockFiles/set_16/main_unc/rightBlue\GB_RB_4.xlsx
463	main_unc	True	0.0	439	0	8.0	8.0	1.0	1	right	2.0	1.0	1.0	1	0.00351512810215	blockFiles/set_16/main_unc/rightBlue\GB_RB_4.xlsx
464	main_unc	True	0.0	439	0	8.0	8.0	1.0	1	right	2.0	1.0	1.0	1	0.0681687383354	blockFiles/set_16/main_unc/rightBlue\GB_RB_4.xlsx
465	main_unc	True	0.0	439	0	8.0	8.0	1.0	1	right	2.0	0.0	1.0	1	0.07541923683139999	blockFiles/set_16/main_unc/rightBlue\GB_RB_4.xlsx
466	main_unc	True	0.0	439	0	8.0	8.0	1.0	1	right	2.0	0.0	1.0	1	0.00306975295767	blockFiles/set_16/main_unc/rightBlue\GB_RB_4.xlsx
467	main_unc	True	0.0	439	0	8.0	8.0	0.0	1	left	1.0	1.0	1.0	0	-0.006742491461340001	blockFiles/set_16/main_unc/rightBlue\GB_RB_4.xlsx
468	main_unc	True	0.0	439	0	8.0	8.0	0.0	1	left	1.0	0.0	1.0	0	-0.024197487086099995	blockFiles/set_16/main_unc/rightBlue\GB_RB_4.xlsx
469	main_unc	True	0.0	439	0	8.0	8.0	0.0	1	left	1.0	1.0	1.0	0	-0.0475629087351	blockFiles/set_16/main_unc/rightBlue\GB_RB_4.xlsx
470	main_unc	True	0.0	439	0	8.0	8.0	1.0	0	right	2.0	0.0	0.0	0	-0.066716061011	blockFiles/set_16/main_unc/rightBlue\GB_RB_4.xlsx
471	main_unc	True	0.0	439	0	8.0	8.0	1.0	1	right	2.0	1.0	1.0	1	0.0679204828478	blockFiles/set_16/main_unc/rightBlue\GB_RB_4.xlsx
472	main_unc	True	0.0	439	0	8.0	8.0	0.0	1	left	1.0	1.0	1.0	0	-0.0141464264877	blockFiles/set_16/main_unc/rightBlue\GB_RB_4.xlsx
473	main_unc	True	0.0	439	0	8.0	8.0	1.0	1	right	2.0	1.0	1.0	1	0.05612466512249999	blockFiles/set_16/main_unc/rightBlue\GB_RB_4.xlsx
474	main_unc	True	0.0	439	0	8.0	8.0	0.0	1	left	1.0	1.0	1.0	0	-0.0657455139607	blockFiles/set_16/main_unc/rightBlue\GB_RB_4.xlsx
475	main_unc	True	0.0	439	0	8.0	8.0	1.0	1	right	2.0	1.0	1.0	1	0.036304644793300006	blockFiles/set_16/main_unc/rightBlue\GB_RB_4.xlsx
476	main_unc	True	0.0	439	0	8.0	8.0	0.0	1	left	1.0	1.0	1.0	0	-0.0301358208433	blockFiles/set_16/main_unc/rightBlue\GB_RB_4.xlsx
477	main_unc	True	0.0	439	0	8.0	8.0	1.0	1	right	2.0	1.0	1.0	1	0.0323158557341	blockFiles/set_16/main_unc/rightBlue\GB_RB_4.xlsx
478	main_unc	True	1.0	439	0	9.0	9.0	0.0	1	left	n/a	0.0	n/a	0	-0.0488376989774	blockFiles/set_16/main_unc/leftBlue\GB_LB_4.xlsx
479	main_unc	True	1.0	439	0	9.0	9.0	n/a	0	None	n/a	0.0	n/a	1	0.0111023854464	blockFiles/set_16/main_unc/leftBlue\GB_LB_4.xlsx
480	main_unc	True	0.0	439	0	9.0	9.0	0.0	1	left	1.0	0.0	0.0	0	-0.0732749319822	blockFiles/set_16/main_unc/leftBlue\GB_LB_4.xlsx
481	main_unc	True	0.0	439	0	9.0	9.0	0.0	1	left	2.0	0.0	1.0	0	-0.0486559026502	blockFiles/set_16/main_unc/leftBlue\GB_LB_4.xlsx
482	main_unc	True	0.0	439	0	9.0	9.0	1.0	0	right	2.0	1.0	1.0	0	-0.0195074333064	blockFiles/set_16/main_unc/leftBlue\GB_LB_4.xlsx
483	main_unc	True	0.0	439	0	9.0	9.0	1.0	1	right	2.0	0.0	0.0	1	0.0277519012243	blockFiles/set_16/main_unc/leftBlue\GB_LB_4.xlsx
484	main_unc	True	0.0	439	0	9.0	9.0	1.0	1	right	1.0	1.0	1.0	1	0.045361993312800004	blockFiles/set_16/main_unc/leftBlue\GB_LB_4.xlsx
485	main_unc	True	0.0	439	0	9.0	9.0	1.0	1	right	1.0	1.0	1.0	1	0.0151761000231	blockFiles/set_16/main_unc/leftBlue\GB_LB_4.xlsx
486	main_unc	True	0.0	439	0	9.0	9.0	0.0	1	left	2.0	1.0	1.0	0	-0.0310725765117	blockFiles/set_16/main_unc/leftBlue\GB_LB_4.xlsx
487	main_unc	True	0.0	439	0	9.0	9.0	1.0	1	right	2.0	0.0	0.0	1	0.04879844691599999	blockFiles/set_16/main_unc/leftBlue\GB_LB_4.xlsx
488	main_unc	True	0.0	439	0	9.0	9.0	0.0	1	left	1.0	0.0	0.0	0	-0.07154470287260001	blockFiles/set_16/main_unc/leftBlue\GB_LB_4.xlsx
489	main_unc	True	0.0	439	0	9.0	9.0	0.0	1	left	2.0	1.0	1.0	0	-0.005604649186129999	blockFiles/set_16/main_unc/leftBlue\GB_LB_4.xlsx
490	main_unc	True	0.0	439	0	9.0	9.0	0.0	1	left	2.0	0.0	1.0	0	-0.0506547681987	blockFiles/set_16/main_unc/leftBlue\GB_LB_4.xlsx
491	main_unc	True	0.0	439	0	9.0	9.0	1.0	0	right	1.0	0.0	0.0	0	-0.023726106882099997	blockFiles/set_16/main_unc/leftBlue\GB_LB_4.xlsx
492	main_unc	True	0.0	439	0	9.0	9.0	0.0	0	left	2.0	1.0	0.0	1	0.0164970648848	blockFiles/set_16/main_unc/leftBlue\GB_LB_4.xlsx
493	main_unc	True	0.0	439	0	9.0	9.0	1.0	1	right	1.0	1.0	1.0	1	0.020875151474	blockFiles/set_16/main_unc/leftBlue\GB_LB_4.xlsx
494	main_unc	True	0.0	439	0	9.0	9.0	0.0	0	left	2.0	0.0	0.0	1	0.021912274435200003	blockFiles/set_16/main_unc/leftBlue\GB_LB_4.xlsx
495	main_unc	True	0.0	439	0	9.0	9.0	1.0	1	right	1.0	1.0	1.0	1	0.07794746363539999	blockFiles/set_16/main_unc/leftBlue\GB_LB_4.xlsx
496	main_unc	True	0.0	439	0	9.0	9.0	0.0	1	left	2.0	1.0	1.0	0	-0.0626976913586	blockFiles/set_16/main_unc/leftBlue\GB_LB_4.xlsx
497	main_unc	True	0.0	439	0	9.0	9.0	0.0	1	left	2.0	1.0	1.0	0	-0.0451440468058	blockFiles/set_16/main_unc/leftBlue\GB_LB_4.xlsx
498	main_unc	True	0.0	439	0	9.0	9.0	0.0	1	left	2.0	0.0	1.0	0	-0.0602682156116	blockFiles/set_16/main_unc/leftBlue\GB_LB_4.xlsx
499	main_unc	True	0.0	439	0	9.0	9.0	1.0	1	right	1.0	1.0	1.0	1	0.021196928396799996	blockFiles/set_16/main_unc/leftBlue\GB_LB_4.xlsx
500	main_unc	True	0.0	439	0	9.0	9.0	1.0	1	right	1.0	1.0	1.0	1	0.0215016408823	blockFiles/set_16/main_unc/leftBlue\GB_LB_4.xlsx
501	main_unc	True	0.0	439	0	9.0	9.0	0.0	1	left	2.0	1.0	1.0	0	-0.046987930219599995	blockFiles/set_16/main_unc/leftBlue\GB_LB_4.xlsx
502	main_unc	True	0.0	439	0	9.0	9.0	1.0	1	right	1.0	1.0	1.0	1	0.0381148213521	blockFiles/set_16/main_unc/leftBlue\GB_LB_4.xlsx
503	main_unc	True	0.0	439	0	9.0	9.0	0.0	1	left	2.0	0.0	1.0	0	-0.0488376989774	blockFiles/set_16/main_unc/leftBlue\GB_LB_4.xlsx
504	main_unc	True	0.0	439	0	9.0	9.0	1.0	1	right	1.0	1.0	1.0	1	0.0111023854464	blockFiles/set_16/main_unc/leftBlue\GB_LB_4.xlsx
505	main_unc	True	0.0	439	0	10.0	10.0	1.0	1	right	1.0	0.0	0.0	1	0.0435648887604	blockFiles/set_16/main_unc/rightBlue\GB_RB_2.xlsx
506	main_unc	True	0.0	439	0	10.0	10.0	0.0	1	left	1.0	1.0	1.0	0	-0.0416603236273	blockFiles/set_16/main_unc/rightBlue\GB_RB_2.xlsx
507	main_unc	True	0.0	439	0	10.0	10.0	1.0	1	right	2.0	0.0	1.0	1	0.063728165552	blockFiles/set_16/main_unc/rightBlue\GB_RB_2.xlsx
508	main_unc	True	0.0	439	0	10.0	10.0	1.0	1	right	2.0	1.0	1.0	1	0.03871871091430001	blockFiles/set_16/main_unc/rightBlue\GB_RB_2.xlsx
509	main_unc	True	0.0	439	0	10.0	10.0	0.0	1	left	1.0	0.0	1.0	0	-0.059036993812800004	blockFiles/set_16/main_unc/rightBlue\GB_RB_2.xlsx
510	main_unc	True	0.0	439	0	10.0	10.0	1.0	1	right	1.0	0.0	0.0	1	0.024335448853700002	blockFiles/set_16/main_unc/rightBlue\GB_RB_2.xlsx
511	main_unc	True	0.0	439	0	10.0	10.0	1.0	1	right	2.0	1.0	1.0	1	0.0512343001552	blockFiles/set_16/main_unc/rightBlue\GB_RB_2.xlsx
512	main_unc	True	0.0	439	0	10.0	10.0	0.0	1	left	1.0	1.0	1.0	0	-0.0423974436149	blockFiles/set_16/main_unc/rightBlue\GB_RB_2.xlsx
513	main_unc	True	0.0	439	0	10.0	10.0	1.0	1	right	2.0	1.0	1.0	1	0.0027639223076399997	blockFiles/set_16/main_unc/rightBlue\GB_RB_2.xlsx
514	main_unc	True	0.0	439	0	10.0	10.0	1.0	1	right	2.0	1.0	1.0	1	0.050172497965400006	blockFiles/set_16/main_unc/rightBlue\GB_RB_2.xlsx
515	main_unc	True	0.0	439	0	10.0	10.0	0.0	0	left	1.0	1.0	0.0	1	0.013402925003299999	blockFiles/set_16/main_unc/rightBlue\GB_RB_2.xlsx
516	main_unc	True	0.0	439	0	10.0	10.0	0.0	1	left	1.0	1.0	1.0	0	-0.055016683545	blockFiles/set_16/main_unc/rightBlue\GB_RB_2.xlsx
517	main_unc	True	0.0	439	0	10.0	10.0	0.0	1	left	1.0	1.0	1.0	0	-0.0741882171296	blockFiles/set_16/main_unc/rightBlue\GB_RB_2.xlsx
518	main_unc	True	0.0	439	0	10.0	10.0	1.0	1	right	2.0	0.0	1.0	1	0.011949188634799999	blockFiles/set_16/main_unc/rightBlue\GB_RB_2.xlsx
519	main_unc	True	0.0	439	0	10.0	10.0	0.0	1	left	1.0	0.0	1.0	0	-0.0565199676715	blockFiles/set_16/main_unc/rightBlue\GB_RB_2.xlsx
520	main_unc	True	0.0	439	0	10.0	10.0	1.0	0	right	2.0	0.0	0.0	0	-0.00928556701168	blockFiles/set_16/main_unc/rightBlue\GB_RB_2.xlsx
521	main_unc	True	0.0	439	0	10.0	10.0	0.0	1	left	1.0	1.0	1.0	0	-0.0645836044662	blockFiles/set_16/main_unc/rightBlue\GB_RB_2.xlsx
522	main_unc	True	0.0	439	0	10.0	10.0	1.0	1	right	2.0	1.0	1.0	1	0.0574325383082	blockFiles/set_16/main_unc/rightBlue\GB_RB_2.xlsx
523	main_unc	True	0.0	439	0	10.0	10.0	0.0	1	left	1.0	1.0	1.0	0	-0.009917919002469999	blockFiles/set_16/main_unc/rightBlue\GB_RB_2.xlsx
524	main_unc	True	0.0	439	0	10.0	10.0	1.0	1	right	2.0	1.0	1.0	1	0.054812877979100005	blockFiles/set_16/main_unc/rightBlue\GB_RB_2.xlsx
525	main_unc	True	0.0	439	0	10.0	10.0	0.0	1	left	1.0	1.0	1.0	0	-0.04970987949519999	blockFiles/set_16/main_unc/rightBlue\GB_RB_2.xlsx
526	main_unc	True	1.0	439	0	10.0	10.0	0.0	1	left	n/a	0.0	n/a	0	-0.0297522365116	blockFiles/set_16/main_unc/rightBlue\GB_RB_2.xlsx
527	main_unc	True	0.0	439	0	10.0	10.0	0.0	0	left	1.0	0.0	0.0	1	0.00440788181499	blockFiles/set_16/main_unc/rightBlue\GB_RB_2.xlsx
528	main_unc	True	0.0	439	0	10.0	10.0	1.0	1	right	2.0	1.0	1.0	1	0.0676203798689	blockFiles/set_16/main_unc/rightBlue\GB_RB_2.xlsx
529	main_unc	True	0.0	439	0	10.0	10.0	0.0	1	left	1.0	0.0	1.0	0	-0.04696665182709999	blockFiles/set_16/main_unc/rightBlue\GB_RB_2.xlsx
530	main_unc	True	0.0	439	0	10.0	10.0	0.0	1	left	1.0	1.0	1.0	0	-0.0297522365116	blockFiles/set_16/main_unc/rightBlue\GB_RB_2.xlsx
531	main_unc	True	0.0	439	0	11.0	11.0	1.0	1	right	1.0	1.0	1.0	1	0.047081282623100004	blockFiles/set_16/main_unc/leftBlue\GB_LB_6.xlsx
532	main_unc	True	0.0	439	0	11.0	11.0	0.0	1	left	2.0	0.0	1.0	0	-0.011336594373	blockFiles/set_16/main_unc/leftBlue\GB_LB_6.xlsx
533	main_unc	True	0.0	439	0	11.0	11.0	1.0	1	right	1.0	1.0	1.0	1	0.029667278248799996	blockFiles/set_16/main_unc/leftBlue\GB_LB_6.xlsx
534	main_unc	True	0.0	439	0	11.0	11.0	1.0	1	right	1.0	1.0	1.0	1	0.0196918755583	blockFiles/set_16/main_unc/leftBlue\GB_LB_6.xlsx
535	main_unc	True	0.0	439	0	11.0	11.0	1.0	1	right	1.0	1.0	1.0	1	0.0561333137751	blockFiles/set_16/main_unc/leftBlue\GB_LB_6.xlsx
536	main_unc	True	0.0	439	0	11.0	11.0	1.0	1	right	1.0	1.0	1.0	1	0.0299116917141	blockFiles/set_16/main_unc/leftBlue\GB_LB_6.xlsx
537	main_unc	True	0.0	439	0	11.0	11.0	1.0	1	right	1.0	1.0	1.0	1	0.0362086184509	blockFiles/set_16/main_unc/leftBlue\GB_LB_6.xlsx
538	main_unc	True	0.0	439	0	11.0	11.0	1.0	1	right	1.0	1.0	1.0	1	0.0132443042099	blockFiles/set_16/main_unc/leftBlue\GB_LB_6.xlsx
539	main_unc	True	0.0	439	0	11.0	11.0	1.0	1	right	1.0	1.0	1.0	1	0.06056992642580001	blockFiles/set_16/main_unc/leftBlue\GB_LB_6.xlsx
540	main_unc	True	0.0	439	0	11.0	11.0	0.0	1	left	2.0	1.0	1.0	0	-0.019532853215900002	blockFiles/set_16/main_unc/leftBlue\GB_LB_6.xlsx
541	main_unc	True	0.0	439	0	11.0	11.0	1.0	1	right	1.0	1.0	1.0	1	0.0594263913855	blockFiles/set_16/main_unc/leftBlue\GB_LB_6.xlsx
542	main_unc	True	0.0	439	0	11.0	11.0	0.0	1	left	2.0	1.0	1.0	0	-0.07874707387760001	blockFiles/set_16/main_unc/leftBlue\GB_LB_6.xlsx
543	main_unc	True	0.0	439	0	11.0	11.0	0.0	1	left	2.0	1.0	1.0	0	-0.0373301011138	blockFiles/set_16/main_unc/leftBlue\GB_LB_6.xlsx
544	main_unc	True	0.0	439	0	11.0	11.0	1.0	1	right	1.0	1.0	1.0	1	0.0710056058504	blockFiles/set_16/main_unc/leftBlue\GB_LB_6.xlsx
545	main_unc	True	0.0	439	0	11.0	11.0	0.0	1	left	2.0	0.0	1.0	0	-0.0108699745499	blockFiles/set_16/main_unc/leftBlue\GB_LB_6.xlsx
546	main_unc	True	0.0	439	0	11.0	11.0	1.0	1	right	1.0	1.0	1.0	1	0.05811369167640001	blockFiles/set_16/main_unc/leftBlue\GB_LB_6.xlsx
547	main_unc	True	0.0	439	0	11.0	11.0	0.0	1	left	2.0	1.0	1.0	0	-0.0372255060263	blockFiles/set_16/main_unc/leftBlue\GB_LB_6.xlsx
548	main_unc	True	0.0	439	0	11.0	11.0	1.0	0	right	1.0	0.0	0.0	0	-0.0029923264496	blockFiles/set_16/main_unc/leftBlue\GB_LB_6.xlsx
549	main_unc	True	0.0	439	0	11.0	11.0	0.0	1	left	2.0	0.0	1.0	0	-0.055651158355199994	blockFiles/set_16/main_unc/leftBlue\GB_LB_6.xlsx
550	main_unc	True	0.0	439	0	11.0	11.0	0.0	1	left	2.0	1.0	1.0	0	-0.0360108348727	blockFiles/set_16/main_unc/leftBlue\GB_LB_6.xlsx
551	main_unc	True	0.0	439	0	11.0	11.0	0.0	1	left	2.0	1.0	1.0	0	-0.0730484907143	blockFiles/set_16/main_unc/leftBlue\GB_LB_6.xlsx
552	main_unc	True	0.0	439	0	11.0	11.0	1.0	0	right	1.0	1.0	0.0	0	-0.014044771716	blockFiles/set_16/main_unc/leftBlue\GB_LB_6.xlsx
553	main_unc	True	0.0	439	0	11.0	11.0	0.0	1	left	2.0	1.0	1.0	0	-0.06420461699369999	blockFiles/set_16/main_unc/leftBlue\GB_LB_6.xlsx
554	main_unc	True	0.0	439	0	11.0	11.0	0.0	1	left	1.0	0.0	0.0	0	-0.00430076181889	blockFiles/set_16/main_unc/leftBlue\GB_LB_6.xlsx
555	main_unc	True	0.0	439	0	11.0	11.0	1.0	1	right	1.0	1.0	1.0	1	0.0370440824516	blockFiles/set_16/main_unc/leftBlue\GB_LB_6.xlsx
