	trial_type	complete	missIndex	participant	id	blockNumber	b_t	d_t	decision1.corr	decision1.keys	a_t	r_t	decision2.corr	s_t	u_t	block_file
0	main_safe	True	0.0	311	0	0.0	0.0	0	1	left	2.0	1.0	0.0	0	-0.08	blockFiles/set_49/main_safe/rightBlue\GB_RB_2.xlsx
1	main_safe	True	0.0	311	0	0.0	0.0	0	1	left	2.0	0.0	0.0	0	-0.08	blockFiles/set_49/main_safe/rightBlue\GB_RB_2.xlsx
2	main_safe	True	0.0	311	0	0.0	0.0	1	1	right	1.0	0.0	0.0	1	0.08	blockFiles/set_49/main_safe/rightBlue\GB_RB_2.xlsx
3	main_safe	True	0.0	311	0	0.0	0.0	1	1	right	2.0	0.0	1.0	1	0.08	blockFiles/set_49/main_safe/rightBlue\GB_RB_2.xlsx
4	main_safe	True	0.0	311	0	0.0	0.0	1	1	right	1.0	0.0	0.0	1	0.08	blockFiles/set_49/main_safe/rightBlue\GB_RB_2.xlsx
5	main_safe	True	0.0	311	0	0.0	0.0	1	1	right	2.0	1.0	1.0	1	0.08	blockFiles/set_49/main_safe/rightBlue\GB_RB_2.xlsx
6	main_safe	True	0.0	311	0	0.0	0.0	0	1	left	1.0	1.0	1.0	0	-0.08	blockFiles/set_49/main_safe/rightBlue\GB_RB_2.xlsx
7	main_safe	True	0.0	311	0	0.0	0.0	1	1	right	2.0	1.0	1.0	1	0.08	blockFiles/set_49/main_safe/rightBlue\GB_RB_2.xlsx
8	main_safe	True	0.0	311	0	0.0	0.0	1	1	right	2.0	1.0	1.0	1	0.08	blockFiles/set_49/main_safe/rightBlue\GB_RB_2.xlsx
9	main_safe	True	0.0	311	0	0.0	0.0	0	1	left	1.0	1.0	1.0	0	-0.08	blockFiles/set_49/main_safe/rightBlue\GB_RB_2.xlsx
10	main_safe	True	0.0	311	0	0.0	0.0	0	1	left	1.0	1.0	1.0	0	-0.08	blockFiles/set_49/main_safe/rightBlue\GB_RB_2.xlsx
11	main_safe	True	0.0	311	0	0.0	0.0	0	1	left	1.0	1.0	1.0	0	-0.08	blockFiles/set_49/main_safe/rightBlue\GB_RB_2.xlsx
12	main_safe	True	0.0	311	0	0.0	0.0	0	1	left	1.0	1.0	1.0	0	-0.08	blockFiles/set_49/main_safe/rightBlue\GB_RB_2.xlsx
13	main_safe	True	0.0	311	0	0.0	0.0	0	1	left	1.0	0.0	1.0	0	-0.08	blockFiles/set_49/main_safe/rightBlue\GB_RB_2.xlsx
14	main_safe	True	0.0	311	0	0.0	0.0	0	1	left	1.0	1.0	1.0	0	-0.08	blockFiles/set_49/main_safe/rightBlue\GB_RB_2.xlsx
15	main_safe	True	0.0	311	0	0.0	0.0	1	1	right	2.0	1.0	1.0	1	0.08	blockFiles/set_49/main_safe/rightBlue\GB_RB_2.xlsx
16	main_safe	True	0.0	311	0	0.0	0.0	1	1	right	2.0	1.0	1.0	1	0.08	blockFiles/set_49/main_safe/rightBlue\GB_RB_2.xlsx
17	main_safe	True	0.0	311	0	0.0	0.0	0	1	left	1.0	1.0	1.0	0	-0.08	blockFiles/set_49/main_safe/rightBlue\GB_RB_2.xlsx
18	main_safe	True	0.0	311	0	0.0	0.0	1	1	right	2.0	1.0	1.0	1	0.08	blockFiles/set_49/main_safe/rightBlue\GB_RB_2.xlsx
19	main_safe	True	0.0	311	0	0.0	0.0	1	1	right	2.0	0.0	1.0	1	0.08	blockFiles/set_49/main_safe/rightBlue\GB_RB_2.xlsx
20	main_safe	True	0.0	311	0	0.0	0.0	1	1	right	2.0	0.0	1.0	1	0.08	blockFiles/set_49/main_safe/rightBlue\GB_RB_2.xlsx
21	main_safe	True	0.0	311	0	0.0	0.0	1	1	right	2.0	1.0	1.0	1	0.08	blockFiles/set_49/main_safe/rightBlue\GB_RB_2.xlsx
22	main_safe	True	0.0	311	0	0.0	0.0	0	1	left	1.0	1.0	1.0	0	-0.08	blockFiles/set_49/main_safe/rightBlue\GB_RB_2.xlsx
23	main_safe	True	0.0	311	0	0.0	0.0	0	1	left	1.0	1.0	1.0	0	-0.08	blockFiles/set_49/main_safe/rightBlue\GB_RB_2.xlsx
24	main_safe	True	0.0	311	0	0.0	0.0	1	1	right	2.0	0.0	1.0	1	0.08	blockFiles/set_49/main_safe/rightBlue\GB_RB_2.xlsx
25	main_safe	True	0.0	311	0	1.0	1.0	0	1	left	1.0	0.0	0.0	0	-0.08	blockFiles/set_49/main_safe/leftBlue\GB_LB_1.xlsx
26	main_safe	True	0.0	311	0	1.0	1.0	1	1	right	2.0	0.0	0.0	1	0.08	blockFiles/set_49/main_safe/leftBlue\GB_LB_1.xlsx
27	main_safe	True	0.0	311	0	1.0	1.0	0	1	left	2.0	1.0	1.0	0	-0.08	blockFiles/set_49/main_safe/leftBlue\GB_LB_1.xlsx
28	main_safe	True	0.0	311	0	1.0	1.0	0	1	left	2.0	1.0	1.0	0	-0.08	blockFiles/set_49/main_safe/leftBlue\GB_LB_1.xlsx
29	main_safe	True	0.0	311	0	1.0	1.0	1	1	right	1.0	1.0	1.0	1	0.08	blockFiles/set_49/main_safe/leftBlue\GB_LB_1.xlsx
30	main_safe	True	0.0	311	0	1.0	1.0	1	1	right	1.0	1.0	1.0	1	0.08	blockFiles/set_49/main_safe/leftBlue\GB_LB_1.xlsx
31	main_safe	True	0.0	311	0	1.0	1.0	1	1	right	1.0	0.0	1.0	1	0.08	blockFiles/set_49/main_safe/leftBlue\GB_LB_1.xlsx
32	main_safe	True	0.0	311	0	1.0	1.0	1	1	right	1.0	1.0	1.0	1	0.08	blockFiles/set_49/main_safe/leftBlue\GB_LB_1.xlsx
33	main_safe	True	0.0	311	0	1.0	1.0	0	1	left	2.0	0.0	1.0	0	-0.08	blockFiles/set_49/main_safe/leftBlue\GB_LB_1.xlsx
34	main_safe	True	0.0	311	0	1.0	1.0	0	1	left	2.0	0.0	1.0	0	-0.08	blockFiles/set_49/main_safe/leftBlue\GB_LB_1.xlsx
35	main_safe	True	0.0	311	0	1.0	1.0	1	1	right	1.0	1.0	1.0	1	0.08	blockFiles/set_49/main_safe/leftBlue\GB_LB_1.xlsx
36	main_safe	True	0.0	311	0	1.0	1.0	0	1	left	2.0	1.0	1.0	0	-0.08	blockFiles/set_49/main_safe/leftBlue\GB_LB_1.xlsx
37	main_safe	True	0.0	311	0	1.0	1.0	0	1	left	2.0	1.0	1.0	0	-0.08	blockFiles/set_49/main_safe/leftBlue\GB_LB_1.xlsx
38	main_safe	True	0.0	311	0	1.0	1.0	0	1	left	2.0	1.0	1.0	0	-0.08	blockFiles/set_49/main_safe/leftBlue\GB_LB_1.xlsx
39	main_safe	True	0.0	311	0	1.0	1.0	0	1	left	2.0	1.0	1.0	0	-0.08	blockFiles/set_49/main_safe/leftBlue\GB_LB_1.xlsx
40	main_safe	True	0.0	311	0	1.0	1.0	0	1	left	2.0	1.0	1.0	0	-0.08	blockFiles/set_49/main_safe/leftBlue\GB_LB_1.xlsx
41	main_safe	True	0.0	311	0	1.0	1.0	1	1	right	1.0	1.0	1.0	1	0.08	blockFiles/set_49/main_safe/leftBlue\GB_LB_1.xlsx
42	main_safe	True	0.0	311	0	1.0	1.0	0	1	left	2.0	0.0	1.0	0	-0.08	blockFiles/set_49/main_safe/leftBlue\GB_LB_1.xlsx
43	main_safe	True	0.0	311	0	1.0	1.0	1	1	right	1.0	1.0	1.0	1	0.08	blockFiles/set_49/main_safe/leftBlue\GB_LB_1.xlsx
44	main_safe	True	0.0	311	0	1.0	1.0	1	1	right	1.0	1.0	1.0	1	0.08	blockFiles/set_49/main_safe/leftBlue\GB_LB_1.xlsx
45	main_safe	True	0.0	311	0	1.0	1.0	1	1	right	1.0	1.0	1.0	1	0.08	blockFiles/set_49/main_safe/leftBlue\GB_LB_1.xlsx
46	main_safe	True	0.0	311	0	1.0	1.0	1	1	right	1.0	1.0	1.0	1	0.08	blockFiles/set_49/main_safe/leftBlue\GB_LB_1.xlsx
47	main_safe	True	0.0	311	0	1.0	1.0	1	1	right	1.0	0.0	1.0	1	0.08	blockFiles/set_49/main_safe/leftBlue\GB_LB_1.xlsx
48	main_safe	True	0.0	311	0	1.0	1.0	1	1	right	1.0	1.0	1.0	1	0.08	blockFiles/set_49/main_safe/leftBlue\GB_LB_1.xlsx
49	main_safe	True	0.0	311	0	1.0	1.0	1	1	right	1.0	0.0	1.0	1	0.08	blockFiles/set_49/main_safe/leftBlue\GB_LB_1.xlsx
50	main_safe	True	0.0	311	0	2.0	2.0	0	1	left	1.0	1.0	1.0	0	-0.08	blockFiles/set_49/main_safe/rightBlue\GB_RB_3.xlsx
51	main_safe	True	0.0	311	0	2.0	2.0	1	1	right	2.0	0.0	1.0	1	0.08	blockFiles/set_49/main_safe/rightBlue\GB_RB_3.xlsx
52	main_safe	True	0.0	311	0	2.0	2.0	1	1	right	2.0	1.0	1.0	1	0.08	blockFiles/set_49/main_safe/rightBlue\GB_RB_3.xlsx
53	main_safe	True	0.0	311	0	2.0	2.0	0	1	left	1.0	1.0	1.0	0	-0.08	blockFiles/set_49/main_safe/rightBlue\GB_RB_3.xlsx
54	main_safe	True	0.0	311	0	2.0	2.0	0	1	left	1.0	0.0	1.0	0	-0.08	blockFiles/set_49/main_safe/rightBlue\GB_RB_3.xlsx
55	main_safe	True	0.0	311	0	2.0	2.0	1	1	right	2.0	1.0	1.0	1	0.08	blockFiles/set_49/main_safe/rightBlue\GB_RB_3.xlsx
56	main_safe	True	0.0	311	0	2.0	2.0	1	1	right	2.0	1.0	1.0	1	0.08	blockFiles/set_49/main_safe/rightBlue\GB_RB_3.xlsx
57	main_safe	True	0.0	311	0	2.0	2.0	1	1	right	2.0	1.0	1.0	1	0.08	blockFiles/set_49/main_safe/rightBlue\GB_RB_3.xlsx
58	main_safe	True	0.0	311	0	2.0	2.0	0	1	left	1.0	1.0	1.0	0	-0.08	blockFiles/set_49/main_safe/rightBlue\GB_RB_3.xlsx
59	main_safe	True	0.0	311	0	2.0	2.0	1	1	right	2.0	0.0	1.0	1	0.08	blockFiles/set_49/main_safe/rightBlue\GB_RB_3.xlsx
60	main_safe	True	0.0	311	0	2.0	2.0	0	1	left	1.0	1.0	1.0	0	-0.08	blockFiles/set_49/main_safe/rightBlue\GB_RB_3.xlsx
61	main_safe	True	0.0	311	0	2.0	2.0	1	1	right	2.0	1.0	1.0	1	0.08	blockFiles/set_49/main_safe/rightBlue\GB_RB_3.xlsx
62	main_safe	True	0.0	311	0	2.0	2.0	0	1	left	1.0	1.0	1.0	0	-0.08	blockFiles/set_49/main_safe/rightBlue\GB_RB_3.xlsx
63	main_safe	True	0.0	311	0	2.0	2.0	0	1	left	1.0	1.0	1.0	0	-0.08	blockFiles/set_49/main_safe/rightBlue\GB_RB_3.xlsx
64	main_safe	True	0.0	311	0	2.0	2.0	1	1	right	2.0	1.0	1.0	1	0.08	blockFiles/set_49/main_safe/rightBlue\GB_RB_3.xlsx
65	main_safe	True	0.0	311	0	2.0	2.0	0	1	left	1.0	1.0	1.0	0	-0.08	blockFiles/set_49/main_safe/rightBlue\GB_RB_3.xlsx
66	main_safe	True	0.0	311	0	2.0	2.0	1	1	right	2.0	1.0	1.0	1	0.08	blockFiles/set_49/main_safe/rightBlue\GB_RB_3.xlsx
67	main_safe	True	0.0	311	0	2.0	2.0	0	1	left	1.0	1.0	1.0	0	-0.08	blockFiles/set_49/main_safe/rightBlue\GB_RB_3.xlsx
68	main_safe	True	0.0	311	0	2.0	2.0	0	1	left	1.0	1.0	1.0	0	-0.08	blockFiles/set_49/main_safe/rightBlue\GB_RB_3.xlsx
69	main_safe	True	0.0	311	0	2.0	2.0	1	1	right	2.0	0.0	1.0	1	0.08	blockFiles/set_49/main_safe/rightBlue\GB_RB_3.xlsx
70	main_safe	True	0.0	311	0	2.0	2.0	0	1	left	1.0	1.0	1.0	0	-0.08	blockFiles/set_49/main_safe/rightBlue\GB_RB_3.xlsx
71	main_safe	True	0.0	311	0	2.0	2.0	0	1	left	1.0	0.0	1.0	0	-0.08	blockFiles/set_49/main_safe/rightBlue\GB_RB_3.xlsx
72	main_safe	True	0.0	311	0	2.0	2.0	1	1	right	2.0	1.0	1.0	1	0.08	blockFiles/set_49/main_safe/rightBlue\GB_RB_3.xlsx
73	main_safe	True	0.0	311	0	2.0	2.0	1	1	right	2.0	1.0	1.0	1	0.08	blockFiles/set_49/main_safe/rightBlue\GB_RB_3.xlsx
74	main_safe	True	0.0	311	0	2.0	2.0	1	1	right	2.0	1.0	1.0	1	0.08	blockFiles/set_49/main_safe/rightBlue\GB_RB_3.xlsx
75	main_safe	True	0.0	311	0	3.0	3.0	1	1	right	1.0	1.0	0.0	1	0.08	blockFiles/set_49/main_safe/rightBlue\GB_RB_1.xlsx
76	main_safe	True	0.0	311	0	3.0	3.0	1	1	right	2.0	0.0	1.0	1	0.08	blockFiles/set_49/main_safe/rightBlue\GB_RB_1.xlsx
77	main_safe	True	0.0	311	0	3.0	3.0	0	1	left	2.0	0.0	0.0	0	-0.08	blockFiles/set_49/main_safe/rightBlue\GB_RB_1.xlsx
78	main_safe	True	0.0	311	0	3.0	3.0	1	1	right	1.0	0.0	0.0	1	0.08	blockFiles/set_49/main_safe/rightBlue\GB_RB_1.xlsx
79	main_safe	True	0.0	311	0	3.0	3.0	1	1	right	2.0	0.0	1.0	1	0.08	blockFiles/set_49/main_safe/rightBlue\GB_RB_1.xlsx
80	main_safe	True	0.0	311	0	3.0	3.0	0	1	left	1.0	1.0	1.0	0	-0.08	blockFiles/set_49/main_safe/rightBlue\GB_RB_1.xlsx
81	main_safe	True	0.0	311	0	3.0	3.0	0	1	left	1.0	1.0	1.0	0	-0.08	blockFiles/set_49/main_safe/rightBlue\GB_RB_1.xlsx
82	main_safe	True	0.0	311	0	3.0	3.0	0	1	left	1.0	0.0	1.0	0	-0.08	blockFiles/set_49/main_safe/rightBlue\GB_RB_1.xlsx
83	main_safe	True	0.0	311	0	3.0	3.0	0	1	left	1.0	1.0	1.0	0	-0.08	blockFiles/set_49/main_safe/rightBlue\GB_RB_1.xlsx
84	main_safe	True	0.0	311	0	3.0	3.0	1	1	right	2.0	1.0	1.0	1	0.08	blockFiles/set_49/main_safe/rightBlue\GB_RB_1.xlsx
85	main_safe	True	0.0	311	0	3.0	3.0	0	1	left	1.0	1.0	1.0	0	-0.08	blockFiles/set_49/main_safe/rightBlue\GB_RB_1.xlsx
86	main_safe	True	0.0	311	0	3.0	3.0	1	1	right	2.0	1.0	1.0	1	0.08	blockFiles/set_49/main_safe/rightBlue\GB_RB_1.xlsx
87	main_safe	True	0.0	311	0	3.0	3.0	1	1	right	2.0	1.0	1.0	1	0.08	blockFiles/set_49/main_safe/rightBlue\GB_RB_1.xlsx
88	main_safe	True	0.0	311	0	3.0	3.0	1	1	right	2.0	1.0	1.0	1	0.08	blockFiles/set_49/main_safe/rightBlue\GB_RB_1.xlsx
89	main_safe	True	0.0	311	0	3.0	3.0	1	1	right	2.0	1.0	1.0	1	0.08	blockFiles/set_49/main_safe/rightBlue\GB_RB_1.xlsx
90	main_safe	True	0.0	311	0	3.0	3.0	1	1	right	2.0	1.0	1.0	1	0.08	blockFiles/set_49/main_safe/rightBlue\GB_RB_1.xlsx
91	main_safe	True	0.0	311	0	3.0	3.0	1	1	right	2.0	1.0	1.0	1	0.08	blockFiles/set_49/main_safe/rightBlue\GB_RB_1.xlsx
92	main_safe	True	0.0	311	0	3.0	3.0	0	1	left	1.0	1.0	1.0	0	-0.08	blockFiles/set_49/main_safe/rightBlue\GB_RB_1.xlsx
93	main_safe	True	0.0	311	0	3.0	3.0	0	1	left	1.0	1.0	1.0	0	-0.08	blockFiles/set_49/main_safe/rightBlue\GB_RB_1.xlsx
94	main_safe	True	0.0	311	0	3.0	3.0	0	1	left	1.0	1.0	1.0	0	-0.08	blockFiles/set_49/main_safe/rightBlue\GB_RB_1.xlsx
95	main_safe	True	0.0	311	0	3.0	3.0	0	1	left	1.0	0.0	1.0	0	-0.08	blockFiles/set_49/main_safe/rightBlue\GB_RB_1.xlsx
96	main_safe	True	0.0	311	0	3.0	3.0	0	1	left	1.0	1.0	1.0	0	-0.08	blockFiles/set_49/main_safe/rightBlue\GB_RB_1.xlsx
97	main_safe	True	0.0	311	0	3.0	3.0	1	1	right	2.0	1.0	1.0	1	0.08	blockFiles/set_49/main_safe/rightBlue\GB_RB_1.xlsx
98	main_safe	True	0.0	311	0	3.0	3.0	0	1	left	1.0	1.0	1.0	0	-0.08	blockFiles/set_49/main_safe/rightBlue\GB_RB_1.xlsx
99	main_safe	True	0.0	311	0	3.0	3.0	1	1	right	2.0	1.0	1.0	1	0.08	blockFiles/set_49/main_safe/rightBlue\GB_RB_1.xlsx
100	main_safe	True	0.0	311	0	4.0	4.0	0	1	left	1.0	0.0	0.0	0	-0.08	blockFiles/set_49/main_safe/leftBlue\GB_LB_3.xlsx
101	main_safe	True	0.0	311	0	4.0	4.0	0	1	left	2.0	1.0	1.0	0	-0.08	blockFiles/set_49/main_safe/leftBlue\GB_LB_3.xlsx
102	main_safe	True	0.0	311	0	4.0	4.0	0	1	left	2.0	1.0	1.0	0	-0.08	blockFiles/set_49/main_safe/leftBlue\GB_LB_3.xlsx
103	main_safe	True	0.0	311	0	4.0	4.0	0	1	left	2.0	0.0	1.0	0	-0.08	blockFiles/set_49/main_safe/leftBlue\GB_LB_3.xlsx
104	main_safe	True	0.0	311	0	4.0	4.0	0	1	left	2.0	1.0	1.0	0	-0.08	blockFiles/set_49/main_safe/leftBlue\GB_LB_3.xlsx
105	main_safe	True	0.0	311	0	4.0	4.0	1	1	right	1.0	0.0	1.0	1	0.08	blockFiles/set_49/main_safe/leftBlue\GB_LB_3.xlsx
106	main_safe	True	0.0	311	0	4.0	4.0	0	1	left	2.0	1.0	1.0	0	-0.08	blockFiles/set_49/main_safe/leftBlue\GB_LB_3.xlsx
107	main_safe	True	0.0	311	0	4.0	4.0	1	1	right	1.0	1.0	1.0	1	0.08	blockFiles/set_49/main_safe/leftBlue\GB_LB_3.xlsx
108	main_safe	True	0.0	311	0	4.0	4.0	1	1	right	1.0	1.0	1.0	1	0.08	blockFiles/set_49/main_safe/leftBlue\GB_LB_3.xlsx
109	main_safe	True	0.0	311	0	4.0	4.0	0	1	left	2.0	1.0	1.0	0	-0.08	blockFiles/set_49/main_safe/leftBlue\GB_LB_3.xlsx
110	main_safe	True	0.0	311	0	4.0	4.0	1	1	right	1.0	1.0	1.0	1	0.08	blockFiles/set_49/main_safe/leftBlue\GB_LB_3.xlsx
111	main_safe	True	0.0	311	0	4.0	4.0	0	1	left	2.0	1.0	1.0	0	-0.08	blockFiles/set_49/main_safe/leftBlue\GB_LB_3.xlsx
112	main_safe	True	0.0	311	0	4.0	4.0	0	1	left	2.0	1.0	1.0	0	-0.08	blockFiles/set_49/main_safe/leftBlue\GB_LB_3.xlsx
113	main_safe	True	0.0	311	0	4.0	4.0	1	1	right	1.0	1.0	1.0	1	0.08	blockFiles/set_49/main_safe/leftBlue\GB_LB_3.xlsx
114	main_safe	True	0.0	311	0	4.0	4.0	1	1	right	1.0	1.0	1.0	1	0.08	blockFiles/set_49/main_safe/leftBlue\GB_LB_3.xlsx
115	main_safe	True	0.0	311	0	4.0	4.0	1	1	right	1.0	1.0	1.0	1	0.08	blockFiles/set_49/main_safe/leftBlue\GB_LB_3.xlsx
116	main_safe	True	0.0	311	0	4.0	4.0	1	1	right	1.0	1.0	1.0	1	0.08	blockFiles/set_49/main_safe/leftBlue\GB_LB_3.xlsx
117	main_safe	True	0.0	311	0	4.0	4.0	1	1	right	1.0	1.0	1.0	1	0.08	blockFiles/set_49/main_safe/leftBlue\GB_LB_3.xlsx
118	main_safe	True	0.0	311	0	4.0	4.0	1	1	right	1.0	0.0	1.0	1	0.08	blockFiles/set_49/main_safe/leftBlue\GB_LB_3.xlsx
119	main_safe	True	0.0	311	0	4.0	4.0	0	1	left	2.0	0.0	1.0	0	-0.08	blockFiles/set_49/main_safe/leftBlue\GB_LB_3.xlsx
120	main_safe	True	0.0	311	0	4.0	4.0	1	1	right	1.0	1.0	1.0	1	0.08	blockFiles/set_49/main_safe/leftBlue\GB_LB_3.xlsx
121	main_safe	True	0.0	311	0	4.0	4.0	0	1	left	2.0	1.0	1.0	0	-0.08	blockFiles/set_49/main_safe/leftBlue\GB_LB_3.xlsx
122	main_safe	True	0.0	311	0	4.0	4.0	0	1	left	2.0	1.0	1.0	0	-0.08	blockFiles/set_49/main_safe/leftBlue\GB_LB_3.xlsx
123	main_safe	True	0.0	311	0	4.0	4.0	0	1	left	2.0	0.0	1.0	0	-0.08	blockFiles/set_49/main_safe/leftBlue\GB_LB_3.xlsx
124	main_safe	True	0.0	311	0	4.0	4.0	1	1	right	1.0	1.0	1.0	1	0.08	blockFiles/set_49/main_safe/leftBlue\GB_LB_3.xlsx
125	main_safe	True	0.0	311	0	5.0	5.0	1	1	right	1.0	1.0	1.0	1	0.08	blockFiles/set_49/main_safe/leftBlue\GB_LB_2.xlsx
126	main_safe	True	0.0	311	0	5.0	5.0	1	1	right	1.0	1.0	1.0	1	0.08	blockFiles/set_49/main_safe/leftBlue\GB_LB_2.xlsx
127	main_safe	True	1.0	311	0	5.0	5.0	0	1	left	n/a	0.0	n/a	0	-0.08	blockFiles/set_49/main_safe/leftBlue\GB_LB_2.xlsx
128	main_safe	True	0.0	311	0	5.0	5.0	1	1	right	1.0	1.0	1.0	1	0.08	blockFiles/set_49/main_safe/leftBlue\GB_LB_2.xlsx
129	main_safe	True	0.0	311	0	5.0	5.0	1	1	right	2.0	0.0	0.0	1	0.08	blockFiles/set_49/main_safe/leftBlue\GB_LB_2.xlsx
130	main_safe	True	0.0	311	0	5.0	5.0	0	1	left	2.0	1.0	1.0	0	-0.08	blockFiles/set_49/main_safe/leftBlue\GB_LB_2.xlsx
131	main_safe	True	0.0	311	0	5.0	5.0	0	1	left	2.0	1.0	1.0	0	-0.08	blockFiles/set_49/main_safe/leftBlue\GB_LB_2.xlsx
132	main_safe	True	0.0	311	0	5.0	5.0	0	1	left	2.0	1.0	1.0	0	-0.08	blockFiles/set_49/main_safe/leftBlue\GB_LB_2.xlsx
133	main_safe	True	0.0	311	0	5.0	5.0	0	1	left	2.0	0.0	1.0	0	-0.08	blockFiles/set_49/main_safe/leftBlue\GB_LB_2.xlsx
134	main_safe	True	0.0	311	0	5.0	5.0	1	1	right	1.0	1.0	1.0	1	0.08	blockFiles/set_49/main_safe/leftBlue\GB_LB_2.xlsx
135	main_safe	True	0.0	311	0	5.0	5.0	0	1	left	2.0	1.0	1.0	0	-0.08	blockFiles/set_49/main_safe/leftBlue\GB_LB_2.xlsx
136	main_safe	True	0.0	311	0	5.0	5.0	1	1	right	1.0	0.0	1.0	1	0.08	blockFiles/set_49/main_safe/leftBlue\GB_LB_2.xlsx
137	main_safe	True	0.0	311	0	5.0	5.0	1	1	right	1.0	0.0	1.0	1	0.08	blockFiles/set_49/main_safe/leftBlue\GB_LB_2.xlsx
138	main_safe	True	0.0	311	0	5.0	5.0	0	1	left	2.0	1.0	1.0	0	-0.08	blockFiles/set_49/main_safe/leftBlue\GB_LB_2.xlsx
139	main_safe	True	0.0	311	0	5.0	5.0	1	1	right	1.0	1.0	1.0	1	0.08	blockFiles/set_49/main_safe/leftBlue\GB_LB_2.xlsx
140	main_safe	True	0.0	311	0	5.0	5.0	0	1	left	2.0	1.0	1.0	0	-0.08	blockFiles/set_49/main_safe/leftBlue\GB_LB_2.xlsx
141	main_safe	True	0.0	311	0	5.0	5.0	1	1	right	1.0	1.0	1.0	1	0.08	blockFiles/set_49/main_safe/leftBlue\GB_LB_2.xlsx
142	main_safe	True	0.0	311	0	5.0	5.0	0	1	left	2.0	1.0	1.0	0	-0.08	blockFiles/set_49/main_safe/leftBlue\GB_LB_2.xlsx
143	main_safe	True	0.0	311	0	5.0	5.0	1	1	right	1.0	1.0	1.0	1	0.08	blockFiles/set_49/main_safe/leftBlue\GB_LB_2.xlsx
144	main_safe	True	0.0	311	0	5.0	5.0	0	1	left	2.0	1.0	1.0	0	-0.08	blockFiles/set_49/main_safe/leftBlue\GB_LB_2.xlsx
145	main_safe	True	0.0	311	0	5.0	5.0	1	1	right	1.0	1.0	1.0	1	0.08	blockFiles/set_49/main_safe/leftBlue\GB_LB_2.xlsx
146	main_safe	True	0.0	311	0	5.0	5.0	0	1	left	2.0	1.0	1.0	0	-0.08	blockFiles/set_49/main_safe/leftBlue\GB_LB_2.xlsx
147	main_safe	True	0.0	311	0	5.0	5.0	1	1	right	1.0	1.0	1.0	1	0.08	blockFiles/set_49/main_safe/leftBlue\GB_LB_2.xlsx
148	main_safe	True	0.0	311	0	5.0	5.0	0	1	left	2.0	0.0	1.0	0	-0.08	blockFiles/set_49/main_safe/leftBlue\GB_LB_2.xlsx
149	main_safe	True	0.0	311	0	5.0	5.0	0	1	left	2.0	1.0	1.0	0	-0.08	blockFiles/set_49/main_safe/leftBlue\GB_LB_2.xlsx
150	main_safe	True	0.0	311	0	5.0	5.0	0	1	left	2.0	0.0	1.0	0	-0.08	blockFiles/set_49/main_safe/leftBlue\GB_LB_2.xlsx
151	patches	True	n/a	311	0	n/a	n/a	1	1	right	n/a	n/a	n/a	1	0.0624195059016	blockFiles/set_49/main_PD/GB_runPatches1.xlsx
152	patches	True	n/a	311	0	n/a	n/a	1	1	right	n/a	n/a	n/a	1	0.00783062925562	blockFiles/set_49/main_PD/GB_runPatches1.xlsx
153	patches	True	n/a	311	0	n/a	n/a	1	1	right	n/a	n/a	n/a	1	0.00936090603471	blockFiles/set_49/main_PD/GB_runPatches1.xlsx
154	patches	True	n/a	311	0	n/a	n/a	0	1	left	n/a	n/a	n/a	0	-0.0271714006178	blockFiles/set_49/main_PD/GB_runPatches1.xlsx
155	patches	True	n/a	311	0	n/a	n/a	0	0	left	n/a	n/a	n/a	1	0.00840626658872	blockFiles/set_49/main_PD/GB_runPatches1.xlsx
156	patches	True	n/a	311	0	n/a	n/a	0	1	left	n/a	n/a	n/a	0	-0.0644156181999	blockFiles/set_49/main_PD/GB_runPatches1.xlsx
157	patches	True	n/a	311	0	n/a	n/a	0	0	left	n/a	n/a	n/a	1	0.0721502544172	blockFiles/set_49/main_PD/GB_runPatches1.xlsx
158	patches	True	n/a	311	0	n/a	n/a	0	1	left	n/a	n/a	n/a	0	-0.016733670197399998	blockFiles/set_49/main_PD/GB_runPatches1.xlsx
159	patches	True	n/a	311	0	n/a	n/a	1	1	right	n/a	n/a	n/a	1	0.07319067198780001	blockFiles/set_49/main_PD/GB_runPatches1.xlsx
160	patches	True	n/a	311	0	n/a	n/a	0	1	left	n/a	n/a	n/a	0	-0.013140533343	blockFiles/set_49/main_PD/GB_runPatches1.xlsx
161	patches	True	n/a	311	0	n/a	n/a	1	1	right	n/a	n/a	n/a	1	0.0422645980492	blockFiles/set_49/main_PD/GB_runPatches1.xlsx
162	patches	True	n/a	311	0	n/a	n/a	0	1	left	n/a	n/a	n/a	0	-0.0110512210988	blockFiles/set_49/main_PD/GB_runPatches1.xlsx
163	patches	True	n/a	311	0	n/a	n/a	0	1	left	n/a	n/a	n/a	0	-0.05034804450349999	blockFiles/set_49/main_PD/GB_runPatches1.xlsx
164	patches	True	n/a	311	0	n/a	n/a	0	0	left	n/a	n/a	n/a	1	0.0059091714769600005	blockFiles/set_49/main_PD/GB_runPatches1.xlsx
165	patches	True	n/a	311	0	n/a	n/a	0	0	left	n/a	n/a	n/a	1	0.0642463378794	blockFiles/set_49/main_PD/GB_runPatches1.xlsx
166	patches	True	n/a	311	0	n/a	n/a	0	1	left	n/a	n/a	n/a	0	-0.0630723995157	blockFiles/set_49/main_PD/GB_runPatches1.xlsx
167	patches	True	n/a	311	0	n/a	n/a	0	1	left	n/a	n/a	n/a	0	-0.0400316001847	blockFiles/set_49/main_PD/GB_runPatches1.xlsx
168	patches	True	n/a	311	0	n/a	n/a	0	1	left	n/a	n/a	n/a	0	-0.0421923527867	blockFiles/set_49/main_PD/GB_runPatches1.xlsx
169	patches	True	n/a	311	0	n/a	n/a	1	0	right	n/a	n/a	n/a	0	-0.0014106942713299998	blockFiles/set_49/main_PD/GB_runPatches1.xlsx
170	patches	True	n/a	311	0	n/a	n/a	0	1	left	n/a	n/a	n/a	0	-0.076188537851	blockFiles/set_49/main_PD/GB_runPatches1.xlsx
171	patches	True	n/a	311	0	n/a	n/a	0	1	left	n/a	n/a	n/a	0	-0.0254305783287	blockFiles/set_49/main_PD/GB_runPatches1.xlsx
172	patches	True	n/a	311	0	n/a	n/a	1	1	right	n/a	n/a	n/a	1	0.0765044990554	blockFiles/set_49/main_PD/GB_runPatches1.xlsx
173	patches	True	n/a	311	0	n/a	n/a	0	0	left	n/a	n/a	n/a	1	0.0335494684242	blockFiles/set_49/main_PD/GB_runPatches1.xlsx
174	patches	True	n/a	311	0	n/a	n/a	1	1	right	n/a	n/a	n/a	1	0.0220815318823	blockFiles/set_49/main_PD/GB_runPatches1.xlsx
175	patches	True	n/a	311	0	n/a	n/a	0	0	left	n/a	n/a	n/a	1	0.0389154052734	blockFiles/set_49/main_PD/GB_runPatches1.xlsx
176	patches	True	n/a	311	0	n/a	n/a	0	1	left	n/a	n/a	n/a	0	-0.06818373233080001	blockFiles/set_49/main_PD/GB_runPatches1.xlsx
177	patches	True	n/a	311	0	n/a	n/a	0	1	left	n/a	n/a	n/a	0	-0.0339050598256	blockFiles/set_49/main_PD/GB_runPatches1.xlsx
178	patches	True	n/a	311	0	n/a	n/a	0	1	left	n/a	n/a	n/a	0	-0.011092433519700002	blockFiles/set_49/main_PD/GB_runPatches1.xlsx
179	patches	True	n/a	311	0	n/a	n/a	0	0	left	n/a	n/a	n/a	1	0.029706070330000004	blockFiles/set_49/main_PD/GB_runPatches1.xlsx
180	patches	True	n/a	311	0	n/a	n/a	1	1	right	n/a	n/a	n/a	1	0.0404012022354	blockFiles/set_49/main_PD/GB_runPatches1.xlsx
181	patches	True	n/a	311	0	n/a	n/a	0	1	left	n/a	n/a	n/a	0	-0.07306894088160001	blockFiles/set_49/main_PD/GB_runPatches1.xlsx
182	patches	True	n/a	311	0	n/a	n/a	0	0	left	n/a	n/a	n/a	1	0.0311989486963	blockFiles/set_49/main_PD/GB_runPatches1.xlsx
183	patches	True	n/a	311	0	n/a	n/a	0	1	left	n/a	n/a	n/a	0	-0.0007621862180529999	blockFiles/set_49/main_PD/GB_runPatches1.xlsx
184	patches	True	n/a	311	0	n/a	n/a	1	1	right	n/a	n/a	n/a	1	0.07319572774689999	blockFiles/set_49/main_PD/GB_runPatches1.xlsx
185	patches	True	n/a	311	0	n/a	n/a	1	1	right	n/a	n/a	n/a	1	0.0663061393239	blockFiles/set_49/main_PD/GB_runPatches1.xlsx
186	patches	True	n/a	311	0	n/a	n/a	0	1	left	n/a	n/a	n/a	0	-0.0110223816894	blockFiles/set_49/main_PD/GB_runPatches1.xlsx
187	patches	True	n/a	311	0	n/a	n/a	0	1	left	n/a	n/a	n/a	0	-0.0596295969374	blockFiles/set_49/main_PD/GB_runPatches1.xlsx
188	patches	True	n/a	311	0	n/a	n/a	0	1	left	n/a	n/a	n/a	0	-0.052928275018899996	blockFiles/set_49/main_PD/GB_runPatches1.xlsx
189	patches	True	n/a	311	0	n/a	n/a	0	1	left	n/a	n/a	n/a	0	-0.0660406800359	blockFiles/set_49/main_PD/GB_runPatches1.xlsx
190	patches	True	n/a	311	0	n/a	n/a	0	1	left	n/a	n/a	n/a	0	-0.0393758419901	blockFiles/set_49/main_PD/GB_runPatches1.xlsx
191	patches	True	n/a	311	0	n/a	n/a	1	1	right	n/a	n/a	n/a	1	0.021673961877799998	blockFiles/set_49/main_PD/GB_runPatches1.xlsx
192	patches	True	n/a	311	0	n/a	n/a	0	1	left	n/a	n/a	n/a	0	-0.0784712748788	blockFiles/set_49/main_PD/GB_runPatches1.xlsx
193	patches	True	n/a	311	0	n/a	n/a	1	1	right	n/a	n/a	n/a	1	0.031675562467400005	blockFiles/set_49/main_PD/GB_runPatches1.xlsx
194	patches	True	n/a	311	0	n/a	n/a	1	1	right	n/a	n/a	n/a	1	0.035629061497699996	blockFiles/set_49/main_PD/GB_runPatches1.xlsx
195	patches	True	n/a	311	0	n/a	n/a	1	1	right	n/a	n/a	n/a	1	0.0305384452641	blockFiles/set_49/main_PD/GB_runPatches1.xlsx
196	patches	True	n/a	311	0	n/a	n/a	1	1	right	n/a	n/a	n/a	1	0.0342356064543	blockFiles/set_49/main_PD/GB_runPatches1.xlsx
197	patches	True	n/a	311	0	n/a	n/a	1	1	right	n/a	n/a	n/a	1	0.0149735070765	blockFiles/set_49/main_PD/GB_runPatches1.xlsx
198	patches	True	n/a	311	0	n/a	n/a	1	0	right	n/a	n/a	n/a	0	-0.033913707993900005	blockFiles/set_49/main_PD/GB_runPatches1.xlsx
199	patches	True	n/a	311	0	n/a	n/a	0	1	left	n/a	n/a	n/a	0	-0.0572604362667	blockFiles/set_49/main_PD/GB_runPatches1.xlsx
200	patches	True	n/a	311	0	n/a	n/a	0	1	left	n/a	n/a	n/a	0	-0.0564399752393	blockFiles/set_49/main_PD/GB_runPatches1.xlsx
201	patches	True	n/a	311	0	n/a	n/a	0	1	left	n/a	n/a	n/a	0	-0.0419845762476	blockFiles/set_49/main_PD/GB_runPatches1.xlsx
202	patches	True	n/a	311	0	n/a	n/a	0	0	left	n/a	n/a	n/a	1	0.007349190674720001	blockFiles/set_49/main_PD/GB_runPatches1.xlsx
203	patches	True	n/a	311	0	n/a	n/a	1	1	right	n/a	n/a	n/a	1	0.020883218776400002	blockFiles/set_49/main_PD/GB_runPatches1.xlsx
204	patches	True	n/a	311	0	n/a	n/a	0	1	left	n/a	n/a	n/a	0	-0.0408118142374	blockFiles/set_49/main_PD/GB_runPatches1.xlsx
205	patches	True	n/a	311	0	n/a	n/a	0	1	left	n/a	n/a	n/a	0	-0.0740605504066	blockFiles/set_49/main_PD/GB_runPatches1.xlsx
206	patches	True	n/a	311	0	n/a	n/a	0	1	left	n/a	n/a	n/a	0	-0.0085808342509	blockFiles/set_49/main_PD/GB_runPatches1.xlsx
207	patches	True	n/a	311	0	n/a	n/a	0	0	left	n/a	n/a	n/a	1	0.0230446671508	blockFiles/set_49/main_PD/GB_runPatches1.xlsx
208	patches	True	n/a	311	0	n/a	n/a	0	1	left	n/a	n/a	n/a	0	-0.0689893524721	blockFiles/set_49/main_PD/GB_runPatches1.xlsx
209	patches	True	n/a	311	0	n/a	n/a	0	1	left	n/a	n/a	n/a	0	-0.0209266887791	blockFiles/set_49/main_PD/GB_runPatches1.xlsx
210	patches	True	n/a	311	0	n/a	n/a	1	1	right	n/a	n/a	n/a	1	0.0695287392475	blockFiles/set_49/main_PD/GB_runPatches1.xlsx
211	patches	True	n/a	311	0	n/a	n/a	1	1	right	n/a	n/a	n/a	1	0.00783641427755	blockFiles/set_49/main_PD/GB_runPatches1.xlsx
212	patches	True	n/a	311	0	n/a	n/a	1	1	right	n/a	n/a	n/a	1	0.069390445929	blockFiles/set_49/main_PD/GB_runPatches1.xlsx
213	patches	True	n/a	311	0	n/a	n/a	0	1	left	n/a	n/a	n/a	0	-0.027944915071099998	blockFiles/set_49/main_PD/GB_runPatches1.xlsx
214	patches	True	n/a	311	0	n/a	n/a	1	1	right	n/a	n/a	n/a	1	0.051337694656100004	blockFiles/set_49/main_PD/GB_runPatches1.xlsx
215	patches	True	n/a	311	0	n/a	n/a	0	1	left	n/a	n/a	n/a	0	-0.00174566591159	blockFiles/set_49/main_PD/GB_runPatches1.xlsx
216	patches	True	n/a	311	0	n/a	n/a	0	1	left	n/a	n/a	n/a	0	-0.0676506054401	blockFiles/set_49/main_PD/GB_runPatches1.xlsx
217	patches	True	n/a	311	0	n/a	n/a	0	1	left	n/a	n/a	n/a	0	-0.00829884134233	blockFiles/set_49/main_PD/GB_runPatches1.xlsx
218	patches	True	n/a	311	0	n/a	n/a	1	1	right	n/a	n/a	n/a	1	0.034365741387	blockFiles/set_49/main_PD/GB_runPatches1.xlsx
219	patches	True	n/a	311	0	n/a	n/a	0	1	left	n/a	n/a	n/a	0	-0.05253309659659999	blockFiles/set_49/main_PD/GB_runPatches1.xlsx
220	patches	True	n/a	311	0	n/a	n/a	1	1	right	n/a	n/a	n/a	1	0.0302601153962	blockFiles/set_49/main_PD/GB_runPatches1.xlsx
221	patches	True	n/a	311	0	n/a	n/a	0	1	left	n/a	n/a	n/a	0	-0.0316028104909	blockFiles/set_49/main_PD/GB_runPatches1.xlsx
222	patches	True	n/a	311	0	n/a	n/a	0	1	left	n/a	n/a	n/a	0	-0.0311474506557	blockFiles/set_49/main_PD/GB_runPatches1.xlsx
223	patches	True	n/a	311	0	n/a	n/a	1	1	right	n/a	n/a	n/a	1	0.0505601337738	blockFiles/set_49/main_PD/GB_runPatches1.xlsx
224	patches	True	n/a	311	0	n/a	n/a	0	0	left	n/a	n/a	n/a	1	0.00643992858008	blockFiles/set_49/main_PD/GB_runPatches1.xlsx
225	patches	True	n/a	311	0	n/a	n/a	0	1	left	n/a	n/a	n/a	0	-0.07701466759669999	blockFiles/set_49/main_PD/GB_runPatches1.xlsx
226	patches	True	n/a	311	0	n/a	n/a	1	1	right	n/a	n/a	n/a	1	0.009758710209280002	blockFiles/set_49/main_PD/GB_runPatches1.xlsx
227	patches	True	n/a	311	0	n/a	n/a	0	1	left	n/a	n/a	n/a	0	-0.0623406061716	blockFiles/set_49/main_PD/GB_runPatches1.xlsx
228	patches	True	n/a	311	0	n/a	n/a	1	1	right	n/a	n/a	n/a	1	0.0525164907053	blockFiles/set_49/main_PD/GB_runPatches1.xlsx
229	patches	True	n/a	311	0	n/a	n/a	0	1	left	n/a	n/a	n/a	0	-0.0440982658789	blockFiles/set_49/main_PD/GB_runPatches1.xlsx
230	patches	True	n/a	311	0	n/a	n/a	0	1	left	n/a	n/a	n/a	0	-0.0202739454433	blockFiles/set_49/main_PD/GB_runPatches1.xlsx
231	patches	True	n/a	311	0	n/a	n/a	1	1	right	n/a	n/a	n/a	1	0.0798210253753	blockFiles/set_49/main_PD/GB_runPatches1.xlsx
232	patches	True	n/a	311	0	n/a	n/a	0	1	left	n/a	n/a	n/a	0	-0.0536856817827	blockFiles/set_49/main_PD/GB_runPatches1.xlsx
233	patches	True	n/a	311	0	n/a	n/a	1	1	right	n/a	n/a	n/a	1	0.00851848900318	blockFiles/set_49/main_PD/GB_runPatches1.xlsx
234	patches	True	n/a	311	0	n/a	n/a	0	1	left	n/a	n/a	n/a	0	-0.0332419267856	blockFiles/set_49/main_PD/GB_runPatches1.xlsx
235	patches	True	n/a	311	0	n/a	n/a	0	1	left	n/a	n/a	n/a	0	-0.0415295912325	blockFiles/set_49/main_PD/GB_runPatches1.xlsx
236	patches	True	n/a	311	0	n/a	n/a	1	1	right	n/a	n/a	n/a	1	0.0238122114725	blockFiles/set_49/main_PD/GB_runPatches1.xlsx
237	patches	True	n/a	311	0	n/a	n/a	1	1	right	n/a	n/a	n/a	1	0.048971952870500005	blockFiles/set_49/main_PD/GB_runPatches1.xlsx
238	patches	True	n/a	311	0	n/a	n/a	1	1	right	n/a	n/a	n/a	1	0.0332490542717	blockFiles/set_49/main_PD/GB_runPatches1.xlsx
239	patches	True	n/a	311	0	n/a	n/a	1	1	right	n/a	n/a	n/a	1	0.0776794797741	blockFiles/set_49/main_PD/GB_runPatches1.xlsx
240	patches	True	n/a	311	0	n/a	n/a	0	0	left	n/a	n/a	n/a	1	0.06945961827410001	blockFiles/set_49/main_PD/GB_runPatches1.xlsx
241	patches	True	n/a	311	0	n/a	n/a	1	1	right	n/a	n/a	n/a	1	0.0223916241899	blockFiles/set_49/main_PD/GB_runPatches1.xlsx
242	patches	True	n/a	311	0	n/a	n/a	0	1	left	n/a	n/a	n/a	0	-0.0377522662282	blockFiles/set_49/main_PD/GB_runPatches1.xlsx
243	patches	True	n/a	311	0	n/a	n/a	1	1	right	n/a	n/a	n/a	1	0.050629309639300006	blockFiles/set_49/main_PD/GB_runPatches1.xlsx
244	patches	True	n/a	311	0	n/a	n/a	0	1	left	n/a	n/a	n/a	0	-0.013547059278899999	blockFiles/set_49/main_PD/GB_runPatches1.xlsx
245	patches	True	n/a	311	0	n/a	n/a	0	0	left	n/a	n/a	n/a	1	0.0018356730043900002	blockFiles/set_49/main_PD/GB_runPatches1.xlsx
246	patches	True	n/a	311	0	n/a	n/a	1	1	right	n/a	n/a	n/a	1	0.076508814171	blockFiles/set_49/main_PD/GB_runPatches1.xlsx
247	patches	True	n/a	311	0	n/a	n/a	0	1	left	n/a	n/a	n/a	0	-0.04329255772749999	blockFiles/set_49/main_PD/GB_runPatches1.xlsx
248	patches	True	n/a	311	0	n/a	n/a	1	1	right	n/a	n/a	n/a	1	0.0694705312327	blockFiles/set_49/main_PD/GB_runPatches1.xlsx
249	patches	True	n/a	311	0	n/a	n/a	0	0	left	n/a	n/a	n/a	1	0.0162290050089	blockFiles/set_49/main_PD/GB_runPatches1.xlsx
250	patches	True	n/a	311	0	n/a	n/a	0	1	left	n/a	n/a	n/a	0	-0.000735248550773	blockFiles/set_49/main_PD/GB_runPatches1.xlsx
251	main_unc	True	0.0	311	0	0.0	0.0	0	1	left	2.0	0.0	0.0	0	-0.0665935215354	blockFiles/set_49/main_unc/rightBlue\GB_RB_5.xlsx
252	main_unc	True	0.0	311	0	0.0	0.0	0	1	left	2.0	0.0	0.0	0	-0.0284891555272	blockFiles/set_49/main_unc/rightBlue\GB_RB_5.xlsx
253	main_unc	True	0.0	311	0	0.0	0.0	1	1	right	2.0	1.0	1.0	1	0.011538491155999999	blockFiles/set_49/main_unc/rightBlue\GB_RB_5.xlsx
254	main_unc	True	0.0	311	0	0.0	0.0	0	0	left	1.0	0.0	0.0	1	0.00785533802584	blockFiles/set_49/main_unc/rightBlue\GB_RB_5.xlsx
255	main_unc	True	0.0	311	0	0.0	0.0	1	1	right	2.0	1.0	1.0	1	0.0182604737207	blockFiles/set_49/main_unc/rightBlue\GB_RB_5.xlsx
256	main_unc	True	0.0	311	0	0.0	0.0	1	1	right	2.0	1.0	1.0	1	0.05510025536640001	blockFiles/set_49/main_unc/rightBlue\GB_RB_5.xlsx
257	main_unc	True	0.0	311	0	0.0	0.0	0	1	left	1.0	1.0	1.0	0	-0.0424225214496	blockFiles/set_49/main_unc/rightBlue\GB_RB_5.xlsx
258	main_unc	True	0.0	311	0	0.0	0.0	1	1	right	2.0	1.0	1.0	1	0.0567523017339	blockFiles/set_49/main_unc/rightBlue\GB_RB_5.xlsx
259	main_unc	True	0.0	311	0	0.0	0.0	0	1	left	1.0	1.0	1.0	0	-0.040859756097199995	blockFiles/set_49/main_unc/rightBlue\GB_RB_5.xlsx
260	main_unc	True	0.0	311	0	0.0	0.0	0	1	left	1.0	1.0	1.0	0	-0.0313461950049	blockFiles/set_49/main_unc/rightBlue\GB_RB_5.xlsx
261	main_unc	True	0.0	311	0	0.0	0.0	1	0	right	2.0	1.0	0.0	0	-0.00814972931519	blockFiles/set_49/main_unc/rightBlue\GB_RB_5.xlsx
262	main_unc	True	0.0	311	0	0.0	0.0	1	1	right	2.0	1.0	1.0	1	0.0756648802385	blockFiles/set_49/main_unc/rightBlue\GB_RB_5.xlsx
263	main_unc	True	0.0	311	0	0.0	0.0	1	1	right	2.0	0.0	1.0	1	0.0735270421766	blockFiles/set_49/main_unc/rightBlue\GB_RB_5.xlsx
264	main_unc	True	0.0	311	0	0.0	0.0	1	1	right	2.0	1.0	1.0	1	0.0583244438656	blockFiles/set_49/main_unc/rightBlue\GB_RB_5.xlsx
265	main_unc	True	0.0	311	0	0.0	0.0	0	1	left	1.0	1.0	1.0	0	-0.0420697234385	blockFiles/set_49/main_unc/rightBlue\GB_RB_5.xlsx
266	main_unc	True	0.0	311	0	0.0	0.0	1	1	right	2.0	1.0	1.0	1	0.019008946549099997	blockFiles/set_49/main_unc/rightBlue\GB_RB_5.xlsx
267	main_unc	True	0.0	311	0	0.0	0.0	1	0	right	1.0	1.0	1.0	0	-0.0173300729319	blockFiles/set_49/main_unc/rightBlue\GB_RB_5.xlsx
268	main_unc	True	0.0	311	0	0.0	0.0	1	1	right	2.0	1.0	1.0	1	0.0747969767638	blockFiles/set_49/main_unc/rightBlue\GB_RB_5.xlsx
269	main_unc	True	0.0	311	0	0.0	0.0	0	1	left	1.0	1.0	1.0	0	-0.038965706080199995	blockFiles/set_49/main_unc/rightBlue\GB_RB_5.xlsx
270	main_unc	True	0.0	311	0	0.0	0.0	1	1	right	2.0	1.0	1.0	1	0.0248718142509	blockFiles/set_49/main_unc/rightBlue\GB_RB_5.xlsx
271	main_unc	True	0.0	311	0	0.0	0.0	0	1	left	1.0	1.0	1.0	0	-0.0775432107225	blockFiles/set_49/main_unc/rightBlue\GB_RB_5.xlsx
272	main_unc	True	0.0	311	0	0.0	0.0	0	1	left	1.0	1.0	1.0	0	-0.005733302105219999	blockFiles/set_49/main_unc/rightBlue\GB_RB_5.xlsx
273	main_unc	True	0.0	311	0	0.0	0.0	0	0	left	2.0	0.0	1.0	1	0.0014559885673199999	blockFiles/set_49/main_unc/rightBlue\GB_RB_5.xlsx
274	main_unc	True	0.0	311	0	0.0	0.0	0	1	left	1.0	1.0	1.0	0	-0.056983849331700004	blockFiles/set_49/main_unc/rightBlue\GB_RB_5.xlsx
275	main_unc	True	0.0	311	0	0.0	0.0	0	1	left	1.0	1.0	1.0	0	-0.06939335245639999	blockFiles/set_49/main_unc/rightBlue\GB_RB_5.xlsx
276	main_unc	True	0.0	311	0	1.0	1.0	0	1	left	1.0	0.0	0.0	0	-0.031362652462	blockFiles/set_49/main_unc/leftBlue\GB_LB_1.xlsx
277	main_unc	True	0.0	311	0	1.0	1.0	1	0	right	1.0	0.0	0.0	0	-0.011995698623399999	blockFiles/set_49/main_unc/leftBlue\GB_LB_1.xlsx
278	main_unc	True	0.0	311	0	1.0	1.0	1	1	right	2.0	1.0	0.0	1	0.0403675581887	blockFiles/set_49/main_unc/leftBlue\GB_LB_1.xlsx
279	main_unc	True	0.0	311	0	1.0	1.0	0	1	left	1.0	1.0	0.0	0	-0.06221033936369999	blockFiles/set_49/main_unc/leftBlue\GB_LB_1.xlsx
280	main_unc	True	0.0	311	0	1.0	1.0	1	1	right	2.0	0.0	0.0	1	0.0659985300526	blockFiles/set_49/main_unc/leftBlue\GB_LB_1.xlsx
281	main_unc	True	0.0	311	0	1.0	1.0	1	1	right	2.0	0.0	0.0	1	0.0579470664077	blockFiles/set_49/main_unc/leftBlue\GB_LB_1.xlsx
282	main_unc	True	0.0	311	0	1.0	1.0	1	1	right	2.0	0.0	0.0	1	0.013648991510299998	blockFiles/set_49/main_unc/leftBlue\GB_LB_1.xlsx
283	main_unc	True	0.0	311	0	1.0	1.0	0	1	left	2.0	1.0	1.0	0	-0.07821734379980001	blockFiles/set_49/main_unc/leftBlue\GB_LB_1.xlsx
284	main_unc	True	0.0	311	0	1.0	1.0	0	1	left	2.0	1.0	1.0	0	-0.0246494859643	blockFiles/set_49/main_unc/leftBlue\GB_LB_1.xlsx
285	main_unc	True	0.0	311	0	1.0	1.0	0	1	left	1.0	0.0	0.0	0	-0.013473273348100001	blockFiles/set_49/main_unc/leftBlue\GB_LB_1.xlsx
286	main_unc	True	0.0	311	0	1.0	1.0	0	1	left	2.0	1.0	1.0	0	-0.040038646273300005	blockFiles/set_49/main_unc/leftBlue\GB_LB_1.xlsx
287	main_unc	True	0.0	311	0	1.0	1.0	0	1	left	2.0	1.0	1.0	0	-0.04946430725980001	blockFiles/set_49/main_unc/leftBlue\GB_LB_1.xlsx
288	main_unc	True	0.0	311	0	1.0	1.0	1	1	right	1.0	1.0	1.0	1	0.07331471866	blockFiles/set_49/main_unc/leftBlue\GB_LB_1.xlsx
289	main_unc	True	0.0	311	0	1.0	1.0	1	1	right	1.0	1.0	1.0	1	0.00369159394875	blockFiles/set_49/main_unc/leftBlue\GB_LB_1.xlsx
290	main_unc	True	0.0	311	0	1.0	1.0	1	1	right	1.0	1.0	1.0	1	0.049934252426000005	blockFiles/set_49/main_unc/leftBlue\GB_LB_1.xlsx
291	main_unc	True	0.0	311	0	1.0	1.0	0	1	left	2.0	1.0	1.0	0	-0.004155425149949999	blockFiles/set_49/main_unc/leftBlue\GB_LB_1.xlsx
292	main_unc	True	0.0	311	0	1.0	1.0	1	1	right	1.0	1.0	1.0	1	0.061734555345	blockFiles/set_49/main_unc/leftBlue\GB_LB_1.xlsx
293	main_unc	True	0.0	311	0	1.0	1.0	1	1	right	1.0	1.0	1.0	1	0.011959460079700002	blockFiles/set_49/main_unc/leftBlue\GB_LB_1.xlsx
294	main_unc	True	0.0	311	0	1.0	1.0	1	1	right	1.0	0.0	1.0	1	0.06707161065190001	blockFiles/set_49/main_unc/leftBlue\GB_LB_1.xlsx
295	main_unc	True	0.0	311	0	1.0	1.0	0	1	left	2.0	1.0	1.0	0	-0.04429111298169999	blockFiles/set_49/main_unc/leftBlue\GB_LB_1.xlsx
296	main_unc	True	0.0	311	0	1.0	1.0	1	1	right	1.0	1.0	1.0	1	0.053724804967599994	blockFiles/set_49/main_unc/leftBlue\GB_LB_1.xlsx
297	main_unc	True	0.0	311	0	1.0	1.0	0	0	left	1.0	1.0	1.0	1	0.0442976896092	blockFiles/set_49/main_unc/leftBlue\GB_LB_1.xlsx
298	main_unc	True	0.0	311	0	1.0	1.0	0	1	left	2.0	0.0	1.0	0	-0.0405880281702	blockFiles/set_49/main_unc/leftBlue\GB_LB_1.xlsx
299	main_unc	True	0.0	311	0	1.0	1.0	1	1	right	1.0	1.0	1.0	1	0.0418680759147	blockFiles/set_49/main_unc/leftBlue\GB_LB_1.xlsx
300	main_unc	True	0.0	311	0	1.0	1.0	0	1	left	2.0	1.0	1.0	0	-0.0408107594214	blockFiles/set_49/main_unc/leftBlue\GB_LB_1.xlsx
301	main_unc	True	0.0	311	0	2.0	2.0	0	1	left	1.0	0.0	0.0	0	-0.079132295642	blockFiles/set_49/main_unc/leftBlue\GB_LB_5.xlsx
302	main_unc	True	0.0	311	0	2.0	2.0	0	1	left	1.0	0.0	0.0	0	-0.0794047094695	blockFiles/set_49/main_unc/leftBlue\GB_LB_5.xlsx
303	main_unc	True	0.0	311	0	2.0	2.0	1	1	right	1.0	1.0	1.0	1	0.00865439467132	blockFiles/set_49/main_unc/leftBlue\GB_LB_5.xlsx
304	main_unc	True	0.0	311	0	2.0	2.0	1	1	right	1.0	1.0	1.0	1	0.0149369953386	blockFiles/set_49/main_unc/leftBlue\GB_LB_5.xlsx
305	main_unc	True	0.0	311	0	2.0	2.0	0	1	left	2.0	1.0	1.0	0	-0.0513835901394	blockFiles/set_49/main_unc/leftBlue\GB_LB_5.xlsx
306	main_unc	True	0.0	311	0	2.0	2.0	0	1	left	2.0	1.0	1.0	0	-0.0310323176719	blockFiles/set_49/main_unc/leftBlue\GB_LB_5.xlsx
307	main_unc	True	0.0	311	0	2.0	2.0	0	1	left	1.0	0.0	0.0	0	-0.00099347377196	blockFiles/set_49/main_unc/leftBlue\GB_LB_5.xlsx
308	main_unc	True	0.0	311	0	2.0	2.0	1	1	right	1.0	0.0	1.0	1	0.07437404159460001	blockFiles/set_49/main_unc/leftBlue\GB_LB_5.xlsx
309	main_unc	True	0.0	311	0	2.0	2.0	1	1	right	1.0	1.0	1.0	1	0.050685269348300005	blockFiles/set_49/main_unc/leftBlue\GB_LB_5.xlsx
310	main_unc	True	0.0	311	0	2.0	2.0	1	1	right	1.0	0.0	1.0	1	0.064806667231	blockFiles/set_49/main_unc/leftBlue\GB_LB_5.xlsx
311	main_unc	True	0.0	311	0	2.0	2.0	0	1	left	2.0	1.0	1.0	0	-0.017975608948599998	blockFiles/set_49/main_unc/leftBlue\GB_LB_5.xlsx
312	main_unc	True	1.0	311	0	2.0	2.0	1	1	right	n/a	0.0	n/a	1	0.05482573872430001	blockFiles/set_49/main_unc/leftBlue\GB_LB_5.xlsx
313	main_unc	True	0.0	311	0	2.0	2.0	1	1	right	1.0	1.0	1.0	1	0.0370270554908	blockFiles/set_49/main_unc/leftBlue\GB_LB_5.xlsx
314	main_unc	True	0.0	311	0	2.0	2.0	0	1	left	2.0	1.0	1.0	0	-0.0245644664764	blockFiles/set_49/main_unc/leftBlue\GB_LB_5.xlsx
315	main_unc	True	0.0	311	0	2.0	2.0	0	1	left	2.0	1.0	1.0	0	-0.05805932777000001	blockFiles/set_49/main_unc/leftBlue\GB_LB_5.xlsx
316	main_unc	True	0.0	311	0	2.0	2.0	0	1	left	2.0	1.0	1.0	0	-0.0562153124996	blockFiles/set_49/main_unc/leftBlue\GB_LB_5.xlsx
317	main_unc	True	0.0	311	0	2.0	2.0	0	1	left	2.0	1.0	1.0	0	-0.0473635146581	blockFiles/set_49/main_unc/leftBlue\GB_LB_5.xlsx
318	main_unc	True	0.0	311	0	2.0	2.0	1	1	right	1.0	0.0	1.0	1	0.026716619692700002	blockFiles/set_49/main_unc/leftBlue\GB_LB_5.xlsx
319	main_unc	True	0.0	311	0	2.0	2.0	0	1	left	2.0	1.0	1.0	0	-0.013042797446299999	blockFiles/set_49/main_unc/leftBlue\GB_LB_5.xlsx
320	main_unc	True	0.0	311	0	2.0	2.0	1	1	right	1.0	0.0	1.0	1	0.0590655648895	blockFiles/set_49/main_unc/leftBlue\GB_LB_5.xlsx
321	main_unc	True	0.0	311	0	2.0	2.0	0	0	left	2.0	0.0	0.0	1	0.0311122585088	blockFiles/set_49/main_unc/leftBlue\GB_LB_5.xlsx
322	main_unc	True	0.0	311	0	2.0	2.0	0	1	left	2.0	1.0	1.0	0	-0.0406569764018	blockFiles/set_49/main_unc/leftBlue\GB_LB_5.xlsx
323	main_unc	True	0.0	311	0	2.0	2.0	1	1	right	1.0	1.0	1.0	1	0.0313805040903	blockFiles/set_49/main_unc/leftBlue\GB_LB_5.xlsx
324	main_unc	True	0.0	311	0	2.0	2.0	1	1	right	1.0	0.0	1.0	1	0.0172426810302	blockFiles/set_49/main_unc/leftBlue\GB_LB_5.xlsx
325	main_unc	True	0.0	311	0	2.0	2.0	0	1	left	2.0	0.0	1.0	0	-0.033164351657	blockFiles/set_49/main_unc/leftBlue\GB_LB_5.xlsx
326	main_unc	True	0.0	311	0	2.0	2.0	1	1	right	1.0	1.0	1.0	1	0.05482573872430001	blockFiles/set_49/main_unc/leftBlue\GB_LB_5.xlsx
327	main_unc	True	0.0	311	0	3.0	3.0	0	1	left	1.0	0.0	0.0	0	-0.0387903556041	blockFiles/set_49/main_unc/leftBlue\GB_LB_6.xlsx
328	main_unc	True	0.0	311	0	3.0	3.0	1	1	right	2.0	0.0	0.0	1	0.014886600226200001	blockFiles/set_49/main_unc/leftBlue\GB_LB_6.xlsx
329	main_unc	True	0.0	311	0	3.0	3.0	1	1	right	1.0	1.0	1.0	1	0.0321838055924	blockFiles/set_49/main_unc/leftBlue\GB_LB_6.xlsx
330	main_unc	True	0.0	311	0	3.0	3.0	1	1	right	1.0	1.0	1.0	1	0.0256481543183	blockFiles/set_49/main_unc/leftBlue\GB_LB_6.xlsx
331	main_unc	True	0.0	311	0	3.0	3.0	1	1	right	1.0	1.0	1.0	1	0.010438076574399999	blockFiles/set_49/main_unc/leftBlue\GB_LB_6.xlsx
332	main_unc	True	0.0	311	0	3.0	3.0	1	1	right	1.0	1.0	1.0	1	0.0459916323982	blockFiles/set_49/main_unc/leftBlue\GB_LB_6.xlsx
333	main_unc	True	0.0	311	0	3.0	3.0	0	1	left	2.0	1.0	1.0	0	-0.06751955097540001	blockFiles/set_49/main_unc/leftBlue\GB_LB_6.xlsx
334	main_unc	True	0.0	311	0	3.0	3.0	1	1	right	1.0	1.0	1.0	1	0.0546054009721	blockFiles/set_49/main_unc/leftBlue\GB_LB_6.xlsx
335	main_unc	True	0.0	311	0	3.0	3.0	0	1	left	2.0	1.0	1.0	0	-0.0171148465946	blockFiles/set_49/main_unc/leftBlue\GB_LB_6.xlsx
336	main_unc	True	0.0	311	0	3.0	3.0	1	1	right	1.0	1.0	1.0	1	0.0628178922646	blockFiles/set_49/main_unc/leftBlue\GB_LB_6.xlsx
337	main_unc	True	0.0	311	0	3.0	3.0	0	0	left	2.0	0.0	0.0	1	0.0146312609874	blockFiles/set_49/main_unc/leftBlue\GB_LB_6.xlsx
338	main_unc	True	0.0	311	0	3.0	3.0	0	1	left	2.0	1.0	1.0	0	-0.00446476131678	blockFiles/set_49/main_unc/leftBlue\GB_LB_6.xlsx
339	main_unc	True	0.0	311	0	3.0	3.0	1	1	right	2.0	0.0	0.0	1	0.0066483219713	blockFiles/set_49/main_unc/leftBlue\GB_LB_6.xlsx
340	main_unc	True	0.0	311	0	3.0	3.0	0	1	left	2.0	1.0	1.0	0	-0.0130118951015	blockFiles/set_49/main_unc/leftBlue\GB_LB_6.xlsx
341	main_unc	True	0.0	311	0	3.0	3.0	0	1	left	2.0	1.0	1.0	0	-0.07701556934039999	blockFiles/set_49/main_unc/leftBlue\GB_LB_6.xlsx
342	main_unc	True	0.0	311	0	3.0	3.0	0	1	left	2.0	0.0	1.0	0	-0.0550968486629	blockFiles/set_49/main_unc/leftBlue\GB_LB_6.xlsx
343	main_unc	True	0.0	311	0	3.0	3.0	1	1	right	1.0	0.0	1.0	1	0.052060218192600004	blockFiles/set_49/main_unc/leftBlue\GB_LB_6.xlsx
344	main_unc	True	0.0	311	0	3.0	3.0	0	1	left	2.0	1.0	1.0	0	-0.0496827099472	blockFiles/set_49/main_unc/leftBlue\GB_LB_6.xlsx
345	main_unc	True	0.0	311	0	3.0	3.0	0	0	left	2.0	0.0	0.0	1	0.00694014666602	blockFiles/set_49/main_unc/leftBlue\GB_LB_6.xlsx
346	main_unc	True	0.0	311	0	3.0	3.0	0	1	left	2.0	1.0	1.0	0	-0.0343739024363	blockFiles/set_49/main_unc/leftBlue\GB_LB_6.xlsx
347	main_unc	True	0.0	311	0	3.0	3.0	1	1	right	1.0	0.0	1.0	1	0.0688138950802	blockFiles/set_49/main_unc/leftBlue\GB_LB_6.xlsx
348	main_unc	True	0.0	311	0	3.0	3.0	0	1	left	2.0	1.0	1.0	0	-0.007778644040229999	blockFiles/set_49/main_unc/leftBlue\GB_LB_6.xlsx
349	main_unc	True	0.0	311	0	3.0	3.0	0	1	left	2.0	0.0	1.0	0	-0.00813964297995	blockFiles/set_49/main_unc/leftBlue\GB_LB_6.xlsx
350	main_unc	True	0.0	311	0	3.0	3.0	0	1	left	2.0	1.0	1.0	0	-0.0603033937514	blockFiles/set_49/main_unc/leftBlue\GB_LB_6.xlsx
351	main_unc	True	0.0	311	0	3.0	3.0	0	1	left	2.0	1.0	1.0	0	-0.0505223388784	blockFiles/set_49/main_unc/leftBlue\GB_LB_6.xlsx
352	main_unc	True	0.0	311	0	4.0	4.0	0	1	left	1.0	1.0	1.0	0	-0.057402536459300005	blockFiles/set_49/main_unc/rightBlue\GB_RB_6.xlsx
353	main_unc	True	0.0	311	0	4.0	4.0	1	1	right	2.0	1.0	1.0	1	0.0432343756594	blockFiles/set_49/main_unc/rightBlue\GB_RB_6.xlsx
354	main_unc	True	0.0	311	0	4.0	4.0	0	1	left	1.0	0.0	1.0	0	-0.0735815952532	blockFiles/set_49/main_unc/rightBlue\GB_RB_6.xlsx
355	main_unc	True	0.0	311	0	4.0	4.0	0	1	left	1.0	1.0	1.0	0	-0.0223396705277	blockFiles/set_49/main_unc/rightBlue\GB_RB_6.xlsx
356	main_unc	True	0.0	311	0	4.0	4.0	1	1	right	2.0	1.0	1.0	1	0.037695313747999996	blockFiles/set_49/main_unc/rightBlue\GB_RB_6.xlsx
357	main_unc	True	0.0	311	0	4.0	4.0	0	0	left	2.0	1.0	1.0	1	0.023586708400400003	blockFiles/set_49/main_unc/rightBlue\GB_RB_6.xlsx
358	main_unc	True	0.0	311	0	4.0	4.0	1	1	right	2.0	1.0	1.0	1	0.0249639183655	blockFiles/set_49/main_unc/rightBlue\GB_RB_6.xlsx
359	main_unc	True	0.0	311	0	4.0	4.0	0	1	left	1.0	1.0	1.0	0	-0.0727497347817	blockFiles/set_49/main_unc/rightBlue\GB_RB_6.xlsx
360	main_unc	True	0.0	311	0	4.0	4.0	0	1	left	1.0	1.0	1.0	0	-0.0592548287101	blockFiles/set_49/main_unc/rightBlue\GB_RB_6.xlsx
361	main_unc	True	0.0	311	0	4.0	4.0	0	1	left	1.0	0.0	1.0	0	-0.0506346121244	blockFiles/set_49/main_unc/rightBlue\GB_RB_6.xlsx
362	main_unc	True	0.0	311	0	4.0	4.0	0	1	left	1.0	1.0	1.0	0	-0.0600795685872	blockFiles/set_49/main_unc/rightBlue\GB_RB_6.xlsx
363	main_unc	True	0.0	311	0	4.0	4.0	1	1	right	2.0	0.0	1.0	1	0.0242020300403	blockFiles/set_49/main_unc/rightBlue\GB_RB_6.xlsx
364	main_unc	True	0.0	311	0	4.0	4.0	1	1	right	2.0	1.0	1.0	1	0.029172971770200003	blockFiles/set_49/main_unc/rightBlue\GB_RB_6.xlsx
365	main_unc	True	0.0	311	0	4.0	4.0	1	1	right	2.0	1.0	1.0	1	0.07656256014480001	blockFiles/set_49/main_unc/rightBlue\GB_RB_6.xlsx
366	main_unc	True	0.0	311	0	4.0	4.0	1	0	right	1.0	1.0	1.0	0	-0.009779364243149999	blockFiles/set_49/main_unc/rightBlue\GB_RB_6.xlsx
367	main_unc	True	0.0	311	0	4.0	4.0	1	1	right	2.0	1.0	1.0	1	0.0246556611173	blockFiles/set_49/main_unc/rightBlue\GB_RB_6.xlsx
368	main_unc	True	0.0	311	0	4.0	4.0	1	1	right	2.0	1.0	1.0	1	0.0676109319553	blockFiles/set_49/main_unc/rightBlue\GB_RB_6.xlsx
369	main_unc	True	0.0	311	0	4.0	4.0	1	1	right	2.0	1.0	1.0	1	0.0295467158593	blockFiles/set_49/main_unc/rightBlue\GB_RB_6.xlsx
370	main_unc	True	0.0	311	0	4.0	4.0	0	1	left	1.0	1.0	1.0	0	-0.0100198629871	blockFiles/set_49/main_unc/rightBlue\GB_RB_6.xlsx
371	main_unc	True	0.0	311	0	4.0	4.0	0	1	left	1.0	1.0	1.0	0	-0.0381830251776	blockFiles/set_49/main_unc/rightBlue\GB_RB_6.xlsx
372	main_unc	True	0.0	311	0	4.0	4.0	0	1	left	1.0	1.0	1.0	0	-0.0301187678054	blockFiles/set_49/main_unc/rightBlue\GB_RB_6.xlsx
373	main_unc	True	0.0	311	0	4.0	4.0	1	1	right	2.0	1.0	1.0	1	0.05032317921519999	blockFiles/set_49/main_unc/rightBlue\GB_RB_6.xlsx
374	main_unc	True	0.0	311	0	4.0	4.0	0	1	left	1.0	1.0	1.0	0	-0.014401732198900001	blockFiles/set_49/main_unc/rightBlue\GB_RB_6.xlsx
375	main_unc	True	0.0	311	0	4.0	4.0	1	1	right	2.0	0.0	1.0	1	0.0277937972173	blockFiles/set_49/main_unc/rightBlue\GB_RB_6.xlsx
376	main_unc	True	0.0	311	0	4.0	4.0	0	1	left	1.0	1.0	1.0	0	-0.0791132472828	blockFiles/set_49/main_unc/rightBlue\GB_RB_6.xlsx
377	main_unc	True	0.0	311	0	5.0	5.0	1	1	right	1.0	0.0	1.0	1	0.0612365493365	blockFiles/set_49/main_unc/leftBlue\GB_LB_4.xlsx
378	main_unc	True	0.0	311	0	5.0	5.0	0	1	left	2.0	0.0	1.0	0	-0.06511442705989999	blockFiles/set_49/main_unc/leftBlue\GB_LB_4.xlsx
379	main_unc	True	0.0	311	0	5.0	5.0	0	1	left	1.0	0.0	0.0	0	-0.0411207631975	blockFiles/set_49/main_unc/leftBlue\GB_LB_4.xlsx
380	main_unc	True	0.0	311	0	5.0	5.0	0	1	left	1.0	0.0	0.0	0	-0.0352255436778	blockFiles/set_49/main_unc/leftBlue\GB_LB_4.xlsx
381	main_unc	True	0.0	311	0	5.0	5.0	1	1	right	1.0	1.0	1.0	1	0.0133418735117	blockFiles/set_49/main_unc/leftBlue\GB_LB_4.xlsx
382	main_unc	True	0.0	311	0	5.0	5.0	0	1	left	2.0	1.0	1.0	0	-0.016024579461700002	blockFiles/set_49/main_unc/leftBlue\GB_LB_4.xlsx
383	main_unc	True	0.0	311	0	5.0	5.0	0	1	left	2.0	0.0	1.0	0	-0.0599100336246	blockFiles/set_49/main_unc/leftBlue\GB_LB_4.xlsx
384	main_unc	True	0.0	311	0	5.0	5.0	1	1	right	1.0	1.0	1.0	1	0.0504767137207	blockFiles/set_49/main_unc/leftBlue\GB_LB_4.xlsx
385	main_unc	True	0.0	311	0	5.0	5.0	0	1	left	2.0	0.0	1.0	0	-0.0182061409391	blockFiles/set_49/main_unc/leftBlue\GB_LB_4.xlsx
386	main_unc	True	0.0	311	0	5.0	5.0	1	0	right	2.0	1.0	1.0	0	-0.043904714193199995	blockFiles/set_49/main_unc/leftBlue\GB_LB_4.xlsx
387	main_unc	True	0.0	311	0	5.0	5.0	1	1	right	1.0	1.0	1.0	1	0.0265164655447	blockFiles/set_49/main_unc/leftBlue\GB_LB_4.xlsx
388	main_unc	True	0.0	311	0	5.0	5.0	1	1	right	1.0	1.0	1.0	1	0.051845574323100004	blockFiles/set_49/main_unc/leftBlue\GB_LB_4.xlsx
389	main_unc	True	0.0	311	0	5.0	5.0	1	1	right	1.0	1.0	1.0	1	0.0790954916552	blockFiles/set_49/main_unc/leftBlue\GB_LB_4.xlsx
390	main_unc	True	0.0	311	0	5.0	5.0	1	0	right	2.0	1.0	1.0	0	-0.018453904129599998	blockFiles/set_49/main_unc/leftBlue\GB_LB_4.xlsx
391	main_unc	True	0.0	311	0	5.0	5.0	0	1	left	2.0	1.0	1.0	0	-0.0268233354017	blockFiles/set_49/main_unc/leftBlue\GB_LB_4.xlsx
392	main_unc	True	0.0	311	0	5.0	5.0	1	1	right	2.0	0.0	0.0	1	0.0007521562837060001	blockFiles/set_49/main_unc/leftBlue\GB_LB_4.xlsx
393	main_unc	True	0.0	311	0	5.0	5.0	0	1	left	2.0	1.0	1.0	0	-0.032499905712900005	blockFiles/set_49/main_unc/leftBlue\GB_LB_4.xlsx
394	main_unc	True	0.0	311	0	5.0	5.0	0	1	left	2.0	1.0	1.0	0	-0.0504413495213	blockFiles/set_49/main_unc/leftBlue\GB_LB_4.xlsx
395	main_unc	True	0.0	311	0	5.0	5.0	1	1	right	1.0	1.0	1.0	1	0.0585547959991	blockFiles/set_49/main_unc/leftBlue\GB_LB_4.xlsx
396	main_unc	True	0.0	311	0	5.0	5.0	0	1	left	2.0	1.0	1.0	0	-0.00776285251603	blockFiles/set_49/main_unc/leftBlue\GB_LB_4.xlsx
397	main_unc	True	0.0	311	0	5.0	5.0	1	1	right	1.0	0.0	1.0	1	0.06936935590580001	blockFiles/set_49/main_unc/leftBlue\GB_LB_4.xlsx
398	main_unc	True	0.0	311	0	5.0	5.0	1	1	right	1.0	1.0	1.0	1	0.028873487711	blockFiles/set_49/main_unc/leftBlue\GB_LB_4.xlsx
399	main_unc	True	0.0	311	0	5.0	5.0	0	1	left	2.0	0.0	1.0	0	-0.0401312476024	blockFiles/set_49/main_unc/leftBlue\GB_LB_4.xlsx
400	main_unc	True	0.0	311	0	5.0	5.0	0	1	left	2.0	1.0	1.0	0	-0.06760417267680001	blockFiles/set_49/main_unc/leftBlue\GB_LB_4.xlsx
401	main_unc	True	0.0	311	0	5.0	5.0	1	1	right	1.0	1.0	1.0	1	0.06853167638180001	blockFiles/set_49/main_unc/leftBlue\GB_LB_4.xlsx
402	main_unc	True	0.0	311	0	6.0	6.0	1	1	right	1.0	1.0	0.0	1	0.00756195424125	blockFiles/set_49/main_unc/rightBlue\GB_RB_4.xlsx
403	main_unc	True	0.0	311	0	6.0	6.0	1	1	right	1.0	0.0	0.0	1	0.018124075010400004	blockFiles/set_49/main_unc/rightBlue\GB_RB_4.xlsx
404	main_unc	True	0.0	311	0	6.0	6.0	0	1	left	2.0	0.0	0.0	0	-0.0336170667224	blockFiles/set_49/main_unc/rightBlue\GB_RB_4.xlsx
405	main_unc	True	0.0	311	0	6.0	6.0	1	1	right	1.0	0.0	0.0	1	0.0577044713497	blockFiles/set_49/main_unc/rightBlue\GB_RB_4.xlsx
406	main_unc	True	0.0	311	0	6.0	6.0	1	1	right	2.0	1.0	1.0	1	0.054310740232499995	blockFiles/set_49/main_unc/rightBlue\GB_RB_4.xlsx
407	main_unc	True	0.0	311	0	6.0	6.0	1	1	right	1.0	0.0	0.0	1	0.005367767419669999	blockFiles/set_49/main_unc/rightBlue\GB_RB_4.xlsx
408	main_unc	True	0.0	311	0	6.0	6.0	1	1	right	2.0	1.0	1.0	1	0.048623811248699994	blockFiles/set_49/main_unc/rightBlue\GB_RB_4.xlsx
409	main_unc	True	0.0	311	0	6.0	6.0	0	1	left	1.0	0.0	1.0	0	-0.0474560200796	blockFiles/set_49/main_unc/rightBlue\GB_RB_4.xlsx
410	main_unc	True	0.0	311	0	6.0	6.0	0	1	left	1.0	1.0	1.0	0	-0.020230945237	blockFiles/set_49/main_unc/rightBlue\GB_RB_4.xlsx
411	main_unc	True	0.0	311	0	6.0	6.0	0	1	left	1.0	1.0	1.0	0	-0.0684736013226	blockFiles/set_49/main_unc/rightBlue\GB_RB_4.xlsx
412	main_unc	True	0.0	311	0	6.0	6.0	0	1	left	1.0	1.0	1.0	0	-0.0762844478153	blockFiles/set_49/main_unc/rightBlue\GB_RB_4.xlsx
413	main_unc	True	0.0	311	0	6.0	6.0	0	1	left	1.0	1.0	1.0	0	-0.0628388455696	blockFiles/set_49/main_unc/rightBlue\GB_RB_4.xlsx
414	main_unc	True	0.0	311	0	6.0	6.0	0	1	left	1.0	1.0	1.0	0	-0.04890231397	blockFiles/set_49/main_unc/rightBlue\GB_RB_4.xlsx
415	main_unc	True	0.0	311	0	6.0	6.0	0	0	left	1.0	0.0	0.0	1	0.0018458251096300001	blockFiles/set_49/main_unc/rightBlue\GB_RB_4.xlsx
416	main_unc	True	1.0	311	0	6.0	6.0	0	1	left	n/a	0.0	n/a	0	-0.019416863285000002	blockFiles/set_49/main_unc/rightBlue\GB_RB_4.xlsx
417	main_unc	True	0.0	311	0	6.0	6.0	0	0	left	2.0	0.0	1.0	1	0.0514127587713	blockFiles/set_49/main_unc/rightBlue\GB_RB_4.xlsx
418	main_unc	True	0.0	311	0	6.0	6.0	1	1	right	2.0	1.0	1.0	1	0.0528384514898	blockFiles/set_49/main_unc/rightBlue\GB_RB_4.xlsx
419	main_unc	True	0.0	311	0	6.0	6.0	0	1	left	1.0	1.0	1.0	0	-0.0739931681938	blockFiles/set_49/main_unc/rightBlue\GB_RB_4.xlsx
420	main_unc	True	0.0	311	0	6.0	6.0	0	1	left	1.0	1.0	1.0	0	-0.022189327832299998	blockFiles/set_49/main_unc/rightBlue\GB_RB_4.xlsx
421	main_unc	True	0.0	311	0	6.0	6.0	0	0	left	2.0	0.0	1.0	1	0.0110656622425	blockFiles/set_49/main_unc/rightBlue\GB_RB_4.xlsx
422	main_unc	True	1.0	311	0	6.0	6.0	0	1	left	n/a	0.0	n/a	0	-0.0527408081666	blockFiles/set_49/main_unc/rightBlue\GB_RB_4.xlsx
423	main_unc	True	0.0	311	0	6.0	6.0	0	1	left	1.0	1.0	1.0	0	-0.027718061842	blockFiles/set_49/main_unc/rightBlue\GB_RB_4.xlsx
424	main_unc	True	0.0	311	0	6.0	6.0	1	1	right	2.0	1.0	1.0	1	0.05216558512299999	blockFiles/set_49/main_unc/rightBlue\GB_RB_4.xlsx
425	main_unc	True	0.0	311	0	6.0	6.0	0	0	left	2.0	0.0	1.0	1	0.021443164628	blockFiles/set_49/main_unc/rightBlue\GB_RB_4.xlsx
426	main_unc	True	0.0	311	0	6.0	6.0	1	1	right	2.0	1.0	1.0	1	0.0379620094225	blockFiles/set_49/main_unc/rightBlue\GB_RB_4.xlsx
427	main_unc	True	0.0	311	0	6.0	6.0	0	1	left	1.0	0.0	1.0	0	-0.019416863285000002	blockFiles/set_49/main_unc/rightBlue\GB_RB_4.xlsx
428	main_unc	True	0.0	311	0	6.0	6.0	0	1	left	1.0	1.0	1.0	0	-0.0527408081666	blockFiles/set_49/main_unc/rightBlue\GB_RB_4.xlsx
429	main_unc	True	0.0	311	0	7.0	7.0	0	1	left	2.0	0.0	0.0	0	-0.0581209425628	blockFiles/set_49/main_unc/rightBlue\GB_RB_3.xlsx
430	main_unc	True	0.0	311	0	7.0	7.0	1	1	right	1.0	0.0	0.0	1	0.00791425226256	blockFiles/set_49/main_unc/rightBlue\GB_RB_3.xlsx
431	main_unc	True	0.0	311	0	7.0	7.0	0	1	left	1.0	1.0	1.0	0	-0.0782934492454	blockFiles/set_49/main_unc/rightBlue\GB_RB_3.xlsx
432	main_unc	True	0.0	311	0	7.0	7.0	1	0	right	1.0	1.0	1.0	0	-0.0129304138944	blockFiles/set_49/main_unc/rightBlue\GB_RB_3.xlsx
433	main_unc	True	0.0	311	0	7.0	7.0	0	1	left	1.0	0.0	1.0	0	-0.0253657161631	blockFiles/set_49/main_unc/rightBlue\GB_RB_3.xlsx
434	main_unc	True	0.0	311	0	7.0	7.0	1	1	right	2.0	1.0	1.0	1	0.0537752393261	blockFiles/set_49/main_unc/rightBlue\GB_RB_3.xlsx
435	main_unc	True	0.0	311	0	7.0	7.0	0	1	left	1.0	0.0	1.0	0	-0.06690113134680001	blockFiles/set_49/main_unc/rightBlue\GB_RB_3.xlsx
436	main_unc	True	0.0	311	0	7.0	7.0	0	1	left	1.0	0.0	1.0	0	-0.0347747062705	blockFiles/set_49/main_unc/rightBlue\GB_RB_3.xlsx
437	main_unc	True	0.0	311	0	7.0	7.0	1	1	right	2.0	1.0	1.0	1	0.0199391115457	blockFiles/set_49/main_unc/rightBlue\GB_RB_3.xlsx
438	main_unc	True	0.0	311	0	7.0	7.0	0	1	left	1.0	1.0	1.0	0	-0.0316291046329	blockFiles/set_49/main_unc/rightBlue\GB_RB_3.xlsx
439	main_unc	True	0.0	311	0	7.0	7.0	1	1	right	2.0	1.0	1.0	1	0.026643307190400003	blockFiles/set_49/main_unc/rightBlue\GB_RB_3.xlsx
440	main_unc	True	0.0	311	0	7.0	7.0	0	1	left	1.0	1.0	1.0	0	-0.0788984226063	blockFiles/set_49/main_unc/rightBlue\GB_RB_3.xlsx
441	main_unc	True	0.0	311	0	7.0	7.0	0	1	left	1.0	1.0	1.0	0	-0.0391342870519	blockFiles/set_49/main_unc/rightBlue\GB_RB_3.xlsx
442	main_unc	True	0.0	311	0	7.0	7.0	0	0	left	2.0	1.0	1.0	1	0.00175968836993	blockFiles/set_49/main_unc/rightBlue\GB_RB_3.xlsx
443	main_unc	True	0.0	311	0	7.0	7.0	1	1	right	2.0	1.0	1.0	1	0.051051782034300004	blockFiles/set_49/main_unc/rightBlue\GB_RB_3.xlsx
444	main_unc	True	0.0	311	0	7.0	7.0	0	1	left	1.0	1.0	1.0	0	-0.0530315659009	blockFiles/set_49/main_unc/rightBlue\GB_RB_3.xlsx
445	main_unc	True	0.0	311	0	7.0	7.0	0	1	left	1.0	1.0	1.0	0	-0.054845428503999996	blockFiles/set_49/main_unc/rightBlue\GB_RB_3.xlsx
446	main_unc	True	0.0	311	0	7.0	7.0	0	0	left	2.0	1.0	1.0	1	0.0283100935817	blockFiles/set_49/main_unc/rightBlue\GB_RB_3.xlsx
447	main_unc	True	0.0	311	0	7.0	7.0	1	1	right	2.0	1.0	1.0	1	0.039278219640300004	blockFiles/set_49/main_unc/rightBlue\GB_RB_3.xlsx
448	main_unc	True	0.0	311	0	7.0	7.0	1	1	right	2.0	0.0	1.0	1	0.0722616572678	blockFiles/set_49/main_unc/rightBlue\GB_RB_3.xlsx
449	main_unc	True	0.0	311	0	7.0	7.0	0	0	left	2.0	1.0	1.0	1	0.0238904833607	blockFiles/set_49/main_unc/rightBlue\GB_RB_3.xlsx
450	main_unc	True	0.0	311	0	7.0	7.0	0	1	left	1.0	1.0	1.0	0	-0.020025088042	blockFiles/set_49/main_unc/rightBlue\GB_RB_3.xlsx
451	main_unc	True	0.0	311	0	7.0	7.0	1	1	right	2.0	1.0	1.0	1	0.0669098024257	blockFiles/set_49/main_unc/rightBlue\GB_RB_3.xlsx
452	main_unc	True	0.0	311	0	7.0	7.0	1	1	right	2.0	0.0	1.0	1	0.06584396550430001	blockFiles/set_49/main_unc/rightBlue\GB_RB_3.xlsx
453	main_unc	True	0.0	311	0	7.0	7.0	1	0	right	1.0	1.0	1.0	0	-0.018475391008	blockFiles/set_49/main_unc/rightBlue\GB_RB_3.xlsx
454	main_unc	True	0.0	311	0	8.0	8.0	1	1	right	1.0	0.0	1.0	1	0.008529077265409999	blockFiles/set_49/main_unc/leftBlue\GB_LB_2.xlsx
455	main_unc	True	0.0	311	0	8.0	8.0	0	1	left	2.0	1.0	1.0	0	-0.0219387418963	blockFiles/set_49/main_unc/leftBlue\GB_LB_2.xlsx
456	main_unc	True	0.0	311	0	8.0	8.0	0	1	left	2.0	1.0	1.0	0	-0.0183581984788	blockFiles/set_49/main_unc/leftBlue\GB_LB_2.xlsx
457	main_unc	True	0.0	311	0	8.0	8.0	0	1	left	2.0	1.0	1.0	0	-0.05643423901869999	blockFiles/set_49/main_unc/leftBlue\GB_LB_2.xlsx
458	main_unc	True	0.0	311	0	8.0	8.0	1	1	right	1.0	1.0	1.0	1	0.0744101898745	blockFiles/set_49/main_unc/leftBlue\GB_LB_2.xlsx
459	main_unc	True	0.0	311	0	8.0	8.0	0	1	left	2.0	1.0	1.0	0	-0.005531740747390001	blockFiles/set_49/main_unc/leftBlue\GB_LB_2.xlsx
460	main_unc	True	0.0	311	0	8.0	8.0	1	1	right	1.0	1.0	1.0	1	0.0695819884352	blockFiles/set_49/main_unc/leftBlue\GB_LB_2.xlsx
461	main_unc	True	0.0	311	0	8.0	8.0	1	1	right	1.0	1.0	1.0	1	0.07018271021539998	blockFiles/set_49/main_unc/leftBlue\GB_LB_2.xlsx
462	main_unc	True	0.0	311	0	8.0	8.0	0	1	left	2.0	1.0	1.0	0	-0.0431606347114	blockFiles/set_49/main_unc/leftBlue\GB_LB_2.xlsx
463	main_unc	True	0.0	311	0	8.0	8.0	1	0	right	2.0	0.0	1.0	0	-0.0121491540782	blockFiles/set_49/main_unc/leftBlue\GB_LB_2.xlsx
464	main_unc	True	0.0	311	0	8.0	8.0	0	1	left	2.0	1.0	1.0	0	-0.0598351177387	blockFiles/set_49/main_unc/leftBlue\GB_LB_2.xlsx
465	main_unc	True	0.0	311	0	8.0	8.0	1	1	right	1.0	0.0	1.0	1	0.0189270605147	blockFiles/set_49/main_unc/leftBlue\GB_LB_2.xlsx
466	main_unc	True	0.0	311	0	8.0	8.0	1	1	right	1.0	0.0	1.0	1	0.025271064490099995	blockFiles/set_49/main_unc/leftBlue\GB_LB_2.xlsx
467	main_unc	True	0.0	311	0	8.0	8.0	1	1	right	1.0	1.0	1.0	1	0.00591573072597	blockFiles/set_49/main_unc/leftBlue\GB_LB_2.xlsx
468	main_unc	True	0.0	311	0	8.0	8.0	1	1	right	1.0	0.0	1.0	1	0.046898406408699994	blockFiles/set_49/main_unc/leftBlue\GB_LB_2.xlsx
469	main_unc	True	0.0	311	0	8.0	8.0	0	1	left	2.0	1.0	1.0	0	-0.0338682445511	blockFiles/set_49/main_unc/leftBlue\GB_LB_2.xlsx
470	main_unc	True	0.0	311	0	8.0	8.0	0	1	left	2.0	1.0	1.0	0	-0.0614640619233	blockFiles/set_49/main_unc/leftBlue\GB_LB_2.xlsx
471	main_unc	True	0.0	311	0	8.0	8.0	1	1	right	1.0	1.0	1.0	1	0.0413811359741	blockFiles/set_49/main_unc/leftBlue\GB_LB_2.xlsx
472	main_unc	True	0.0	311	0	8.0	8.0	1	1	right	1.0	1.0	1.0	1	0.041760275159	blockFiles/set_49/main_unc/leftBlue\GB_LB_2.xlsx
473	main_unc	True	0.0	311	0	8.0	8.0	0	1	left	2.0	1.0	1.0	0	-0.0782081378251	blockFiles/set_49/main_unc/leftBlue\GB_LB_2.xlsx
474	main_unc	True	0.0	311	0	8.0	8.0	0	1	left	2.0	1.0	1.0	0	-0.0183616805635	blockFiles/set_49/main_unc/leftBlue\GB_LB_2.xlsx
475	main_unc	True	0.0	311	0	8.0	8.0	1	1	right	2.0	0.0	0.0	1	0.0262327508628	blockFiles/set_49/main_unc/leftBlue\GB_LB_2.xlsx
476	main_unc	True	0.0	311	0	8.0	8.0	0	1	left	2.0	1.0	1.0	0	-0.0418070699275	blockFiles/set_49/main_unc/leftBlue\GB_LB_2.xlsx
477	main_unc	True	0.0	311	0	8.0	8.0	1	1	right	1.0	1.0	1.0	1	0.0064455310441599994	blockFiles/set_49/main_unc/leftBlue\GB_LB_2.xlsx
478	main_unc	True	0.0	311	0	8.0	8.0	1	1	right	1.0	1.0	1.0	1	0.0306365496665	blockFiles/set_49/main_unc/leftBlue\GB_LB_2.xlsx
479	main_unc	True	0.0	311	0	9.0	9.0	1	1	right	1.0	1.0	0.0	1	0.0277555694245	blockFiles/set_49/main_unc/rightBlue\GB_RB_2.xlsx
480	main_unc	True	0.0	311	0	9.0	9.0	0	1	left	2.0	0.0	0.0	0	-0.0776657606103	blockFiles/set_49/main_unc/rightBlue\GB_RB_2.xlsx
481	main_unc	True	0.0	311	0	9.0	9.0	0	1	left	2.0	0.0	0.0	0	-0.008222049679609999	blockFiles/set_49/main_unc/rightBlue\GB_RB_2.xlsx
482	main_unc	True	0.0	311	0	9.0	9.0	1	1	right	2.0	1.0	1.0	1	0.0174279329553	blockFiles/set_49/main_unc/rightBlue\GB_RB_2.xlsx
483	main_unc	True	0.0	311	0	9.0	9.0	0	1	left	1.0	1.0	1.0	0	-0.0415594862029	blockFiles/set_49/main_unc/rightBlue\GB_RB_2.xlsx
484	main_unc	True	0.0	311	0	9.0	9.0	0	1	left	1.0	0.0	1.0	0	-0.038631504029	blockFiles/set_49/main_unc/rightBlue\GB_RB_2.xlsx
485	main_unc	True	0.0	311	0	9.0	9.0	1	1	right	2.0	1.0	1.0	1	0.0785368963145	blockFiles/set_49/main_unc/rightBlue\GB_RB_2.xlsx
486	main_unc	True	0.0	311	0	9.0	9.0	0	1	left	1.0	1.0	1.0	0	-0.042604751531	blockFiles/set_49/main_unc/rightBlue\GB_RB_2.xlsx
487	main_unc	True	0.0	311	0	9.0	9.0	0	1	left	1.0	1.0	1.0	0	-0.0654643980414	blockFiles/set_49/main_unc/rightBlue\GB_RB_2.xlsx
488	main_unc	True	0.0	311	0	9.0	9.0	1	0	right	1.0	1.0	1.0	0	-0.029325613491199998	blockFiles/set_49/main_unc/rightBlue\GB_RB_2.xlsx
489	main_unc	True	0.0	311	0	9.0	9.0	0	0	left	2.0	1.0	1.0	1	0.00647489059716	blockFiles/set_49/main_unc/rightBlue\GB_RB_2.xlsx
490	main_unc	True	0.0	311	0	9.0	9.0	1	1	right	2.0	1.0	1.0	1	0.0393563147262	blockFiles/set_49/main_unc/rightBlue\GB_RB_2.xlsx
491	main_unc	True	0.0	311	0	9.0	9.0	0	1	left	1.0	1.0	1.0	0	-0.021540599931	blockFiles/set_49/main_unc/rightBlue\GB_RB_2.xlsx
492	main_unc	True	0.0	311	0	9.0	9.0	0	1	left	1.0	1.0	1.0	0	-0.009469625130299999	blockFiles/set_49/main_unc/rightBlue\GB_RB_2.xlsx
493	main_unc	True	0.0	311	0	9.0	9.0	1	1	right	2.0	1.0	1.0	1	0.0644806402735	blockFiles/set_49/main_unc/rightBlue\GB_RB_2.xlsx
494	main_unc	True	0.0	311	0	9.0	9.0	0	1	left	1.0	0.0	1.0	0	-0.00825995730236	blockFiles/set_49/main_unc/rightBlue\GB_RB_2.xlsx
495	main_unc	True	0.0	311	0	9.0	9.0	1	1	right	2.0	0.0	1.0	1	0.0644793023169	blockFiles/set_49/main_unc/rightBlue\GB_RB_2.xlsx
496	main_unc	True	0.0	311	0	9.0	9.0	0	1	left	1.0	1.0	1.0	0	-0.046214695125799996	blockFiles/set_49/main_unc/rightBlue\GB_RB_2.xlsx
497	main_unc	True	0.0	311	0	9.0	9.0	1	1	right	2.0	1.0	1.0	1	0.043473414965000005	blockFiles/set_49/main_unc/rightBlue\GB_RB_2.xlsx
498	main_unc	True	0.0	311	0	9.0	9.0	1	1	right	2.0	1.0	1.0	1	0.022272081784900002	blockFiles/set_49/main_unc/rightBlue\GB_RB_2.xlsx
499	main_unc	True	0.0	311	0	9.0	9.0	1	1	right	2.0	1.0	1.0	1	0.0514989896491	blockFiles/set_49/main_unc/rightBlue\GB_RB_2.xlsx
500	main_unc	True	0.0	311	0	9.0	9.0	1	1	right	2.0	1.0	1.0	1	0.0335587509349	blockFiles/set_49/main_unc/rightBlue\GB_RB_2.xlsx
501	main_unc	True	0.0	311	0	9.0	9.0	1	1	right	2.0	1.0	1.0	1	0.0376649033651	blockFiles/set_49/main_unc/rightBlue\GB_RB_2.xlsx
502	main_unc	True	0.0	311	0	9.0	9.0	0	1	left	1.0	0.0	1.0	0	-0.038595190141400004	blockFiles/set_49/main_unc/rightBlue\GB_RB_2.xlsx
503	main_unc	True	0.0	311	0	9.0	9.0	0	1	left	1.0	1.0	1.0	0	-0.07783286940310001	blockFiles/set_49/main_unc/rightBlue\GB_RB_2.xlsx
504	main_unc	True	0.0	311	0	10.0	10.0	0	1	left	1.0	0.0	0.0	0	-0.0784479064681	blockFiles/set_49/main_unc/leftBlue\GB_LB_3.xlsx
505	main_unc	True	0.0	311	0	10.0	10.0	0	1	left	2.0	1.0	1.0	0	-0.041006271839099995	blockFiles/set_49/main_unc/leftBlue\GB_LB_3.xlsx
506	main_unc	True	0.0	311	0	10.0	10.0	0	1	left	2.0	1.0	1.0	0	-0.0178774572164	blockFiles/set_49/main_unc/leftBlue\GB_LB_3.xlsx
507	main_unc	True	0.0	311	0	10.0	10.0	0	1	left	2.0	1.0	1.0	0	-0.0620988816023	blockFiles/set_49/main_unc/leftBlue\GB_LB_3.xlsx
508	main_unc	True	0.0	311	0	10.0	10.0	0	1	left	2.0	1.0	1.0	0	-0.0521407088265	blockFiles/set_49/main_unc/leftBlue\GB_LB_3.xlsx
509	main_unc	True	0.0	311	0	10.0	10.0	0	1	left	2.0	1.0	1.0	0	-0.0232040880248	blockFiles/set_49/main_unc/leftBlue\GB_LB_3.xlsx
510	main_unc	True	0.0	311	0	10.0	10.0	1	1	right	1.0	1.0	1.0	1	0.07632005346939999	blockFiles/set_49/main_unc/leftBlue\GB_LB_3.xlsx
511	main_unc	True	0.0	311	0	10.0	10.0	1	1	right	1.0	1.0	1.0	1	0.0391347107664	blockFiles/set_49/main_unc/leftBlue\GB_LB_3.xlsx
512	main_unc	True	0.0	311	0	10.0	10.0	0	1	left	2.0	0.0	1.0	0	-0.0102918024361	blockFiles/set_49/main_unc/leftBlue\GB_LB_3.xlsx
513	main_unc	True	0.0	311	0	10.0	10.0	1	1	right	1.0	1.0	1.0	1	0.058056710213400003	blockFiles/set_49/main_unc/leftBlue\GB_LB_3.xlsx
514	main_unc	True	0.0	311	0	10.0	10.0	0	0	left	1.0	1.0	1.0	1	0.022406749427299998	blockFiles/set_49/main_unc/leftBlue\GB_LB_3.xlsx
515	main_unc	True	0.0	311	0	10.0	10.0	0	1	left	2.0	0.0	1.0	0	-0.022774816248599998	blockFiles/set_49/main_unc/leftBlue\GB_LB_3.xlsx
516	main_unc	True	0.0	311	0	10.0	10.0	1	1	right	1.0	1.0	1.0	1	0.07042788000780001	blockFiles/set_49/main_unc/leftBlue\GB_LB_3.xlsx
517	main_unc	True	0.0	311	0	10.0	10.0	0	0	left	1.0	1.0	1.0	1	0.0254107200727	blockFiles/set_49/main_unc/leftBlue\GB_LB_3.xlsx
518	main_unc	True	0.0	311	0	10.0	10.0	0	1	left	2.0	0.0	1.0	0	-0.0607641652972	blockFiles/set_49/main_unc/leftBlue\GB_LB_3.xlsx
519	main_unc	True	0.0	311	0	10.0	10.0	0	1	left	2.0	1.0	1.0	0	-0.0341561625898	blockFiles/set_49/main_unc/leftBlue\GB_LB_3.xlsx
520	main_unc	True	0.0	311	0	10.0	10.0	1	1	right	1.0	1.0	1.0	1	0.0172461455315	blockFiles/set_49/main_unc/leftBlue\GB_LB_3.xlsx
521	main_unc	True	0.0	311	0	10.0	10.0	0	1	left	2.0	1.0	1.0	0	-0.0643171769381	blockFiles/set_49/main_unc/leftBlue\GB_LB_3.xlsx
522	main_unc	True	0.0	311	0	10.0	10.0	0	0	left	1.0	1.0	1.0	1	0.026959500610799998	blockFiles/set_49/main_unc/leftBlue\GB_LB_3.xlsx
523	main_unc	True	0.0	311	0	10.0	10.0	0	1	left	2.0	1.0	1.0	0	-0.0669383562542	blockFiles/set_49/main_unc/leftBlue\GB_LB_3.xlsx
524	main_unc	True	0.0	311	0	10.0	10.0	0	1	left	2.0	0.0	1.0	0	-0.0356764089689	blockFiles/set_49/main_unc/leftBlue\GB_LB_3.xlsx
525	main_unc	True	0.0	311	0	10.0	10.0	1	1	right	1.0	0.0	1.0	1	0.060920147579199994	blockFiles/set_49/main_unc/leftBlue\GB_LB_3.xlsx
526	main_unc	True	0.0	311	0	10.0	10.0	0	0	left	2.0	0.0	0.0	1	0.0147671720572	blockFiles/set_49/main_unc/leftBlue\GB_LB_3.xlsx
527	main_unc	True	0.0	311	0	10.0	10.0	0	0	left	2.0	0.0	0.0	1	0.019398486279	blockFiles/set_49/main_unc/leftBlue\GB_LB_3.xlsx
528	main_unc	True	0.0	311	0	10.0	10.0	0	1	left	2.0	0.0	1.0	0	-0.000983926951885	blockFiles/set_49/main_unc/leftBlue\GB_LB_3.xlsx
529	main_unc	True	0.0	311	0	11.0	11.0	1	1	right	2.0	1.0	1.0	1	0.04325856488199999	blockFiles/set_49/main_unc/rightBlue\GB_RB_1.xlsx
530	main_unc	True	0.0	311	0	11.0	11.0	0	1	left	1.0	1.0	1.0	0	-0.0758538786136	blockFiles/set_49/main_unc/rightBlue\GB_RB_1.xlsx
531	main_unc	True	0.0	311	0	11.0	11.0	0	1	left	1.0	0.0	1.0	0	-0.0598971054889	blockFiles/set_49/main_unc/rightBlue\GB_RB_1.xlsx
532	main_unc	True	0.0	311	0	11.0	11.0	1	1	right	2.0	0.0	1.0	1	0.03477923713619999	blockFiles/set_49/main_unc/rightBlue\GB_RB_1.xlsx
533	main_unc	True	0.0	311	0	11.0	11.0	1	0	right	1.0	1.0	1.0	0	-0.0184262239002	blockFiles/set_49/main_unc/rightBlue\GB_RB_1.xlsx
534	main_unc	True	0.0	311	0	11.0	11.0	0	1	left	2.0	0.0	0.0	0	-0.013630220517500001	blockFiles/set_49/main_unc/rightBlue\GB_RB_1.xlsx
535	main_unc	True	0.0	311	0	11.0	11.0	1	1	right	2.0	1.0	1.0	1	0.0770359171554	blockFiles/set_49/main_unc/rightBlue\GB_RB_1.xlsx
536	main_unc	True	0.0	311	0	11.0	11.0	1	1	right	2.0	1.0	1.0	1	0.022358564883500003	blockFiles/set_49/main_unc/rightBlue\GB_RB_1.xlsx
537	main_unc	True	0.0	311	0	11.0	11.0	1	1	right	2.0	1.0	1.0	1	0.043405810762199994	blockFiles/set_49/main_unc/rightBlue\GB_RB_1.xlsx
538	main_unc	True	0.0	311	0	11.0	11.0	0	1	left	1.0	1.0	1.0	0	-0.0409158617631	blockFiles/set_49/main_unc/rightBlue\GB_RB_1.xlsx
539	main_unc	True	0.0	311	0	11.0	11.0	0	1	left	1.0	1.0	1.0	0	-0.0780433456041	blockFiles/set_49/main_unc/rightBlue\GB_RB_1.xlsx
540	main_unc	True	0.0	311	0	11.0	11.0	0	1	left	1.0	0.0	1.0	0	-0.0143370440789	blockFiles/set_49/main_unc/rightBlue\GB_RB_1.xlsx
541	main_unc	True	0.0	311	0	11.0	11.0	1	0	right	2.0	0.0	0.0	0	-0.00271286770701	blockFiles/set_49/main_unc/rightBlue\GB_RB_1.xlsx
542	main_unc	True	0.0	311	0	11.0	11.0	0	0	left	1.0	1.0	0.0	1	0.0298160670511	blockFiles/set_49/main_unc/rightBlue\GB_RB_1.xlsx
543	main_unc	True	0.0	311	0	11.0	11.0	1	1	right	2.0	1.0	1.0	1	0.0507065892965	blockFiles/set_49/main_unc/rightBlue\GB_RB_1.xlsx
544	main_unc	True	0.0	311	0	11.0	11.0	1	1	right	2.0	1.0	1.0	1	0.0636041393317	blockFiles/set_49/main_unc/rightBlue\GB_RB_1.xlsx
545	main_unc	True	0.0	311	0	11.0	11.0	1	0	right	2.0	0.0	0.0	0	-0.00414153335616	blockFiles/set_49/main_unc/rightBlue\GB_RB_1.xlsx
546	main_unc	True	0.0	311	0	11.0	11.0	1	1	right	2.0	1.0	1.0	1	0.0338836210407	blockFiles/set_49/main_unc/rightBlue\GB_RB_1.xlsx
547	main_unc	True	0.0	311	0	11.0	11.0	1	1	right	2.0	1.0	1.0	1	0.0486610583775	blockFiles/set_49/main_unc/rightBlue\GB_RB_1.xlsx
548	main_unc	True	0.0	311	0	11.0	11.0	0	1	left	1.0	1.0	1.0	0	-0.0566968485154	blockFiles/set_49/main_unc/rightBlue\GB_RB_1.xlsx
549	main_unc	True	0.0	311	0	11.0	11.0	0	1	left	1.0	1.0	1.0	0	-0.0181652966142	blockFiles/set_49/main_unc/rightBlue\GB_RB_1.xlsx
550	main_unc	True	0.0	311	0	11.0	11.0	0	0	left	1.0	0.0	0.0	1	0.003611075636	blockFiles/set_49/main_unc/rightBlue\GB_RB_1.xlsx
551	main_unc	True	0.0	311	0	11.0	11.0	0	0	left	2.0	1.0	1.0	1	0.0775369321927	blockFiles/set_49/main_unc/rightBlue\GB_RB_1.xlsx
552	main_unc	True	0.0	311	0	11.0	11.0	0	1	left	1.0	1.0	1.0	0	-0.0222191769257	blockFiles/set_49/main_unc/rightBlue\GB_RB_1.xlsx
553	main_unc	True	0.0	311	0	11.0	11.0	0	0	left	1.0	1.0	0.0	1	0.028491202406599997	blockFiles/set_49/main_unc/rightBlue\GB_RB_1.xlsx
