	trial_type	complete	missIndex	participant	id	blockNumber	b_t	d_t	decision1.corr	decision1.keys	a_t	r_t	decision2.corr	s_t	u_t	block_file
0	main_safe	True	0.0	483	0	0.0	0.0	0.0	1	left	2.0	0.0	1.0	0	-0.08	blockFiles/set_45/main_safe/leftBlue\GB_LB_2.xlsx
1	main_safe	True	0.0	483	0	0.0	0.0	1.0	1	right	1.0	0.0	1.0	1	0.08	blockFiles/set_45/main_safe/leftBlue\GB_LB_2.xlsx
2	main_safe	True	0.0	483	0	0.0	0.0	1.0	1	right	1.0	1.0	1.0	1	0.08	blockFiles/set_45/main_safe/leftBlue\GB_LB_2.xlsx
3	main_safe	True	0.0	483	0	0.0	0.0	0.0	1	left	2.0	1.0	1.0	0	-0.08	blockFiles/set_45/main_safe/leftBlue\GB_LB_2.xlsx
4	main_safe	True	0.0	483	0	0.0	0.0	1.0	1	right	1.0	1.0	1.0	1	0.08	blockFiles/set_45/main_safe/leftBlue\GB_LB_2.xlsx
5	main_safe	True	0.0	483	0	0.0	0.0	0.0	1	left	2.0	1.0	1.0	0	-0.08	blockFiles/set_45/main_safe/leftBlue\GB_LB_2.xlsx
6	main_safe	True	0.0	483	0	0.0	0.0	1.0	1	right	1.0	0.0	1.0	1	0.08	blockFiles/set_45/main_safe/leftBlue\GB_LB_2.xlsx
7	main_safe	True	0.0	483	0	0.0	0.0	0.0	1	left	2.0	1.0	1.0	0	-0.08	blockFiles/set_45/main_safe/leftBlue\GB_LB_2.xlsx
8	main_safe	True	0.0	483	0	0.0	0.0	1.0	1	right	1.0	1.0	1.0	1	0.08	blockFiles/set_45/main_safe/leftBlue\GB_LB_2.xlsx
9	main_safe	True	0.0	483	0	0.0	0.0	0.0	1	left	2.0	1.0	1.0	0	-0.08	blockFiles/set_45/main_safe/leftBlue\GB_LB_2.xlsx
10	main_safe	True	0.0	483	0	0.0	0.0	1.0	1	right	1.0	1.0	1.0	1	0.08	blockFiles/set_45/main_safe/leftBlue\GB_LB_2.xlsx
11	main_safe	True	0.0	483	0	0.0	0.0	1.0	1	right	1.0	1.0	1.0	1	0.08	blockFiles/set_45/main_safe/leftBlue\GB_LB_2.xlsx
12	main_safe	True	0.0	483	0	0.0	0.0	1.0	1	right	1.0	1.0	1.0	1	0.08	blockFiles/set_45/main_safe/leftBlue\GB_LB_2.xlsx
13	main_safe	True	0.0	483	0	0.0	0.0	0.0	1	left	2.0	1.0	1.0	0	-0.08	blockFiles/set_45/main_safe/leftBlue\GB_LB_2.xlsx
14	main_safe	True	0.0	483	0	0.0	0.0	0.0	1	left	1.0	1.0	0.0	0	-0.08	blockFiles/set_45/main_safe/leftBlue\GB_LB_2.xlsx
15	main_safe	True	0.0	483	0	0.0	0.0	0.0	1	left	1.0	0.0	0.0	0	-0.08	blockFiles/set_45/main_safe/leftBlue\GB_LB_2.xlsx
16	main_safe	True	0.0	483	0	0.0	0.0	0.0	1	left	2.0	0.0	1.0	0	-0.08	blockFiles/set_45/main_safe/leftBlue\GB_LB_2.xlsx
17	main_safe	True	0.0	483	0	0.0	0.0	0.0	1	left	1.0	0.0	0.0	0	-0.08	blockFiles/set_45/main_safe/leftBlue\GB_LB_2.xlsx
18	main_safe	True	0.0	483	0	0.0	0.0	1.0	1	right	1.0	1.0	1.0	1	0.08	blockFiles/set_45/main_safe/leftBlue\GB_LB_2.xlsx
19	main_safe	True	0.0	483	0	0.0	0.0	0.0	1	left	2.0	1.0	1.0	0	-0.08	blockFiles/set_45/main_safe/leftBlue\GB_LB_2.xlsx
20	main_safe	True	0.0	483	0	0.0	0.0	1.0	1	right	1.0	1.0	1.0	1	0.08	blockFiles/set_45/main_safe/leftBlue\GB_LB_2.xlsx
21	main_safe	True	0.0	483	0	0.0	0.0	1.0	1	right	1.0	1.0	1.0	1	0.08	blockFiles/set_45/main_safe/leftBlue\GB_LB_2.xlsx
22	main_safe	True	0.0	483	0	0.0	0.0	0.0	1	left	2.0	1.0	1.0	0	-0.08	blockFiles/set_45/main_safe/leftBlue\GB_LB_2.xlsx
23	main_safe	True	0.0	483	0	0.0	0.0	0.0	1	left	2.0	1.0	1.0	0	-0.08	blockFiles/set_45/main_safe/leftBlue\GB_LB_2.xlsx
24	main_safe	True	0.0	483	0	0.0	0.0	0.0	1	left	2.0	1.0	1.0	0	-0.08	blockFiles/set_45/main_safe/leftBlue\GB_LB_2.xlsx
25	main_safe	True	0.0	483	0	1.0	1.0	1.0	1	right	1.0	0.0	0.0	1	0.08	blockFiles/set_45/main_safe/rightBlue\GB_RB_2.xlsx
26	main_safe	True	0.0	483	0	1.0	1.0	1.0	1	right	2.0	1.0	1.0	1	0.08	blockFiles/set_45/main_safe/rightBlue\GB_RB_2.xlsx
27	main_safe	True	0.0	483	0	1.0	1.0	0.0	1	left	1.0	1.0	1.0	0	-0.08	blockFiles/set_45/main_safe/rightBlue\GB_RB_2.xlsx
28	main_safe	True	0.0	483	0	1.0	1.0	0.0	1	left	1.0	1.0	1.0	0	-0.08	blockFiles/set_45/main_safe/rightBlue\GB_RB_2.xlsx
29	main_safe	True	0.0	483	0	1.0	1.0	1.0	1	right	2.0	0.0	1.0	1	0.08	blockFiles/set_45/main_safe/rightBlue\GB_RB_2.xlsx
30	main_safe	True	0.0	483	0	1.0	1.0	1.0	1	right	2.0	1.0	1.0	1	0.08	blockFiles/set_45/main_safe/rightBlue\GB_RB_2.xlsx
31	main_safe	True	0.0	483	0	1.0	1.0	1.0	1	right	2.0	1.0	1.0	1	0.08	blockFiles/set_45/main_safe/rightBlue\GB_RB_2.xlsx
32	main_safe	True	0.0	483	0	1.0	1.0	0.0	1	left	1.0	1.0	1.0	0	-0.08	blockFiles/set_45/main_safe/rightBlue\GB_RB_2.xlsx
33	main_safe	True	0.0	483	0	1.0	1.0	1.0	1	right	2.0	1.0	1.0	1	0.08	blockFiles/set_45/main_safe/rightBlue\GB_RB_2.xlsx
34	main_safe	True	0.0	483	0	1.0	1.0	0.0	1	left	1.0	1.0	1.0	0	-0.08	blockFiles/set_45/main_safe/rightBlue\GB_RB_2.xlsx
35	main_safe	True	0.0	483	0	1.0	1.0	1.0	1	right	2.0	1.0	1.0	1	0.08	blockFiles/set_45/main_safe/rightBlue\GB_RB_2.xlsx
36	main_safe	True	0.0	483	0	1.0	1.0	1.0	1	right	2.0	1.0	1.0	1	0.08	blockFiles/set_45/main_safe/rightBlue\GB_RB_2.xlsx
37	main_safe	True	0.0	483	0	1.0	1.0	1.0	1	right	1.0	1.0	0.0	1	0.08	blockFiles/set_45/main_safe/rightBlue\GB_RB_2.xlsx
38	main_safe	True	0.0	483	0	1.0	1.0	1.0	1	right	1.0	0.0	0.0	1	0.08	blockFiles/set_45/main_safe/rightBlue\GB_RB_2.xlsx
39	main_safe	True	0.0	483	0	1.0	1.0	0.0	1	left	1.0	1.0	1.0	0	-0.08	blockFiles/set_45/main_safe/rightBlue\GB_RB_2.xlsx
40	main_safe	True	0.0	483	0	1.0	1.0	1.0	1	right	2.0	0.0	1.0	1	0.08	blockFiles/set_45/main_safe/rightBlue\GB_RB_2.xlsx
41	main_safe	True	0.0	483	0	1.0	1.0	0.0	1	left	1.0	1.0	1.0	0	-0.08	blockFiles/set_45/main_safe/rightBlue\GB_RB_2.xlsx
42	main_safe	True	0.0	483	0	1.0	1.0	0.0	1	left	1.0	0.0	1.0	0	-0.08	blockFiles/set_45/main_safe/rightBlue\GB_RB_2.xlsx
43	main_safe	True	0.0	483	0	1.0	1.0	0.0	1	left	1.0	0.0	1.0	0	-0.08	blockFiles/set_45/main_safe/rightBlue\GB_RB_2.xlsx
44	main_safe	True	0.0	483	0	1.0	1.0	1.0	1	right	1.0	0.0	0.0	1	0.08	blockFiles/set_45/main_safe/rightBlue\GB_RB_2.xlsx
45	main_safe	True	0.0	483	0	1.0	1.0	0.0	1	left	1.0	0.0	1.0	0	-0.08	blockFiles/set_45/main_safe/rightBlue\GB_RB_2.xlsx
46	main_safe	True	0.0	483	0	1.0	1.0	0.0	1	left	2.0	0.0	0.0	0	-0.08	blockFiles/set_45/main_safe/rightBlue\GB_RB_2.xlsx
47	main_safe	True	0.0	483	0	1.0	1.0	0.0	1	left	1.0	1.0	1.0	0	-0.08	blockFiles/set_45/main_safe/rightBlue\GB_RB_2.xlsx
48	main_safe	True	0.0	483	0	1.0	1.0	1.0	1	right	2.0	1.0	1.0	1	0.08	blockFiles/set_45/main_safe/rightBlue\GB_RB_2.xlsx
49	main_safe	True	0.0	483	0	1.0	1.0	0.0	1	left	1.0	1.0	1.0	0	-0.08	blockFiles/set_45/main_safe/rightBlue\GB_RB_2.xlsx
50	main_safe	True	0.0	483	0	2.0	2.0	1.0	1	right	2.0	1.0	1.0	1	0.08	blockFiles/set_45/main_safe/rightBlue\GB_RB_3.xlsx
51	main_safe	True	0.0	483	0	2.0	2.0	0.0	1	left	1.0	1.0	1.0	0	-0.08	blockFiles/set_45/main_safe/rightBlue\GB_RB_3.xlsx
52	main_safe	True	0.0	483	0	2.0	2.0	0.0	1	left	1.0	0.0	1.0	0	-0.08	blockFiles/set_45/main_safe/rightBlue\GB_RB_3.xlsx
53	main_safe	True	0.0	483	0	2.0	2.0	1.0	1	right	2.0	0.0	1.0	1	0.08	blockFiles/set_45/main_safe/rightBlue\GB_RB_3.xlsx
54	main_safe	True	0.0	483	0	2.0	2.0	0.0	1	left	1.0	1.0	1.0	0	-0.08	blockFiles/set_45/main_safe/rightBlue\GB_RB_3.xlsx
55	main_safe	True	0.0	483	0	2.0	2.0	1.0	1	right	2.0	1.0	1.0	1	0.08	blockFiles/set_45/main_safe/rightBlue\GB_RB_3.xlsx
56	main_safe	True	0.0	483	0	2.0	2.0	0.0	1	left	1.0	1.0	1.0	0	-0.08	blockFiles/set_45/main_safe/rightBlue\GB_RB_3.xlsx
57	main_safe	True	0.0	483	0	2.0	2.0	0.0	1	left	1.0	1.0	1.0	0	-0.08	blockFiles/set_45/main_safe/rightBlue\GB_RB_3.xlsx
58	main_safe	True	0.0	483	0	2.0	2.0	1.0	1	right	2.0	1.0	1.0	1	0.08	blockFiles/set_45/main_safe/rightBlue\GB_RB_3.xlsx
59	main_safe	True	0.0	483	0	2.0	2.0	0.0	1	left	1.0	0.0	1.0	0	-0.08	blockFiles/set_45/main_safe/rightBlue\GB_RB_3.xlsx
60	main_safe	True	0.0	483	0	2.0	2.0	0.0	1	left	1.0	1.0	1.0	0	-0.08	blockFiles/set_45/main_safe/rightBlue\GB_RB_3.xlsx
61	main_safe	True	0.0	483	0	2.0	2.0	0.0	1	left	1.0	1.0	1.0	0	-0.08	blockFiles/set_45/main_safe/rightBlue\GB_RB_3.xlsx
62	main_safe	True	0.0	483	0	2.0	2.0	1.0	1	right	2.0	1.0	1.0	1	0.08	blockFiles/set_45/main_safe/rightBlue\GB_RB_3.xlsx
63	main_safe	True	0.0	483	0	2.0	2.0	1.0	1	right	2.0	1.0	1.0	1	0.08	blockFiles/set_45/main_safe/rightBlue\GB_RB_3.xlsx
64	main_safe	True	0.0	483	0	2.0	2.0	1.0	1	right	2.0	0.0	1.0	1	0.08	blockFiles/set_45/main_safe/rightBlue\GB_RB_3.xlsx
65	main_safe	True	0.0	483	0	2.0	2.0	1.0	1	right	2.0	1.0	1.0	1	0.08	blockFiles/set_45/main_safe/rightBlue\GB_RB_3.xlsx
66	main_safe	True	0.0	483	0	2.0	2.0	1.0	1	right	2.0	1.0	1.0	1	0.08	blockFiles/set_45/main_safe/rightBlue\GB_RB_3.xlsx
67	main_safe	True	0.0	483	0	2.0	2.0	0.0	1	left	1.0	1.0	1.0	0	-0.08	blockFiles/set_45/main_safe/rightBlue\GB_RB_3.xlsx
68	main_safe	True	0.0	483	0	2.0	2.0	0.0	1	left	1.0	1.0	1.0	0	-0.08	blockFiles/set_45/main_safe/rightBlue\GB_RB_3.xlsx
69	main_safe	True	0.0	483	0	2.0	2.0	1.0	1	right	2.0	1.0	1.0	1	0.08	blockFiles/set_45/main_safe/rightBlue\GB_RB_3.xlsx
70	main_safe	True	0.0	483	0	2.0	2.0	0.0	1	left	1.0	1.0	1.0	0	-0.08	blockFiles/set_45/main_safe/rightBlue\GB_RB_3.xlsx
71	main_safe	True	0.0	483	0	2.0	2.0	1.0	1	right	2.0	1.0	1.0	1	0.08	blockFiles/set_45/main_safe/rightBlue\GB_RB_3.xlsx
72	main_safe	True	0.0	483	0	2.0	2.0	1.0	1	right	2.0	1.0	1.0	1	0.08	blockFiles/set_45/main_safe/rightBlue\GB_RB_3.xlsx
73	main_safe	True	0.0	483	0	2.0	2.0	0.0	1	left	1.0	0.0	1.0	0	-0.08	blockFiles/set_45/main_safe/rightBlue\GB_RB_3.xlsx
74	main_safe	True	0.0	483	0	2.0	2.0	0.0	1	left	1.0	1.0	1.0	0	-0.08	blockFiles/set_45/main_safe/rightBlue\GB_RB_3.xlsx
75	main_safe	True	0.0	483	0	3.0	3.0	0.0	1	left	2.0	0.0	0.0	0	-0.08	blockFiles/set_45/main_safe/rightBlue\GB_RB_1.xlsx
76	main_safe	True	0.0	483	0	3.0	3.0	0.0	1	left	1.0	1.0	1.0	0	-0.08	blockFiles/set_45/main_safe/rightBlue\GB_RB_1.xlsx
77	main_safe	True	0.0	483	0	3.0	3.0	0.0	1	left	1.0	0.0	1.0	0	-0.08	blockFiles/set_45/main_safe/rightBlue\GB_RB_1.xlsx
78	main_safe	True	0.0	483	0	3.0	3.0	0.0	1	left	1.0	0.0	1.0	0	-0.08	blockFiles/set_45/main_safe/rightBlue\GB_RB_1.xlsx
79	main_safe	True	0.0	483	0	3.0	3.0	1.0	1	right	1.0	0.0	0.0	1	0.08	blockFiles/set_45/main_safe/rightBlue\GB_RB_1.xlsx
80	main_safe	True	0.0	483	0	3.0	3.0	0.0	1	left	2.0	0.0	0.0	0	-0.08	blockFiles/set_45/main_safe/rightBlue\GB_RB_1.xlsx
81	main_safe	True	0.0	483	0	3.0	3.0	0.0	1	left	2.0	0.0	0.0	0	-0.08	blockFiles/set_45/main_safe/rightBlue\GB_RB_1.xlsx
82	main_safe	True	0.0	483	0	3.0	3.0	0.0	1	left	1.0	1.0	1.0	0	-0.08	blockFiles/set_45/main_safe/rightBlue\GB_RB_1.xlsx
83	main_safe	True	0.0	483	0	3.0	3.0	1.0	1	right	2.0	1.0	1.0	1	0.08	blockFiles/set_45/main_safe/rightBlue\GB_RB_1.xlsx
84	main_safe	True	0.0	483	0	3.0	3.0	1.0	1	right	2.0	1.0	1.0	1	0.08	blockFiles/set_45/main_safe/rightBlue\GB_RB_1.xlsx
85	main_safe	True	0.0	483	0	3.0	3.0	0.0	1	left	1.0	0.0	1.0	0	-0.08	blockFiles/set_45/main_safe/rightBlue\GB_RB_1.xlsx
86	main_safe	True	0.0	483	0	3.0	3.0	1.0	1	right	2.0	1.0	1.0	1	0.08	blockFiles/set_45/main_safe/rightBlue\GB_RB_1.xlsx
87	main_safe	True	0.0	483	0	3.0	3.0	1.0	1	right	2.0	1.0	1.0	1	0.08	blockFiles/set_45/main_safe/rightBlue\GB_RB_1.xlsx
88	main_safe	True	0.0	483	0	3.0	3.0	0.0	1	left	1.0	1.0	1.0	0	-0.08	blockFiles/set_45/main_safe/rightBlue\GB_RB_1.xlsx
89	main_safe	True	0.0	483	0	3.0	3.0	0.0	1	left	1.0	1.0	1.0	0	-0.08	blockFiles/set_45/main_safe/rightBlue\GB_RB_1.xlsx
90	main_safe	True	0.0	483	0	3.0	3.0	1.0	1	right	2.0	1.0	1.0	1	0.08	blockFiles/set_45/main_safe/rightBlue\GB_RB_1.xlsx
91	main_safe	True	0.0	483	0	3.0	3.0	1.0	1	right	2.0	1.0	1.0	1	0.08	blockFiles/set_45/main_safe/rightBlue\GB_RB_1.xlsx
92	main_safe	True	0.0	483	0	3.0	3.0	1.0	1	right	2.0	1.0	1.0	1	0.08	blockFiles/set_45/main_safe/rightBlue\GB_RB_1.xlsx
93	main_safe	True	0.0	483	0	3.0	3.0	1.0	1	right	2.0	1.0	1.0	1	0.08	blockFiles/set_45/main_safe/rightBlue\GB_RB_1.xlsx
94	main_safe	True	0.0	483	0	3.0	3.0	1.0	1	right	2.0	0.0	1.0	1	0.08	blockFiles/set_45/main_safe/rightBlue\GB_RB_1.xlsx
95	main_safe	True	0.0	483	0	3.0	3.0	0.0	1	left	1.0	1.0	1.0	0	-0.08	blockFiles/set_45/main_safe/rightBlue\GB_RB_1.xlsx
96	main_safe	True	0.0	483	0	3.0	3.0	1.0	1	right	2.0	1.0	1.0	1	0.08	blockFiles/set_45/main_safe/rightBlue\GB_RB_1.xlsx
97	main_safe	True	0.0	483	0	3.0	3.0	1.0	1	right	2.0	1.0	1.0	1	0.08	blockFiles/set_45/main_safe/rightBlue\GB_RB_1.xlsx
98	main_safe	True	0.0	483	0	3.0	3.0	1.0	1	right	2.0	1.0	1.0	1	0.08	blockFiles/set_45/main_safe/rightBlue\GB_RB_1.xlsx
99	main_safe	True	0.0	483	0	3.0	3.0	0.0	1	left	1.0	0.0	1.0	0	-0.08	blockFiles/set_45/main_safe/rightBlue\GB_RB_1.xlsx
100	main_safe	True	0.0	483	0	4.0	4.0	1.0	1	right	1.0	1.0	1.0	1	0.08	blockFiles/set_45/main_safe/leftBlue\GB_LB_3.xlsx
101	main_safe	True	0.0	483	0	4.0	4.0	0.0	1	left	2.0	1.0	1.0	0	-0.08	blockFiles/set_45/main_safe/leftBlue\GB_LB_3.xlsx
102	main_safe	True	0.0	483	0	4.0	4.0	1.0	1	right	1.0	1.0	1.0	1	0.08	blockFiles/set_45/main_safe/leftBlue\GB_LB_3.xlsx
103	main_safe	True	0.0	483	0	4.0	4.0	1.0	1	right	2.0	0.0	0.0	1	0.08	blockFiles/set_45/main_safe/leftBlue\GB_LB_3.xlsx
104	main_safe	True	0.0	483	0	4.0	4.0	0.0	1	left	2.0	1.0	1.0	0	-0.08	blockFiles/set_45/main_safe/leftBlue\GB_LB_3.xlsx
105	main_safe	True	0.0	483	0	4.0	4.0	1.0	1	right	1.0	1.0	1.0	1	0.08	blockFiles/set_45/main_safe/leftBlue\GB_LB_3.xlsx
106	main_safe	True	0.0	483	0	4.0	4.0	1.0	1	right	1.0	0.0	1.0	1	0.08	blockFiles/set_45/main_safe/leftBlue\GB_LB_3.xlsx
107	main_safe	True	0.0	483	0	4.0	4.0	0.0	1	left	2.0	0.0	1.0	0	-0.08	blockFiles/set_45/main_safe/leftBlue\GB_LB_3.xlsx
108	main_safe	True	0.0	483	0	4.0	4.0	1.0	1	right	1.0	1.0	1.0	1	0.08	blockFiles/set_45/main_safe/leftBlue\GB_LB_3.xlsx
109	main_safe	True	0.0	483	0	4.0	4.0	1.0	1	right	1.0	1.0	1.0	1	0.08	blockFiles/set_45/main_safe/leftBlue\GB_LB_3.xlsx
110	main_safe	True	0.0	483	0	4.0	4.0	0.0	1	left	2.0	0.0	1.0	0	-0.08	blockFiles/set_45/main_safe/leftBlue\GB_LB_3.xlsx
111	main_safe	True	0.0	483	0	4.0	4.0	0.0	1	left	2.0	1.0	1.0	0	-0.08	blockFiles/set_45/main_safe/leftBlue\GB_LB_3.xlsx
112	main_safe	True	0.0	483	0	4.0	4.0	0.0	1	left	2.0	1.0	1.0	0	-0.08	blockFiles/set_45/main_safe/leftBlue\GB_LB_3.xlsx
113	main_safe	True	0.0	483	0	4.0	4.0	1.0	1	right	1.0	1.0	1.0	1	0.08	blockFiles/set_45/main_safe/leftBlue\GB_LB_3.xlsx
114	main_safe	True	0.0	483	0	4.0	4.0	1.0	1	right	1.0	1.0	1.0	1	0.08	blockFiles/set_45/main_safe/leftBlue\GB_LB_3.xlsx
115	main_safe	True	0.0	483	0	4.0	4.0	0.0	1	left	2.0	1.0	1.0	0	-0.08	blockFiles/set_45/main_safe/leftBlue\GB_LB_3.xlsx
116	main_safe	True	0.0	483	0	4.0	4.0	1.0	1	right	1.0	1.0	1.0	1	0.08	blockFiles/set_45/main_safe/leftBlue\GB_LB_3.xlsx
117	main_safe	True	0.0	483	0	4.0	4.0	1.0	1	right	1.0	1.0	1.0	1	0.08	blockFiles/set_45/main_safe/leftBlue\GB_LB_3.xlsx
118	main_safe	True	0.0	483	0	4.0	4.0	0.0	1	left	2.0	0.0	1.0	0	-0.08	blockFiles/set_45/main_safe/leftBlue\GB_LB_3.xlsx
119	main_safe	True	0.0	483	0	4.0	4.0	1.0	1	right	1.0	1.0	1.0	1	0.08	blockFiles/set_45/main_safe/leftBlue\GB_LB_3.xlsx
120	main_safe	True	0.0	483	0	4.0	4.0	0.0	1	left	2.0	1.0	1.0	0	-0.08	blockFiles/set_45/main_safe/leftBlue\GB_LB_3.xlsx
121	main_safe	True	0.0	483	0	4.0	4.0	0.0	1	left	2.0	1.0	1.0	0	-0.08	blockFiles/set_45/main_safe/leftBlue\GB_LB_3.xlsx
122	main_safe	True	0.0	483	0	4.0	4.0	0.0	1	left	2.0	0.0	1.0	0	-0.08	blockFiles/set_45/main_safe/leftBlue\GB_LB_3.xlsx
123	main_safe	True	0.0	483	0	4.0	4.0	1.0	1	right	1.0	1.0	1.0	1	0.08	blockFiles/set_45/main_safe/leftBlue\GB_LB_3.xlsx
124	main_safe	True	0.0	483	0	4.0	4.0	0.0	1	left	2.0	1.0	1.0	0	-0.08	blockFiles/set_45/main_safe/leftBlue\GB_LB_3.xlsx
125	main_safe	True	0.0	483	0	5.0	5.0	1.0	1	right	2.0	0.0	0.0	1	0.08	blockFiles/set_45/main_safe/leftBlue\GB_LB_1.xlsx
126	main_safe	True	0.0	483	0	5.0	5.0	0.0	1	left	2.0	0.0	1.0	0	-0.08	blockFiles/set_45/main_safe/leftBlue\GB_LB_1.xlsx
127	main_safe	True	0.0	483	0	5.0	5.0	0.0	1	left	1.0	0.0	0.0	0	-0.08	blockFiles/set_45/main_safe/leftBlue\GB_LB_1.xlsx
128	main_safe	True	0.0	483	0	5.0	5.0	0.0	1	left	2.0	1.0	1.0	0	-0.08	blockFiles/set_45/main_safe/leftBlue\GB_LB_1.xlsx
129	main_safe	True	0.0	483	0	5.0	5.0	1.0	1	right	1.0	1.0	1.0	1	0.08	blockFiles/set_45/main_safe/leftBlue\GB_LB_1.xlsx
130	main_safe	True	0.0	483	0	5.0	5.0	1.0	1	right	1.0	1.0	1.0	1	0.08	blockFiles/set_45/main_safe/leftBlue\GB_LB_1.xlsx
131	main_safe	True	0.0	483	0	5.0	5.0	1.0	1	right	1.0	1.0	1.0	1	0.08	blockFiles/set_45/main_safe/leftBlue\GB_LB_1.xlsx
132	main_safe	True	0.0	483	0	5.0	5.0	1.0	1	right	1.0	1.0	1.0	1	0.08	blockFiles/set_45/main_safe/leftBlue\GB_LB_1.xlsx
133	main_safe	True	0.0	483	0	5.0	5.0	1.0	1	right	1.0	1.0	1.0	1	0.08	blockFiles/set_45/main_safe/leftBlue\GB_LB_1.xlsx
134	main_safe	True	0.0	483	0	5.0	5.0	0.0	1	left	2.0	1.0	1.0	0	-0.08	blockFiles/set_45/main_safe/leftBlue\GB_LB_1.xlsx
135	main_safe	True	0.0	483	0	5.0	5.0	0.0	1	left	2.0	1.0	1.0	0	-0.08	blockFiles/set_45/main_safe/leftBlue\GB_LB_1.xlsx
136	main_safe	True	0.0	483	0	5.0	5.0	0.0	1	left	2.0	1.0	1.0	0	-0.08	blockFiles/set_45/main_safe/leftBlue\GB_LB_1.xlsx
137	main_safe	True	0.0	483	0	5.0	5.0	1.0	1	right	1.0	1.0	1.0	1	0.08	blockFiles/set_45/main_safe/leftBlue\GB_LB_1.xlsx
138	main_safe	True	0.0	483	0	5.0	5.0	1.0	1	right	1.0	1.0	1.0	1	0.08	blockFiles/set_45/main_safe/leftBlue\GB_LB_1.xlsx
139	main_safe	True	0.0	483	0	5.0	5.0	0.0	1	left	2.0	1.0	1.0	0	-0.08	blockFiles/set_45/main_safe/leftBlue\GB_LB_1.xlsx
140	main_safe	True	0.0	483	0	5.0	5.0	1.0	1	right	1.0	0.0	1.0	1	0.08	blockFiles/set_45/main_safe/leftBlue\GB_LB_1.xlsx
141	main_safe	True	0.0	483	0	5.0	5.0	1.0	1	right	1.0	1.0	1.0	1	0.08	blockFiles/set_45/main_safe/leftBlue\GB_LB_1.xlsx
142	main_safe	True	0.0	483	0	5.0	5.0	1.0	1	right	1.0	1.0	1.0	1	0.08	blockFiles/set_45/main_safe/leftBlue\GB_LB_1.xlsx
143	main_safe	True	0.0	483	0	5.0	5.0	0.0	1	left	2.0	1.0	1.0	0	-0.08	blockFiles/set_45/main_safe/leftBlue\GB_LB_1.xlsx
144	main_safe	True	0.0	483	0	5.0	5.0	1.0	1	right	1.0	1.0	1.0	1	0.08	blockFiles/set_45/main_safe/leftBlue\GB_LB_1.xlsx
145	main_safe	True	0.0	483	0	5.0	5.0	0.0	1	left	2.0	1.0	1.0	0	-0.08	blockFiles/set_45/main_safe/leftBlue\GB_LB_1.xlsx
146	main_safe	True	0.0	483	0	5.0	5.0	0.0	1	left	2.0	1.0	1.0	0	-0.08	blockFiles/set_45/main_safe/leftBlue\GB_LB_1.xlsx
147	main_safe	True	0.0	483	0	5.0	5.0	1.0	1	right	1.0	1.0	1.0	1	0.08	blockFiles/set_45/main_safe/leftBlue\GB_LB_1.xlsx
148	main_safe	True	0.0	483	0	5.0	5.0	0.0	1	left	2.0	0.0	1.0	0	-0.08	blockFiles/set_45/main_safe/leftBlue\GB_LB_1.xlsx
149	main_safe	True	0.0	483	0	5.0	5.0	0.0	1	left	2.0	1.0	1.0	0	-0.08	blockFiles/set_45/main_safe/leftBlue\GB_LB_1.xlsx
150	patches	True	n/a	483	0	n/a	n/a	0.0	1	left	n/a	n/a	n/a	0	-0.0765192757733	blockFiles/set_45/main_PD/GB_runPatches1.xlsx
151	patches	True	n/a	483	0	n/a	n/a	1.0	0	right	n/a	n/a	n/a	0	-0.00813343461603	blockFiles/set_45/main_PD/GB_runPatches1.xlsx
152	patches	True	n/a	483	0	n/a	n/a	1.0	1	right	n/a	n/a	n/a	1	0.0651406151988	blockFiles/set_45/main_PD/GB_runPatches1.xlsx
153	patches	True	n/a	483	0	n/a	n/a	0.0	1	left	n/a	n/a	n/a	0	-0.0704368308	blockFiles/set_45/main_PD/GB_runPatches1.xlsx
154	patches	True	n/a	483	0	n/a	n/a	1.0	1	right	n/a	n/a	n/a	1	0.040364221073699996	blockFiles/set_45/main_PD/GB_runPatches1.xlsx
155	patches	True	n/a	483	0	n/a	n/a	0.0	1	left	n/a	n/a	n/a	0	-0.007209554165600001	blockFiles/set_45/main_PD/GB_runPatches1.xlsx
156	patches	True	n/a	483	0	n/a	n/a	1.0	1	right	n/a	n/a	n/a	1	0.026902974247900002	blockFiles/set_45/main_PD/GB_runPatches1.xlsx
157	patches	True	n/a	483	0	n/a	n/a	1.0	1	right	n/a	n/a	n/a	1	0.0051258473470799995	blockFiles/set_45/main_PD/GB_runPatches1.xlsx
158	patches	True	n/a	483	0	n/a	n/a	0.0	1	left	n/a	n/a	n/a	0	-0.041376915127	blockFiles/set_45/main_PD/GB_runPatches1.xlsx
159	patches	True	n/a	483	0	n/a	n/a	1.0	1	right	n/a	n/a	n/a	1	0.0740201382339	blockFiles/set_45/main_PD/GB_runPatches1.xlsx
160	patches	True	n/a	483	0	n/a	n/a	1.0	1	right	n/a	n/a	n/a	1	0.0254603872634	blockFiles/set_45/main_PD/GB_runPatches1.xlsx
161	patches	True	n/a	483	0	n/a	n/a	1.0	1	right	n/a	n/a	n/a	1	0.0784977703355	blockFiles/set_45/main_PD/GB_runPatches1.xlsx
162	patches	True	n/a	483	0	n/a	n/a	1.0	1	right	n/a	n/a	n/a	1	0.0327211311273	blockFiles/set_45/main_PD/GB_runPatches1.xlsx
163	patches	True	n/a	483	0	n/a	n/a	0.0	0	left	n/a	n/a	n/a	1	0.012894160132899998	blockFiles/set_45/main_PD/GB_runPatches1.xlsx
164	patches	True	n/a	483	0	n/a	n/a	1.0	1	right	n/a	n/a	n/a	1	0.046720023248300005	blockFiles/set_45/main_PD/GB_runPatches1.xlsx
165	patches	True	n/a	483	0	n/a	n/a	0.0	1	left	n/a	n/a	n/a	0	-0.0183974909969	blockFiles/set_45/main_PD/GB_runPatches1.xlsx
166	patches	True	n/a	483	0	n/a	n/a	1.0	1	right	n/a	n/a	n/a	1	0.046575774345500004	blockFiles/set_45/main_PD/GB_runPatches1.xlsx
167	patches	True	n/a	483	0	n/a	n/a	0.0	1	left	n/a	n/a	n/a	0	-0.042253021430199995	blockFiles/set_45/main_PD/GB_runPatches1.xlsx
168	patches	True	n/a	483	0	n/a	n/a	1.0	1	right	n/a	n/a	n/a	1	0.0636306018196	blockFiles/set_45/main_PD/GB_runPatches1.xlsx
169	patches	True	n/a	483	0	n/a	n/a	0.0	1	left	n/a	n/a	n/a	0	-0.0608164061233	blockFiles/set_45/main_PD/GB_runPatches1.xlsx
170	patches	True	n/a	483	0	n/a	n/a	0.0	1	left	n/a	n/a	n/a	0	-0.029394307658099996	blockFiles/set_45/main_PD/GB_runPatches1.xlsx
171	patches	True	n/a	483	0	n/a	n/a	1.0	1	right	n/a	n/a	n/a	1	0.019100523684200003	blockFiles/set_45/main_PD/GB_runPatches1.xlsx
172	patches	True	n/a	483	0	n/a	n/a	0.0	1	left	n/a	n/a	n/a	0	-0.0331141358428	blockFiles/set_45/main_PD/GB_runPatches1.xlsx
173	patches	True	n/a	483	0	n/a	n/a	0.0	1	left	n/a	n/a	n/a	0	-0.0269106764719	blockFiles/set_45/main_PD/GB_runPatches1.xlsx
174	patches	True	n/a	483	0	n/a	n/a	1.0	1	right	n/a	n/a	n/a	1	0.0564191345498	blockFiles/set_45/main_PD/GB_runPatches1.xlsx
175	patches	True	n/a	483	0	n/a	n/a	1.0	1	right	n/a	n/a	n/a	1	0.07877401063219999	blockFiles/set_45/main_PD/GB_runPatches1.xlsx
176	patches	True	n/a	483	0	n/a	n/a	0.0	0	left	n/a	n/a	n/a	1	0.00254760930315	blockFiles/set_45/main_PD/GB_runPatches1.xlsx
177	patches	True	n/a	483	0	n/a	n/a	1.0	1	right	n/a	n/a	n/a	1	0.0653675236925	blockFiles/set_45/main_PD/GB_runPatches1.xlsx
178	patches	True	n/a	483	0	n/a	n/a	1.0	1	right	n/a	n/a	n/a	1	0.0417274954356	blockFiles/set_45/main_PD/GB_runPatches1.xlsx
179	patches	True	n/a	483	0	n/a	n/a	0.0	1	left	n/a	n/a	n/a	0	-0.027872297037400004	blockFiles/set_45/main_PD/GB_runPatches1.xlsx
180	patches	True	n/a	483	0	n/a	n/a	0.0	1	left	n/a	n/a	n/a	0	-0.0231092976592	blockFiles/set_45/main_PD/GB_runPatches1.xlsx
181	patches	True	n/a	483	0	n/a	n/a	0.0	1	left	n/a	n/a	n/a	0	-0.06158573362980001	blockFiles/set_45/main_PD/GB_runPatches1.xlsx
182	patches	True	n/a	483	0	n/a	n/a	0.0	1	left	n/a	n/a	n/a	0	-0.0167677900195	blockFiles/set_45/main_PD/GB_runPatches1.xlsx
183	patches	True	n/a	483	0	n/a	n/a	1.0	1	right	n/a	n/a	n/a	1	0.0464332743175	blockFiles/set_45/main_PD/GB_runPatches1.xlsx
184	patches	True	n/a	483	0	n/a	n/a	0.0	1	left	n/a	n/a	n/a	0	-0.0195992826298	blockFiles/set_45/main_PD/GB_runPatches1.xlsx
185	patches	True	n/a	483	0	n/a	n/a	1.0	1	right	n/a	n/a	n/a	1	0.0325931710005	blockFiles/set_45/main_PD/GB_runPatches1.xlsx
186	patches	True	n/a	483	0	n/a	n/a	0.0	1	left	n/a	n/a	n/a	0	-0.04724730756130001	blockFiles/set_45/main_PD/GB_runPatches1.xlsx
187	patches	True	n/a	483	0	n/a	n/a	1.0	1	right	n/a	n/a	n/a	1	0.050101975426099996	blockFiles/set_45/main_PD/GB_runPatches1.xlsx
188	patches	True	n/a	483	0	n/a	n/a	1.0	1	right	n/a	n/a	n/a	1	0.0430899467506	blockFiles/set_45/main_PD/GB_runPatches1.xlsx
189	patches	True	n/a	483	0	n/a	n/a	0.0	1	left	n/a	n/a	n/a	0	-0.0623962548189	blockFiles/set_45/main_PD/GB_runPatches1.xlsx
190	patches	True	n/a	483	0	n/a	n/a	0.0	1	left	n/a	n/a	n/a	0	-0.0666210734285	blockFiles/set_45/main_PD/GB_runPatches1.xlsx
191	patches	True	n/a	483	0	n/a	n/a	0.0	1	left	n/a	n/a	n/a	0	-0.0346859408915	blockFiles/set_45/main_PD/GB_runPatches1.xlsx
192	patches	True	n/a	483	0	n/a	n/a	1.0	1	right	n/a	n/a	n/a	1	0.00546392293647	blockFiles/set_45/main_PD/GB_runPatches1.xlsx
193	patches	True	n/a	483	0	n/a	n/a	1.0	1	right	n/a	n/a	n/a	1	0.018550218734900002	blockFiles/set_45/main_PD/GB_runPatches1.xlsx
194	patches	True	n/a	483	0	n/a	n/a	0.0	1	left	n/a	n/a	n/a	0	-0.07608350049700001	blockFiles/set_45/main_PD/GB_runPatches1.xlsx
195	patches	True	n/a	483	0	n/a	n/a	1.0	1	right	n/a	n/a	n/a	1	0.0213329851255	blockFiles/set_45/main_PD/GB_runPatches1.xlsx
196	patches	True	n/a	483	0	n/a	n/a	1.0	1	right	n/a	n/a	n/a	1	0.023681174833299998	blockFiles/set_45/main_PD/GB_runPatches1.xlsx
197	patches	True	n/a	483	0	n/a	n/a	0.0	1	left	n/a	n/a	n/a	0	-0.0349157593772	blockFiles/set_45/main_PD/GB_runPatches1.xlsx
198	patches	True	n/a	483	0	n/a	n/a	0.0	1	left	n/a	n/a	n/a	0	-0.063777941186	blockFiles/set_45/main_PD/GB_runPatches1.xlsx
199	patches	True	n/a	483	0	n/a	n/a	1.0	0	right	n/a	n/a	n/a	0	-0.0246309083328	blockFiles/set_45/main_PD/GB_runPatches1.xlsx
200	patches	True	n/a	483	0	n/a	n/a	1.0	1	right	n/a	n/a	n/a	1	0.0570323620737	blockFiles/set_45/main_PD/GB_runPatches1.xlsx
201	patches	True	n/a	483	0	n/a	n/a	1.0	1	right	n/a	n/a	n/a	1	0.0310023171268	blockFiles/set_45/main_PD/GB_runPatches1.xlsx
202	patches	True	n/a	483	0	n/a	n/a	0.0	1	left	n/a	n/a	n/a	0	-0.0455932925083	blockFiles/set_45/main_PD/GB_runPatches1.xlsx
203	patches	True	n/a	483	0	n/a	n/a	0.0	1	left	n/a	n/a	n/a	0	-0.044890328515300004	blockFiles/set_45/main_PD/GB_runPatches1.xlsx
204	patches	True	n/a	483	0	n/a	n/a	1.0	0	right	n/a	n/a	n/a	0	-0.020169371422400002	blockFiles/set_45/main_PD/GB_runPatches1.xlsx
205	patches	True	n/a	483	0	n/a	n/a	1.0	1	right	n/a	n/a	n/a	1	0.0163723663427	blockFiles/set_45/main_PD/GB_runPatches1.xlsx
206	patches	True	n/a	483	0	n/a	n/a	n/a	0	None	n/a	n/a	n/a	0	-0.025533979777199997	blockFiles/set_45/main_PD/GB_runPatches1.xlsx
207	patches	True	n/a	483	0	n/a	n/a	1.0	1	right	n/a	n/a	n/a	1	0.0179268756323	blockFiles/set_45/main_PD/GB_runPatches1.xlsx
208	patches	True	n/a	483	0	n/a	n/a	0.0	1	left	n/a	n/a	n/a	0	-0.0635627734475	blockFiles/set_45/main_PD/GB_runPatches1.xlsx
209	patches	True	n/a	483	0	n/a	n/a	0.0	1	left	n/a	n/a	n/a	0	-0.0679529633746	blockFiles/set_45/main_PD/GB_runPatches1.xlsx
210	patches	True	n/a	483	0	n/a	n/a	1.0	1	right	n/a	n/a	n/a	1	0.020997769273799996	blockFiles/set_45/main_PD/GB_runPatches1.xlsx
211	patches	True	n/a	483	0	n/a	n/a	1.0	1	right	n/a	n/a	n/a	1	0.0556594499573	blockFiles/set_45/main_PD/GB_runPatches1.xlsx
212	patches	True	n/a	483	0	n/a	n/a	0.0	1	left	n/a	n/a	n/a	0	-0.0421481233835	blockFiles/set_45/main_PD/GB_runPatches1.xlsx
213	patches	True	n/a	483	0	n/a	n/a	1.0	1	right	n/a	n/a	n/a	1	0.057293206956199993	blockFiles/set_45/main_PD/GB_runPatches1.xlsx
214	patches	True	n/a	483	0	n/a	n/a	1.0	1	right	n/a	n/a	n/a	1	0.045267936699099995	blockFiles/set_45/main_PD/GB_runPatches1.xlsx
215	patches	True	n/a	483	0	n/a	n/a	1.0	0	right	n/a	n/a	n/a	0	-0.047044861651999996	blockFiles/set_45/main_PD/GB_runPatches1.xlsx
216	patches	True	n/a	483	0	n/a	n/a	1.0	1	right	n/a	n/a	n/a	1	0.051314915474500004	blockFiles/set_45/main_PD/GB_runPatches1.xlsx
217	patches	True	n/a	483	0	n/a	n/a	1.0	1	right	n/a	n/a	n/a	1	0.0448016495444	blockFiles/set_45/main_PD/GB_runPatches1.xlsx
218	patches	True	n/a	483	0	n/a	n/a	0.0	0	left	n/a	n/a	n/a	1	0.0142291228287	blockFiles/set_45/main_PD/GB_runPatches1.xlsx
219	patches	True	n/a	483	0	n/a	n/a	1.0	0	right	n/a	n/a	n/a	0	-0.041736020036	blockFiles/set_45/main_PD/GB_runPatches1.xlsx
220	patches	True	n/a	483	0	n/a	n/a	1.0	1	right	n/a	n/a	n/a	1	0.0428219365515	blockFiles/set_45/main_PD/GB_runPatches1.xlsx
221	patches	True	n/a	483	0	n/a	n/a	1.0	0	right	n/a	n/a	n/a	0	-0.014812241177999999	blockFiles/set_45/main_PD/GB_runPatches1.xlsx
222	patches	True	n/a	483	0	n/a	n/a	1.0	1	right	n/a	n/a	n/a	1	0.069675554689	blockFiles/set_45/main_PD/GB_runPatches1.xlsx
223	patches	True	n/a	483	0	n/a	n/a	1.0	1	right	n/a	n/a	n/a	1	0.0167929580063	blockFiles/set_45/main_PD/GB_runPatches1.xlsx
224	patches	True	n/a	483	0	n/a	n/a	0.0	1	left	n/a	n/a	n/a	0	-0.0253246669099	blockFiles/set_45/main_PD/GB_runPatches1.xlsx
225	patches	True	n/a	483	0	n/a	n/a	0.0	1	left	n/a	n/a	n/a	0	-0.0577325972356	blockFiles/set_45/main_PD/GB_runPatches1.xlsx
226	patches	True	n/a	483	0	n/a	n/a	1.0	1	right	n/a	n/a	n/a	1	0.0600353470817	blockFiles/set_45/main_PD/GB_runPatches1.xlsx
227	patches	True	n/a	483	0	n/a	n/a	1.0	1	right	n/a	n/a	n/a	1	1.62206031382e-05	blockFiles/set_45/main_PD/GB_runPatches1.xlsx
228	patches	True	n/a	483	0	n/a	n/a	0.0	1	left	n/a	n/a	n/a	0	-0.045285614375	blockFiles/set_45/main_PD/GB_runPatches1.xlsx
229	patches	True	n/a	483	0	n/a	n/a	0.0	1	left	n/a	n/a	n/a	0	-0.06930522264910001	blockFiles/set_45/main_PD/GB_runPatches1.xlsx
230	patches	True	n/a	483	0	n/a	n/a	1.0	0	right	n/a	n/a	n/a	0	-0.0144141368754	blockFiles/set_45/main_PD/GB_runPatches1.xlsx
231	patches	True	n/a	483	0	n/a	n/a	1.0	0	right	n/a	n/a	n/a	0	-0.0119227136858	blockFiles/set_45/main_PD/GB_runPatches1.xlsx
232	patches	True	n/a	483	0	n/a	n/a	1.0	1	right	n/a	n/a	n/a	1	0.0684595136344	blockFiles/set_45/main_PD/GB_runPatches1.xlsx
233	patches	True	n/a	483	0	n/a	n/a	0.0	0	left	n/a	n/a	n/a	1	0.030431615915099998	blockFiles/set_45/main_PD/GB_runPatches1.xlsx
234	patches	True	n/a	483	0	n/a	n/a	0.0	1	left	n/a	n/a	n/a	0	-0.0793982969224	blockFiles/set_45/main_PD/GB_runPatches1.xlsx
235	patches	True	n/a	483	0	n/a	n/a	1.0	0	right	n/a	n/a	n/a	0	-0.00983639752492	blockFiles/set_45/main_PD/GB_runPatches1.xlsx
236	patches	True	n/a	483	0	n/a	n/a	1.0	1	right	n/a	n/a	n/a	1	0.0570575402491	blockFiles/set_45/main_PD/GB_runPatches1.xlsx
237	patches	True	n/a	483	0	n/a	n/a	0.0	1	left	n/a	n/a	n/a	0	-0.011465575248	blockFiles/set_45/main_PD/GB_runPatches1.xlsx
238	patches	True	n/a	483	0	n/a	n/a	1.0	1	right	n/a	n/a	n/a	1	0.0009176006354389999	blockFiles/set_45/main_PD/GB_runPatches1.xlsx
239	patches	True	n/a	483	0	n/a	n/a	1.0	1	right	n/a	n/a	n/a	1	0.06501374980430001	blockFiles/set_45/main_PD/GB_runPatches1.xlsx
240	patches	True	n/a	483	0	n/a	n/a	1.0	0	right	n/a	n/a	n/a	0	-0.0455103828385	blockFiles/set_45/main_PD/GB_runPatches1.xlsx
241	patches	True	n/a	483	0	n/a	n/a	1.0	0	right	n/a	n/a	n/a	0	-0.030373617187099997	blockFiles/set_45/main_PD/GB_runPatches1.xlsx
242	patches	True	n/a	483	0	n/a	n/a	0.0	1	left	n/a	n/a	n/a	0	-0.0328784930892	blockFiles/set_45/main_PD/GB_runPatches1.xlsx
243	patches	True	n/a	483	0	n/a	n/a	1.0	0	right	n/a	n/a	n/a	0	-0.0135567914508	blockFiles/set_45/main_PD/GB_runPatches1.xlsx
244	patches	True	n/a	483	0	n/a	n/a	0.0	1	left	n/a	n/a	n/a	0	-0.048485430702599995	blockFiles/set_45/main_PD/GB_runPatches1.xlsx
245	patches	True	n/a	483	0	n/a	n/a	0.0	1	left	n/a	n/a	n/a	0	-0.07449356999250001	blockFiles/set_45/main_PD/GB_runPatches1.xlsx
246	patches	True	n/a	483	0	n/a	n/a	1.0	0	right	n/a	n/a	n/a	0	-0.0791974609904	blockFiles/set_45/main_PD/GB_runPatches1.xlsx
247	patches	True	n/a	483	0	n/a	n/a	1.0	1	right	n/a	n/a	n/a	1	0.027199602779	blockFiles/set_45/main_PD/GB_runPatches1.xlsx
248	patches	True	n/a	483	0	n/a	n/a	1.0	1	right	n/a	n/a	n/a	1	0.00099254719913	blockFiles/set_45/main_PD/GB_runPatches1.xlsx
249	patches	True	n/a	483	0	n/a	n/a	1.0	1	right	n/a	n/a	n/a	1	0.0108306214958	blockFiles/set_45/main_PD/GB_runPatches1.xlsx
250	main_unc	True	0.0	483	0	0.0	0.0	0.0	1	left	1.0	0.0	1.0	0	-0.0346164061874	blockFiles/set_45/main_unc/rightBlue\GB_RB_2.xlsx
251	main_unc	True	0.0	483	0	0.0	0.0	1.0	1	right	1.0	0.0	0.0	1	0.07810721833260001	blockFiles/set_45/main_unc/rightBlue\GB_RB_2.xlsx
252	main_unc	True	0.0	483	0	0.0	0.0	0.0	1	left	1.0	1.0	1.0	0	-0.059127858858599995	blockFiles/set_45/main_unc/rightBlue\GB_RB_2.xlsx
253	main_unc	True	0.0	483	0	0.0	0.0	0.0	1	left	1.0	1.0	1.0	0	-0.07560505360360001	blockFiles/set_45/main_unc/rightBlue\GB_RB_2.xlsx
254	main_unc	True	0.0	483	0	0.0	0.0	1.0	1	right	2.0	1.0	1.0	1	0.062427413295999996	blockFiles/set_45/main_unc/rightBlue\GB_RB_2.xlsx
255	main_unc	True	0.0	483	0	0.0	0.0	0.0	0	left	2.0	1.0	1.0	1	0.00393303871155	blockFiles/set_45/main_unc/rightBlue\GB_RB_2.xlsx
256	main_unc	True	0.0	483	0	0.0	0.0	0.0	1	left	1.0	1.0	1.0	0	-0.0418831884116	blockFiles/set_45/main_unc/rightBlue\GB_RB_2.xlsx
257	main_unc	True	0.0	483	0	0.0	0.0	1.0	1	right	2.0	1.0	1.0	1	0.005686878971760001	blockFiles/set_45/main_unc/rightBlue\GB_RB_2.xlsx
258	main_unc	True	0.0	483	0	0.0	0.0	0.0	1	left	1.0	0.0	1.0	0	-0.0663997831009	blockFiles/set_45/main_unc/rightBlue\GB_RB_2.xlsx
259	main_unc	True	0.0	483	0	0.0	0.0	0.0	1	left	1.0	1.0	1.0	0	-0.0681113800779	blockFiles/set_45/main_unc/rightBlue\GB_RB_2.xlsx
260	main_unc	True	0.0	483	0	0.0	0.0	1.0	1	right	2.0	1.0	1.0	1	0.0030453914776399998	blockFiles/set_45/main_unc/rightBlue\GB_RB_2.xlsx
261	main_unc	True	0.0	483	0	0.0	0.0	0.0	1	left	1.0	1.0	1.0	0	-0.0475747570395	blockFiles/set_45/main_unc/rightBlue\GB_RB_2.xlsx
262	main_unc	True	0.0	483	0	0.0	0.0	1.0	1	right	2.0	1.0	1.0	1	0.00364388536662	blockFiles/set_45/main_unc/rightBlue\GB_RB_2.xlsx
263	main_unc	True	0.0	483	0	0.0	0.0	1.0	1	right	2.0	1.0	1.0	1	0.016024237908399998	blockFiles/set_45/main_unc/rightBlue\GB_RB_2.xlsx
264	main_unc	True	0.0	483	0	0.0	0.0	0.0	1	left	1.0	1.0	1.0	0	-0.0653079064563	blockFiles/set_45/main_unc/rightBlue\GB_RB_2.xlsx
265	main_unc	True	0.0	483	0	0.0	0.0	1.0	1	right	2.0	1.0	1.0	1	0.0388580288738	blockFiles/set_45/main_unc/rightBlue\GB_RB_2.xlsx
266	main_unc	True	0.0	483	0	0.0	0.0	0.0	1	left	1.0	1.0	1.0	0	-0.038341097272900006	blockFiles/set_45/main_unc/rightBlue\GB_RB_2.xlsx
267	main_unc	True	0.0	483	0	0.0	0.0	1.0	1	right	2.0	0.0	1.0	1	0.0627616078407	blockFiles/set_45/main_unc/rightBlue\GB_RB_2.xlsx
268	main_unc	True	0.0	483	0	0.0	0.0	1.0	1	right	2.0	0.0	1.0	1	0.06038479853419999	blockFiles/set_45/main_unc/rightBlue\GB_RB_2.xlsx
269	main_unc	True	0.0	483	0	0.0	0.0	0.0	1	left	1.0	1.0	1.0	0	-0.0537880200148	blockFiles/set_45/main_unc/rightBlue\GB_RB_2.xlsx
270	main_unc	True	0.0	483	0	0.0	0.0	1.0	1	right	2.0	1.0	1.0	1	0.0126180889457	blockFiles/set_45/main_unc/rightBlue\GB_RB_2.xlsx
271	main_unc	True	0.0	483	0	0.0	0.0	1.0	1	right	2.0	1.0	1.0	1	0.040368086416300006	blockFiles/set_45/main_unc/rightBlue\GB_RB_2.xlsx
272	main_unc	True	0.0	483	0	0.0	0.0	0.0	1	left	1.0	0.0	1.0	0	-0.057439800370500005	blockFiles/set_45/main_unc/rightBlue\GB_RB_2.xlsx
273	main_unc	True	0.0	483	0	0.0	0.0	0.0	1	left	1.0	1.0	1.0	0	-0.0312095787376	blockFiles/set_45/main_unc/rightBlue\GB_RB_2.xlsx
274	main_unc	True	0.0	483	0	0.0	0.0	1.0	1	right	2.0	1.0	1.0	1	0.0462619960494	blockFiles/set_45/main_unc/rightBlue\GB_RB_2.xlsx
275	main_unc	True	0.0	483	0	1.0	1.0	0.0	1	left	1.0	1.0	1.0	0	-0.0622505096719	blockFiles/set_45/main_unc/rightBlue\GB_RB_1.xlsx
276	main_unc	True	0.0	483	0	1.0	1.0	1.0	0	right	2.0	0.0	0.0	0	-0.0057493196055299995	blockFiles/set_45/main_unc/rightBlue\GB_RB_1.xlsx
277	main_unc	True	0.0	483	0	1.0	1.0	0.0	1	left	1.0	1.0	1.0	0	-0.06297402367	blockFiles/set_45/main_unc/rightBlue\GB_RB_1.xlsx
278	main_unc	True	0.0	483	0	1.0	1.0	1.0	1	right	2.0	1.0	1.0	1	0.0113963690959	blockFiles/set_45/main_unc/rightBlue\GB_RB_1.xlsx
279	main_unc	True	0.0	483	0	1.0	1.0	1.0	1	right	2.0	1.0	1.0	1	0.0687037471496	blockFiles/set_45/main_unc/rightBlue\GB_RB_1.xlsx
280	main_unc	True	0.0	483	0	1.0	1.0	0.0	1	left	1.0	1.0	1.0	0	-0.0445627453364	blockFiles/set_45/main_unc/rightBlue\GB_RB_1.xlsx
281	main_unc	True	0.0	483	0	1.0	1.0	1.0	0	right	2.0	0.0	0.0	0	-0.013130655605299999	blockFiles/set_45/main_unc/rightBlue\GB_RB_1.xlsx
282	main_unc	True	0.0	483	0	1.0	1.0	1.0	1	right	2.0	1.0	1.0	1	0.0481001826003	blockFiles/set_45/main_unc/rightBlue\GB_RB_1.xlsx
283	main_unc	True	0.0	483	0	1.0	1.0	1.0	1	right	2.0	1.0	1.0	1	0.012044958323200001	blockFiles/set_45/main_unc/rightBlue\GB_RB_1.xlsx
284	main_unc	True	0.0	483	0	1.0	1.0	0.0	1	left	1.0	1.0	1.0	0	-0.014374841749700001	blockFiles/set_45/main_unc/rightBlue\GB_RB_1.xlsx
285	main_unc	True	0.0	483	0	1.0	1.0	0.0	1	left	1.0	1.0	1.0	0	-0.029579375311699997	blockFiles/set_45/main_unc/rightBlue\GB_RB_1.xlsx
286	main_unc	True	0.0	483	0	1.0	1.0	0.0	1	left	2.0	1.0	0.0	0	-0.0102224333771	blockFiles/set_45/main_unc/rightBlue\GB_RB_1.xlsx
287	main_unc	True	0.0	483	0	1.0	1.0	1.0	1	right	2.0	1.0	1.0	1	0.0738353131153	blockFiles/set_45/main_unc/rightBlue\GB_RB_1.xlsx
288	main_unc	True	0.0	483	0	1.0	1.0	1.0	1	right	2.0	1.0	1.0	1	0.0750828169659	blockFiles/set_45/main_unc/rightBlue\GB_RB_1.xlsx
289	main_unc	True	0.0	483	0	1.0	1.0	0.0	0	left	1.0	1.0	0.0	1	0.0057786379382	blockFiles/set_45/main_unc/rightBlue\GB_RB_1.xlsx
290	main_unc	True	0.0	483	0	1.0	1.0	0.0	1	left	1.0	1.0	1.0	0	-0.0596721894294	blockFiles/set_45/main_unc/rightBlue\GB_RB_1.xlsx
291	main_unc	True	0.0	483	0	1.0	1.0	0.0	0	left	2.0	1.0	1.0	1	0.0205228527635	blockFiles/set_45/main_unc/rightBlue\GB_RB_1.xlsx
292	main_unc	True	0.0	483	0	1.0	1.0	1.0	1	right	2.0	1.0	1.0	1	0.0305897817202	blockFiles/set_45/main_unc/rightBlue\GB_RB_1.xlsx
293	main_unc	True	0.0	483	0	1.0	1.0	0.0	1	left	1.0	1.0	1.0	0	-0.0608032429218	blockFiles/set_45/main_unc/rightBlue\GB_RB_1.xlsx
294	main_unc	True	0.0	483	0	1.0	1.0	0.0	0	left	2.0	1.0	1.0	1	0.014509763699	blockFiles/set_45/main_unc/rightBlue\GB_RB_1.xlsx
295	main_unc	True	0.0	483	0	1.0	1.0	1.0	1	right	2.0	1.0	1.0	1	0.0300786093995	blockFiles/set_45/main_unc/rightBlue\GB_RB_1.xlsx
296	main_unc	True	0.0	483	0	1.0	1.0	0.0	1	left	1.0	0.0	1.0	0	-0.0718423315324	blockFiles/set_45/main_unc/rightBlue\GB_RB_1.xlsx
297	main_unc	True	0.0	483	0	1.0	1.0	1.0	1	right	2.0	1.0	1.0	1	0.0253249618597	blockFiles/set_45/main_unc/rightBlue\GB_RB_1.xlsx
298	main_unc	True	0.0	483	0	1.0	1.0	0.0	1	left	1.0	0.0	1.0	0	-0.021677445899700002	blockFiles/set_45/main_unc/rightBlue\GB_RB_1.xlsx
299	main_unc	True	0.0	483	0	1.0	1.0	0.0	1	left	1.0	1.0	1.0	0	-0.052412381786900004	blockFiles/set_45/main_unc/rightBlue\GB_RB_1.xlsx
300	main_unc	True	0.0	483	0	2.0	2.0	0.0	1	left	2.0	0.0	0.0	0	-0.0239585530944	blockFiles/set_45/main_unc/rightBlue\GB_RB_6.xlsx
301	main_unc	True	0.0	483	0	2.0	2.0	0.0	1	left	2.0	1.0	0.0	0	-0.0368977180682	blockFiles/set_45/main_unc/rightBlue\GB_RB_6.xlsx
302	main_unc	True	0.0	483	0	2.0	2.0	1.0	1	right	1.0	0.0	0.0	1	0.04567523393780001	blockFiles/set_45/main_unc/rightBlue\GB_RB_6.xlsx
303	main_unc	True	0.0	483	0	2.0	2.0	0.0	1	left	2.0	0.0	0.0	0	-0.0401556839421	blockFiles/set_45/main_unc/rightBlue\GB_RB_6.xlsx
304	main_unc	True	0.0	483	0	2.0	2.0	1.0	1	right	1.0	0.0	0.0	1	0.00962777132168	blockFiles/set_45/main_unc/rightBlue\GB_RB_6.xlsx
305	main_unc	True	0.0	483	0	2.0	2.0	0.0	1	left	1.0	0.0	1.0	0	-0.0504671251029	blockFiles/set_45/main_unc/rightBlue\GB_RB_6.xlsx
306	main_unc	True	0.0	483	0	2.0	2.0	1.0	1	right	1.0	0.0	0.0	1	0.006952152997260001	blockFiles/set_45/main_unc/rightBlue\GB_RB_6.xlsx
307	main_unc	True	0.0	483	0	2.0	2.0	0.0	1	left	2.0	0.0	0.0	0	-0.0488510859944	blockFiles/set_45/main_unc/rightBlue\GB_RB_6.xlsx
308	main_unc	True	0.0	483	0	2.0	2.0	0.0	1	left	1.0	1.0	1.0	0	-0.0345843052492	blockFiles/set_45/main_unc/rightBlue\GB_RB_6.xlsx
309	main_unc	True	0.0	483	0	2.0	2.0	1.0	1	right	2.0	0.0	1.0	1	0.07151037460189999	blockFiles/set_45/main_unc/rightBlue\GB_RB_6.xlsx
310	main_unc	True	0.0	483	0	2.0	2.0	1.0	1	right	2.0	1.0	1.0	1	0.021311390101900002	blockFiles/set_45/main_unc/rightBlue\GB_RB_6.xlsx
311	main_unc	True	0.0	483	0	2.0	2.0	0.0	1	left	1.0	1.0	1.0	0	-0.011443185266100001	blockFiles/set_45/main_unc/rightBlue\GB_RB_6.xlsx
312	main_unc	True	0.0	483	0	2.0	2.0	0.0	1	left	1.0	1.0	1.0	0	-0.0519947422855	blockFiles/set_45/main_unc/rightBlue\GB_RB_6.xlsx
313	main_unc	True	0.0	483	0	2.0	2.0	1.0	1	right	2.0	1.0	1.0	1	0.0170616829395	blockFiles/set_45/main_unc/rightBlue\GB_RB_6.xlsx
314	main_unc	True	0.0	483	0	2.0	2.0	1.0	1	right	2.0	1.0	1.0	1	0.0678632735088	blockFiles/set_45/main_unc/rightBlue\GB_RB_6.xlsx
315	main_unc	True	0.0	483	0	2.0	2.0	1.0	1	right	2.0	1.0	1.0	1	0.059941135924300004	blockFiles/set_45/main_unc/rightBlue\GB_RB_6.xlsx
316	main_unc	True	0.0	483	0	2.0	2.0	1.0	0	right	2.0	0.0	0.0	0	-0.0080292208679	blockFiles/set_45/main_unc/rightBlue\GB_RB_6.xlsx
317	main_unc	True	0.0	483	0	2.0	2.0	1.0	1	right	2.0	1.0	1.0	1	0.0717516013607	blockFiles/set_45/main_unc/rightBlue\GB_RB_6.xlsx
318	main_unc	True	0.0	483	0	2.0	2.0	1.0	0	right	1.0	1.0	1.0	0	-0.0011385101824999998	blockFiles/set_45/main_unc/rightBlue\GB_RB_6.xlsx
319	main_unc	True	0.0	483	0	2.0	2.0	1.0	1	right	2.0	1.0	1.0	1	0.046773443426900006	blockFiles/set_45/main_unc/rightBlue\GB_RB_6.xlsx
320	main_unc	True	0.0	483	0	2.0	2.0	1.0	1	right	2.0	0.0	1.0	1	0.0367896872014	blockFiles/set_45/main_unc/rightBlue\GB_RB_6.xlsx
321	main_unc	True	0.0	483	0	2.0	2.0	0.0	1	left	1.0	1.0	1.0	0	-0.0290755213425	blockFiles/set_45/main_unc/rightBlue\GB_RB_6.xlsx
322	main_unc	True	0.0	483	0	2.0	2.0	1.0	1	right	2.0	1.0	1.0	1	0.04471312172709999	blockFiles/set_45/main_unc/rightBlue\GB_RB_6.xlsx
323	main_unc	True	0.0	483	0	2.0	2.0	0.0	1	left	1.0	1.0	1.0	0	-0.0264571416751	blockFiles/set_45/main_unc/rightBlue\GB_RB_6.xlsx
324	main_unc	True	0.0	483	0	2.0	2.0	0.0	0	left	2.0	1.0	1.0	1	0.0141651348583	blockFiles/set_45/main_unc/rightBlue\GB_RB_6.xlsx
325	main_unc	True	0.0	483	0	3.0	3.0	0.0	1	left	2.0	0.0	0.0	0	-0.07381678828970001	blockFiles/set_45/main_unc/rightBlue\GB_RB_3.xlsx
326	main_unc	True	0.0	483	0	3.0	3.0	1.0	1	right	2.0	1.0	1.0	1	0.0139312654547	blockFiles/set_45/main_unc/rightBlue\GB_RB_3.xlsx
327	main_unc	True	0.0	483	0	3.0	3.0	0.0	1	left	1.0	1.0	1.0	0	-0.0756420800649	blockFiles/set_45/main_unc/rightBlue\GB_RB_3.xlsx
328	main_unc	True	0.0	483	0	3.0	3.0	0.0	1	left	1.0	1.0	1.0	0	-0.0303621549346	blockFiles/set_45/main_unc/rightBlue\GB_RB_3.xlsx
329	main_unc	True	0.0	483	0	3.0	3.0	0.0	1	left	1.0	1.0	1.0	0	-0.0575368241221	blockFiles/set_45/main_unc/rightBlue\GB_RB_3.xlsx
330	main_unc	True	0.0	483	0	3.0	3.0	0.0	1	left	2.0	0.0	0.0	0	-0.0036584880016699997	blockFiles/set_45/main_unc/rightBlue\GB_RB_3.xlsx
331	main_unc	True	0.0	483	0	3.0	3.0	0.0	1	left	1.0	0.0	1.0	0	-0.044383075013800004	blockFiles/set_45/main_unc/rightBlue\GB_RB_3.xlsx
332	main_unc	True	0.0	483	0	3.0	3.0	0.0	1	left	2.0	0.0	0.0	0	-0.0781158702634	blockFiles/set_45/main_unc/rightBlue\GB_RB_3.xlsx
333	main_unc	True	0.0	483	0	3.0	3.0	1.0	1	right	2.0	0.0	1.0	1	0.0535096443817	blockFiles/set_45/main_unc/rightBlue\GB_RB_3.xlsx
334	main_unc	True	0.0	483	0	3.0	3.0	1.0	1	right	2.0	1.0	1.0	1	0.0200640182942	blockFiles/set_45/main_unc/rightBlue\GB_RB_3.xlsx
335	main_unc	True	0.0	483	0	3.0	3.0	0.0	1	left	1.0	1.0	1.0	0	-0.0495393383875	blockFiles/set_45/main_unc/rightBlue\GB_RB_3.xlsx
336	main_unc	True	0.0	483	0	3.0	3.0	1.0	1	right	2.0	1.0	1.0	1	0.0456242549047	blockFiles/set_45/main_unc/rightBlue\GB_RB_3.xlsx
337	main_unc	True	0.0	483	0	3.0	3.0	1.0	1	right	2.0	1.0	1.0	1	0.0393908987194	blockFiles/set_45/main_unc/rightBlue\GB_RB_3.xlsx
338	main_unc	True	0.0	483	0	3.0	3.0	1.0	1	right	2.0	0.0	1.0	1	0.0227077816799	blockFiles/set_45/main_unc/rightBlue\GB_RB_3.xlsx
339	main_unc	True	0.0	483	0	3.0	3.0	1.0	1	right	2.0	1.0	1.0	1	0.058626042790699995	blockFiles/set_45/main_unc/rightBlue\GB_RB_3.xlsx
340	main_unc	True	0.0	483	0	3.0	3.0	1.0	1	right	2.0	1.0	1.0	1	0.0622751769423	blockFiles/set_45/main_unc/rightBlue\GB_RB_3.xlsx
341	main_unc	True	0.0	483	0	3.0	3.0	0.0	1	left	1.0	0.0	1.0	0	-0.05426487842569999	blockFiles/set_45/main_unc/rightBlue\GB_RB_3.xlsx
342	main_unc	True	0.0	483	0	3.0	3.0	0.0	0	left	1.0	1.0	0.0	1	0.00801989249885	blockFiles/set_45/main_unc/rightBlue\GB_RB_3.xlsx
343	main_unc	True	0.0	483	0	3.0	3.0	1.0	1	right	2.0	1.0	1.0	1	0.0397606154531	blockFiles/set_45/main_unc/rightBlue\GB_RB_3.xlsx
344	main_unc	True	0.0	483	0	3.0	3.0	0.0	1	left	1.0	1.0	1.0	0	-0.0505149063654	blockFiles/set_45/main_unc/rightBlue\GB_RB_3.xlsx
345	main_unc	True	0.0	483	0	3.0	3.0	0.0	1	left	1.0	1.0	1.0	0	-0.0251649024896	blockFiles/set_45/main_unc/rightBlue\GB_RB_3.xlsx
346	main_unc	True	0.0	483	0	3.0	3.0	0.0	1	left	1.0	1.0	1.0	0	-0.0798607339524	blockFiles/set_45/main_unc/rightBlue\GB_RB_3.xlsx
347	main_unc	True	0.0	483	0	3.0	3.0	1.0	1	right	2.0	0.0	1.0	1	0.0422540760413	blockFiles/set_45/main_unc/rightBlue\GB_RB_3.xlsx
348	main_unc	True	0.0	483	0	3.0	3.0	1.0	1	right	2.0	1.0	1.0	1	0.000564900245517	blockFiles/set_45/main_unc/rightBlue\GB_RB_3.xlsx
349	main_unc	True	0.0	483	0	3.0	3.0	1.0	1	right	2.0	1.0	1.0	1	0.00736151183024	blockFiles/set_45/main_unc/rightBlue\GB_RB_3.xlsx
350	main_unc	True	0.0	483	0	4.0	4.0	0.0	1	left	1.0	0.0	0.0	0	-0.0306592441536	blockFiles/set_45/main_unc/leftBlue\GB_LB_2.xlsx
351	main_unc	True	0.0	483	0	4.0	4.0	1.0	1	right	1.0	1.0	1.0	1	0.0448019859567	blockFiles/set_45/main_unc/leftBlue\GB_LB_2.xlsx
352	main_unc	True	0.0	483	0	4.0	4.0	1.0	1	right	1.0	1.0	1.0	1	0.00785099053755	blockFiles/set_45/main_unc/leftBlue\GB_LB_2.xlsx
353	main_unc	True	0.0	483	0	4.0	4.0	0.0	1	left	2.0	1.0	1.0	0	-0.0319096790813	blockFiles/set_45/main_unc/leftBlue\GB_LB_2.xlsx
354	main_unc	True	0.0	483	0	4.0	4.0	1.0	1	right	1.0	1.0	1.0	1	0.063225397449	blockFiles/set_45/main_unc/leftBlue\GB_LB_2.xlsx
355	main_unc	True	0.0	483	0	4.0	4.0	0.0	1	left	2.0	1.0	1.0	0	-0.048212043792	blockFiles/set_45/main_unc/leftBlue\GB_LB_2.xlsx
356	main_unc	True	0.0	483	0	4.0	4.0	0.0	1	left	2.0	1.0	1.0	0	-0.013801165930899998	blockFiles/set_45/main_unc/leftBlue\GB_LB_2.xlsx
357	main_unc	True	0.0	483	0	4.0	4.0	1.0	1	right	1.0	1.0	1.0	1	0.0571066828817	blockFiles/set_45/main_unc/leftBlue\GB_LB_2.xlsx
358	main_unc	True	0.0	483	0	4.0	4.0	0.0	1	left	2.0	1.0	1.0	0	-0.017321466859400003	blockFiles/set_45/main_unc/leftBlue\GB_LB_2.xlsx
359	main_unc	True	0.0	483	0	4.0	4.0	1.0	1	right	1.0	1.0	1.0	1	0.0718435446732	blockFiles/set_45/main_unc/leftBlue\GB_LB_2.xlsx
360	main_unc	True	0.0	483	0	4.0	4.0	1.0	1	right	1.0	0.0	1.0	1	0.058200558759300004	blockFiles/set_45/main_unc/leftBlue\GB_LB_2.xlsx
361	main_unc	True	0.0	483	0	4.0	4.0	1.0	1	right	1.0	1.0	1.0	1	0.024810592196900003	blockFiles/set_45/main_unc/leftBlue\GB_LB_2.xlsx
362	main_unc	True	0.0	483	0	4.0	4.0	1.0	1	right	1.0	0.0	1.0	1	0.0350455650873	blockFiles/set_45/main_unc/leftBlue\GB_LB_2.xlsx
363	main_unc	True	0.0	483	0	4.0	4.0	1.0	0	right	1.0	0.0	0.0	0	-0.0114240517095	blockFiles/set_45/main_unc/leftBlue\GB_LB_2.xlsx
364	main_unc	True	0.0	483	0	4.0	4.0	0.0	1	left	2.0	1.0	1.0	0	-0.0176638268866	blockFiles/set_45/main_unc/leftBlue\GB_LB_2.xlsx
365	main_unc	True	0.0	483	0	4.0	4.0	0.0	1	left	2.0	1.0	1.0	0	-0.0183128831908	blockFiles/set_45/main_unc/leftBlue\GB_LB_2.xlsx
366	main_unc	True	0.0	483	0	4.0	4.0	0.0	1	left	2.0	1.0	1.0	0	-0.0656454980932	blockFiles/set_45/main_unc/leftBlue\GB_LB_2.xlsx
367	main_unc	True	0.0	483	0	4.0	4.0	1.0	1	right	1.0	1.0	1.0	1	0.044637710116800004	blockFiles/set_45/main_unc/leftBlue\GB_LB_2.xlsx
368	main_unc	True	0.0	483	0	4.0	4.0	0.0	1	left	2.0	1.0	1.0	0	-0.0558024245501	blockFiles/set_45/main_unc/leftBlue\GB_LB_2.xlsx
369	main_unc	True	0.0	483	0	4.0	4.0	0.0	1	left	2.0	0.0	1.0	0	-0.0620645488985	blockFiles/set_45/main_unc/leftBlue\GB_LB_2.xlsx
370	main_unc	True	0.0	483	0	4.0	4.0	1.0	1	right	1.0	0.0	1.0	1	0.0136813323386	blockFiles/set_45/main_unc/leftBlue\GB_LB_2.xlsx
371	main_unc	True	0.0	483	0	4.0	4.0	0.0	1	left	2.0	1.0	1.0	0	-0.053610313609199996	blockFiles/set_45/main_unc/leftBlue\GB_LB_2.xlsx
372	main_unc	True	0.0	483	0	4.0	4.0	1.0	1	right	1.0	1.0	1.0	1	0.0651745536365	blockFiles/set_45/main_unc/leftBlue\GB_LB_2.xlsx
373	main_unc	True	0.0	483	0	4.0	4.0	1.0	1	right	1.0	0.0	1.0	1	0.012239589598	blockFiles/set_45/main_unc/leftBlue\GB_LB_2.xlsx
374	main_unc	True	0.0	483	0	4.0	4.0	0.0	1	left	1.0	0.0	0.0	0	-0.00398320388049	blockFiles/set_45/main_unc/leftBlue\GB_LB_2.xlsx
375	main_unc	True	0.0	483	0	5.0	5.0	0.0	1	left	2.0	0.0	0.0	0	-0.04210813401269999	blockFiles/set_45/main_unc/rightBlue\GB_RB_5.xlsx
376	main_unc	True	0.0	483	0	5.0	5.0	0.0	1	left	1.0	1.0	1.0	0	-0.0479708779976	blockFiles/set_45/main_unc/rightBlue\GB_RB_5.xlsx
377	main_unc	True	0.0	483	0	5.0	5.0	1.0	1	right	2.0	1.0	1.0	1	0.0613292656466	blockFiles/set_45/main_unc/rightBlue\GB_RB_5.xlsx
378	main_unc	True	0.0	483	0	5.0	5.0	1.0	1	right	2.0	1.0	1.0	1	0.0387270106189	blockFiles/set_45/main_unc/rightBlue\GB_RB_5.xlsx
379	main_unc	True	0.0	483	0	5.0	5.0	0.0	1	left	1.0	1.0	1.0	0	-0.06409563414750001	blockFiles/set_45/main_unc/rightBlue\GB_RB_5.xlsx
380	main_unc	True	0.0	483	0	5.0	5.0	1.0	1	right	2.0	0.0	1.0	1	0.0285187463649	blockFiles/set_45/main_unc/rightBlue\GB_RB_5.xlsx
381	main_unc	True	0.0	483	0	5.0	5.0	1.0	1	right	2.0	0.0	1.0	1	0.06769860243419999	blockFiles/set_45/main_unc/rightBlue\GB_RB_5.xlsx
382	main_unc	True	0.0	483	0	5.0	5.0	1.0	1	right	2.0	1.0	1.0	1	0.008204988054930001	blockFiles/set_45/main_unc/rightBlue\GB_RB_5.xlsx
383	main_unc	True	0.0	483	0	5.0	5.0	1.0	0	right	2.0	0.0	0.0	0	-0.010377323608799999	blockFiles/set_45/main_unc/rightBlue\GB_RB_5.xlsx
384	main_unc	True	0.0	483	0	5.0	5.0	1.0	0	right	2.0	0.0	0.0	0	-0.011911923904	blockFiles/set_45/main_unc/rightBlue\GB_RB_5.xlsx
385	main_unc	True	0.0	483	0	5.0	5.0	0.0	1	left	2.0	0.0	0.0	0	-0.0492080121115	blockFiles/set_45/main_unc/rightBlue\GB_RB_5.xlsx
386	main_unc	True	0.0	483	0	5.0	5.0	0.0	1	left	1.0	0.0	1.0	0	-0.04318500133230001	blockFiles/set_45/main_unc/rightBlue\GB_RB_5.xlsx
387	main_unc	True	0.0	483	0	5.0	5.0	1.0	1	right	2.0	1.0	1.0	1	0.023318751454400002	blockFiles/set_45/main_unc/rightBlue\GB_RB_5.xlsx
388	main_unc	True	0.0	483	0	5.0	5.0	0.0	1	left	1.0	1.0	1.0	0	-0.0622437847406	blockFiles/set_45/main_unc/rightBlue\GB_RB_5.xlsx
389	main_unc	True	0.0	483	0	5.0	5.0	0.0	1	left	1.0	1.0	1.0	0	-0.0760148553364	blockFiles/set_45/main_unc/rightBlue\GB_RB_5.xlsx
390	main_unc	True	0.0	483	0	5.0	5.0	1.0	0	right	1.0	1.0	1.0	0	-0.00685985419899	blockFiles/set_45/main_unc/rightBlue\GB_RB_5.xlsx
391	main_unc	True	0.0	483	0	5.0	5.0	1.0	1	right	2.0	1.0	1.0	1	0.0628897021152	blockFiles/set_45/main_unc/rightBlue\GB_RB_5.xlsx
392	main_unc	True	0.0	483	0	5.0	5.0	1.0	1	right	2.0	1.0	1.0	1	0.072710494902	blockFiles/set_45/main_unc/rightBlue\GB_RB_5.xlsx
393	main_unc	True	0.0	483	0	5.0	5.0	1.0	1	right	2.0	0.0	1.0	1	0.0166716392897	blockFiles/set_45/main_unc/rightBlue\GB_RB_5.xlsx
394	main_unc	True	0.0	483	0	5.0	5.0	1.0	1	right	2.0	1.0	1.0	1	0.0405946625397	blockFiles/set_45/main_unc/rightBlue\GB_RB_5.xlsx
395	main_unc	True	0.0	483	0	5.0	5.0	1.0	1	right	2.0	1.0	1.0	1	0.012589031271600002	blockFiles/set_45/main_unc/rightBlue\GB_RB_5.xlsx
396	main_unc	True	0.0	483	0	5.0	5.0	1.0	1	right	2.0	0.0	1.0	1	0.0609880612604	blockFiles/set_45/main_unc/rightBlue\GB_RB_5.xlsx
397	main_unc	True	0.0	483	0	5.0	5.0	0.0	1	left	1.0	1.0	1.0	0	-0.0269280477054	blockFiles/set_45/main_unc/rightBlue\GB_RB_5.xlsx
398	main_unc	True	0.0	483	0	5.0	5.0	0.0	1	left	1.0	1.0	1.0	0	-0.0706728182733	blockFiles/set_45/main_unc/rightBlue\GB_RB_5.xlsx
399	main_unc	True	0.0	483	0	5.0	5.0	1.0	1	right	2.0	1.0	1.0	1	0.012032887917	blockFiles/set_45/main_unc/rightBlue\GB_RB_5.xlsx
400	main_unc	True	0.0	483	0	6.0	6.0	1.0	1	right	1.0	0.0	1.0	1	0.039398993533099995	blockFiles/set_45/main_unc/leftBlue\GB_LB_3.xlsx
401	main_unc	True	0.0	483	0	6.0	6.0	1.0	0	right	2.0	1.0	1.0	0	-0.00900151604787	blockFiles/set_45/main_unc/leftBlue\GB_LB_3.xlsx
402	main_unc	True	0.0	483	0	6.0	6.0	0.0	1	left	1.0	0.0	0.0	0	-0.0332589163259	blockFiles/set_45/main_unc/leftBlue\GB_LB_3.xlsx
403	main_unc	True	0.0	483	0	6.0	6.0	1.0	1	right	2.0	0.0	0.0	1	0.050320135299100004	blockFiles/set_45/main_unc/leftBlue\GB_LB_3.xlsx
404	main_unc	True	0.0	483	0	6.0	6.0	0.0	1	left	2.0	1.0	1.0	0	-0.0762714482471	blockFiles/set_45/main_unc/leftBlue\GB_LB_3.xlsx
405	main_unc	True	0.0	483	0	6.0	6.0	1.0	1	right	1.0	1.0	1.0	1	0.032190236076700005	blockFiles/set_45/main_unc/leftBlue\GB_LB_3.xlsx
406	main_unc	True	0.0	483	0	6.0	6.0	1.0	0	right	2.0	1.0	1.0	0	-0.011731783430999999	blockFiles/set_45/main_unc/leftBlue\GB_LB_3.xlsx
407	main_unc	True	0.0	483	0	6.0	6.0	1.0	1	right	1.0	0.0	1.0	1	0.0225407336093	blockFiles/set_45/main_unc/leftBlue\GB_LB_3.xlsx
408	main_unc	True	0.0	483	0	6.0	6.0	0.0	1	left	2.0	1.0	1.0	0	-0.0744096973538	blockFiles/set_45/main_unc/leftBlue\GB_LB_3.xlsx
409	main_unc	True	0.0	483	0	6.0	6.0	0.0	1	left	2.0	1.0	1.0	0	-0.019247462805400004	blockFiles/set_45/main_unc/leftBlue\GB_LB_3.xlsx
410	main_unc	True	0.0	483	0	6.0	6.0	0.0	1	left	2.0	1.0	1.0	0	-0.0514562543854	blockFiles/set_45/main_unc/leftBlue\GB_LB_3.xlsx
411	main_unc	True	0.0	483	0	6.0	6.0	1.0	1	right	1.0	1.0	1.0	1	0.05223293580109999	blockFiles/set_45/main_unc/leftBlue\GB_LB_3.xlsx
412	main_unc	True	0.0	483	0	6.0	6.0	0.0	1	left	2.0	0.0	1.0	0	-0.0372396663949	blockFiles/set_45/main_unc/leftBlue\GB_LB_3.xlsx
413	main_unc	True	0.0	483	0	6.0	6.0	0.0	1	left	2.0	1.0	1.0	0	-0.07867526262999999	blockFiles/set_45/main_unc/leftBlue\GB_LB_3.xlsx
414	main_unc	True	0.0	483	0	6.0	6.0	1.0	1	right	1.0	1.0	1.0	1	0.0046331498213100005	blockFiles/set_45/main_unc/leftBlue\GB_LB_3.xlsx
415	main_unc	True	0.0	483	0	6.0	6.0	1.0	1	right	1.0	1.0	1.0	1	0.0649660883844	blockFiles/set_45/main_unc/leftBlue\GB_LB_3.xlsx
416	main_unc	True	0.0	483	0	6.0	6.0	1.0	1	right	1.0	0.0	1.0	1	0.017816134206999998	blockFiles/set_45/main_unc/leftBlue\GB_LB_3.xlsx
417	main_unc	True	0.0	483	0	6.0	6.0	1.0	1	right	1.0	1.0	1.0	1	0.0559222182818	blockFiles/set_45/main_unc/leftBlue\GB_LB_3.xlsx
418	main_unc	True	0.0	483	0	6.0	6.0	0.0	1	left	1.0	1.0	0.0	0	-0.0235580978356	blockFiles/set_45/main_unc/leftBlue\GB_LB_3.xlsx
419	main_unc	True	0.0	483	0	6.0	6.0	0.0	1	left	2.0	1.0	1.0	0	-0.063713027183	blockFiles/set_45/main_unc/leftBlue\GB_LB_3.xlsx
420	main_unc	True	0.0	483	0	6.0	6.0	1.0	1	right	1.0	1.0	1.0	1	0.00884114291519	blockFiles/set_45/main_unc/leftBlue\GB_LB_3.xlsx
421	main_unc	True	0.0	483	0	6.0	6.0	1.0	1	right	1.0	1.0	1.0	1	0.0708237809502	blockFiles/set_45/main_unc/leftBlue\GB_LB_3.xlsx
422	main_unc	True	0.0	483	0	6.0	6.0	1.0	1	right	1.0	1.0	1.0	1	0.0280377604067	blockFiles/set_45/main_unc/leftBlue\GB_LB_3.xlsx
423	main_unc	True	0.0	483	0	6.0	6.0	0.0	1	left	2.0	1.0	1.0	0	-0.0565881870873	blockFiles/set_45/main_unc/leftBlue\GB_LB_3.xlsx
424	main_unc	True	0.0	483	0	6.0	6.0	1.0	1	right	1.0	1.0	1.0	1	0.020119712837000002	blockFiles/set_45/main_unc/leftBlue\GB_LB_3.xlsx
425	main_unc	True	0.0	483	0	7.0	7.0	0.0	1	left	2.0	0.0	0.0	0	-0.0764404446818	blockFiles/set_45/main_unc/rightBlue\GB_RB_4.xlsx
426	main_unc	True	0.0	483	0	7.0	7.0	1.0	1	right	2.0	1.0	1.0	1	0.0563133248687	blockFiles/set_45/main_unc/rightBlue\GB_RB_4.xlsx
427	main_unc	True	0.0	483	0	7.0	7.0	1.0	1	right	2.0	0.0	1.0	1	0.051354174632599996	blockFiles/set_45/main_unc/rightBlue\GB_RB_4.xlsx
428	main_unc	True	0.0	483	0	7.0	7.0	1.0	1	right	2.0	0.0	1.0	1	0.063763662558	blockFiles/set_45/main_unc/rightBlue\GB_RB_4.xlsx
429	main_unc	True	0.0	483	0	7.0	7.0	0.0	1	left	2.0	0.0	0.0	0	-0.0379667796753	blockFiles/set_45/main_unc/rightBlue\GB_RB_4.xlsx
430	main_unc	True	0.0	483	0	7.0	7.0	1.0	1	right	2.0	1.0	1.0	1	0.00405078906566	blockFiles/set_45/main_unc/rightBlue\GB_RB_4.xlsx
431	main_unc	True	0.0	483	0	7.0	7.0	1.0	1	right	2.0	0.0	1.0	1	0.019805129747799997	blockFiles/set_45/main_unc/rightBlue\GB_RB_4.xlsx
432	main_unc	True	0.0	483	0	7.0	7.0	0.0	1	left	2.0	0.0	0.0	0	-0.051550066731900004	blockFiles/set_45/main_unc/rightBlue\GB_RB_4.xlsx
433	main_unc	True	0.0	483	0	7.0	7.0	1.0	1	right	2.0	1.0	1.0	1	0.035230278596300006	blockFiles/set_45/main_unc/rightBlue\GB_RB_4.xlsx
434	main_unc	True	0.0	483	0	7.0	7.0	1.0	1	right	2.0	1.0	1.0	1	0.0515524758026	blockFiles/set_45/main_unc/rightBlue\GB_RB_4.xlsx
435	main_unc	True	0.0	483	0	7.0	7.0	1.0	0	right	2.0	0.0	0.0	0	-0.017380936387900003	blockFiles/set_45/main_unc/rightBlue\GB_RB_4.xlsx
436	main_unc	True	0.0	483	0	7.0	7.0	0.0	1	left	1.0	1.0	1.0	0	-0.0246963981912	blockFiles/set_45/main_unc/rightBlue\GB_RB_4.xlsx
437	main_unc	True	0.0	483	0	7.0	7.0	0.0	1	left	1.0	1.0	1.0	0	-0.07070491079239999	blockFiles/set_45/main_unc/rightBlue\GB_RB_4.xlsx
438	main_unc	True	0.0	483	0	7.0	7.0	1.0	1	right	2.0	1.0	1.0	1	0.0610925278254	blockFiles/set_45/main_unc/rightBlue\GB_RB_4.xlsx
439	main_unc	True	0.0	483	0	7.0	7.0	1.0	1	right	2.0	1.0	1.0	1	0.007599044796080001	blockFiles/set_45/main_unc/rightBlue\GB_RB_4.xlsx
440	main_unc	True	0.0	483	0	7.0	7.0	1.0	1	right	2.0	1.0	1.0	1	0.022154772058099997	blockFiles/set_45/main_unc/rightBlue\GB_RB_4.xlsx
441	main_unc	True	0.0	483	0	7.0	7.0	1.0	1	right	2.0	1.0	1.0	1	0.058531776387199995	blockFiles/set_45/main_unc/rightBlue\GB_RB_4.xlsx
442	main_unc	True	0.0	483	0	7.0	7.0	0.0	1	left	1.0	1.0	1.0	0	-0.0790289664082	blockFiles/set_45/main_unc/rightBlue\GB_RB_4.xlsx
443	main_unc	True	0.0	483	0	7.0	7.0	1.0	0	right	2.0	1.0	0.0	0	-0.0065937539376300005	blockFiles/set_45/main_unc/rightBlue\GB_RB_4.xlsx
444	main_unc	True	0.0	483	0	7.0	7.0	1.0	1	right	2.0	1.0	1.0	1	0.0386968761869	blockFiles/set_45/main_unc/rightBlue\GB_RB_4.xlsx
445	main_unc	True	0.0	483	0	7.0	7.0	0.0	1	left	1.0	1.0	1.0	0	-0.0333529239893	blockFiles/set_45/main_unc/rightBlue\GB_RB_4.xlsx
446	main_unc	True	0.0	483	0	7.0	7.0	0.0	1	left	1.0	1.0	1.0	0	-0.07709680069239999	blockFiles/set_45/main_unc/rightBlue\GB_RB_4.xlsx
447	main_unc	True	0.0	483	0	7.0	7.0	0.0	1	left	1.0	0.0	1.0	0	-0.0370801956952	blockFiles/set_45/main_unc/rightBlue\GB_RB_4.xlsx
448	main_unc	True	0.0	483	0	7.0	7.0	0.0	1	left	1.0	1.0	1.0	0	-0.0195383328199	blockFiles/set_45/main_unc/rightBlue\GB_RB_4.xlsx
449	main_unc	True	0.0	483	0	7.0	7.0	1.0	1	right	2.0	1.0	1.0	1	0.060137044061000004	blockFiles/set_45/main_unc/rightBlue\GB_RB_4.xlsx
450	main_unc	True	1.0	483	0	8.0	8.0	n/a	0	None	n/a	0.0	n/a	0	-0.0241587024368	blockFiles/set_45/main_unc/leftBlue\GB_LB_1.xlsx
451	main_unc	True	0.0	483	0	8.0	8.0	1.0	1	right	2.0	0.0	0.0	1	0.021369405910400003	blockFiles/set_45/main_unc/leftBlue\GB_LB_1.xlsx
452	main_unc	True	0.0	483	0	8.0	8.0	1.0	1	right	2.0	0.0	0.0	1	0.0682909858413	blockFiles/set_45/main_unc/leftBlue\GB_LB_1.xlsx
453	main_unc	True	0.0	483	0	8.0	8.0	0.0	1	left	2.0	1.0	1.0	0	-0.06714439028869999	blockFiles/set_45/main_unc/leftBlue\GB_LB_1.xlsx
454	main_unc	True	0.0	483	0	8.0	8.0	0.0	1	left	2.0	0.0	1.0	0	-0.0709687911719	blockFiles/set_45/main_unc/leftBlue\GB_LB_1.xlsx
455	main_unc	True	0.0	483	0	8.0	8.0	1.0	1	right	1.0	0.0	1.0	1	0.044854028020099995	blockFiles/set_45/main_unc/leftBlue\GB_LB_1.xlsx
456	main_unc	True	0.0	483	0	8.0	8.0	0.0	1	left	1.0	0.0	0.0	0	-0.0533268704079	blockFiles/set_45/main_unc/leftBlue\GB_LB_1.xlsx
457	main_unc	True	0.0	483	0	8.0	8.0	0.0	1	left	2.0	0.0	1.0	0	-0.0266536251083	blockFiles/set_45/main_unc/leftBlue\GB_LB_1.xlsx
458	main_unc	True	0.0	483	0	8.0	8.0	1.0	1	right	1.0	1.0	1.0	1	0.011897764969600001	blockFiles/set_45/main_unc/leftBlue\GB_LB_1.xlsx
459	main_unc	True	0.0	483	0	8.0	8.0	0.0	0	left	2.0	0.0	0.0	1	0.005905152037739999	blockFiles/set_45/main_unc/leftBlue\GB_LB_1.xlsx
460	main_unc	True	0.0	483	0	8.0	8.0	0.0	1	left	2.0	1.0	1.0	0	-0.0532559379004	blockFiles/set_45/main_unc/leftBlue\GB_LB_1.xlsx
461	main_unc	True	0.0	483	0	8.0	8.0	1.0	1	right	1.0	1.0	1.0	1	0.0574314471893	blockFiles/set_45/main_unc/leftBlue\GB_LB_1.xlsx
462	main_unc	True	0.0	483	0	8.0	8.0	0.0	1	left	2.0	1.0	1.0	0	-0.04513754479590001	blockFiles/set_45/main_unc/leftBlue\GB_LB_1.xlsx
463	main_unc	True	0.0	483	0	8.0	8.0	0.0	1	left	2.0	1.0	1.0	0	-0.07138757426289999	blockFiles/set_45/main_unc/leftBlue\GB_LB_1.xlsx
464	main_unc	True	0.0	483	0	8.0	8.0	1.0	0	right	1.0	1.0	0.0	0	-0.0292324300855	blockFiles/set_45/main_unc/leftBlue\GB_LB_1.xlsx
465	main_unc	True	0.0	483	0	8.0	8.0	0.0	1	left	2.0	1.0	1.0	0	-0.0326630730741	blockFiles/set_45/main_unc/leftBlue\GB_LB_1.xlsx
466	main_unc	True	0.0	483	0	8.0	8.0	1.0	1	right	1.0	1.0	1.0	1	0.046652541290999994	blockFiles/set_45/main_unc/leftBlue\GB_LB_1.xlsx
467	main_unc	True	0.0	483	0	8.0	8.0	0.0	1	left	2.0	1.0	1.0	0	-0.06407337142149999	blockFiles/set_45/main_unc/leftBlue\GB_LB_1.xlsx
468	main_unc	True	0.0	483	0	8.0	8.0	0.0	1	left	1.0	0.0	0.0	0	-0.027191021721799997	blockFiles/set_45/main_unc/leftBlue\GB_LB_1.xlsx
469	main_unc	True	0.0	483	0	8.0	8.0	1.0	1	right	1.0	1.0	1.0	1	0.017751158867	blockFiles/set_45/main_unc/leftBlue\GB_LB_1.xlsx
470	main_unc	True	0.0	483	0	8.0	8.0	0.0	1	left	2.0	1.0	1.0	0	-0.0333360074274	blockFiles/set_45/main_unc/leftBlue\GB_LB_1.xlsx
471	main_unc	True	0.0	483	0	8.0	8.0	1.0	1	right	1.0	0.0	1.0	1	0.0163659704849	blockFiles/set_45/main_unc/leftBlue\GB_LB_1.xlsx
472	main_unc	True	0.0	483	0	8.0	8.0	1.0	1	right	1.0	1.0	1.0	1	0.055571773853199995	blockFiles/set_45/main_unc/leftBlue\GB_LB_1.xlsx
473	main_unc	True	0.0	483	0	8.0	8.0	1.0	1	right	1.0	1.0	1.0	1	0.06857702538369999	blockFiles/set_45/main_unc/leftBlue\GB_LB_1.xlsx
474	main_unc	True	0.0	483	0	8.0	8.0	0.0	0	left	1.0	1.0	1.0	1	0.018245995827	blockFiles/set_45/main_unc/leftBlue\GB_LB_1.xlsx
475	main_unc	True	0.0	483	0	8.0	8.0	0.0	1	left	2.0	1.0	1.0	0	-0.0241587024368	blockFiles/set_45/main_unc/leftBlue\GB_LB_1.xlsx
476	main_unc	True	0.0	483	0	9.0	9.0	1.0	1	right	1.0	1.0	1.0	1	0.0507901532575	blockFiles/set_45/main_unc/leftBlue\GB_LB_4.xlsx
477	main_unc	True	0.0	483	0	9.0	9.0	1.0	1	right	1.0	1.0	1.0	1	0.051534617953	blockFiles/set_45/main_unc/leftBlue\GB_LB_4.xlsx
478	main_unc	True	0.0	483	0	9.0	9.0	1.0	1	right	1.0	1.0	1.0	1	0.06283573333169999	blockFiles/set_45/main_unc/leftBlue\GB_LB_4.xlsx
479	main_unc	True	0.0	483	0	9.0	9.0	0.0	1	left	2.0	1.0	1.0	0	-0.0618083017692	blockFiles/set_45/main_unc/leftBlue\GB_LB_4.xlsx
480	main_unc	True	0.0	483	0	9.0	9.0	0.0	1	left	2.0	1.0	1.0	0	-0.010842347946	blockFiles/set_45/main_unc/leftBlue\GB_LB_4.xlsx
481	main_unc	True	0.0	483	0	9.0	9.0	1.0	1	right	1.0	1.0	1.0	1	0.0296159876138	blockFiles/set_45/main_unc/leftBlue\GB_LB_4.xlsx
482	main_unc	True	0.0	483	0	9.0	9.0	1.0	1	right	1.0	1.0	1.0	1	0.0413376739807	blockFiles/set_45/main_unc/leftBlue\GB_LB_4.xlsx
483	main_unc	True	0.0	483	0	9.0	9.0	1.0	1	right	1.0	1.0	1.0	1	0.00369098143652	blockFiles/set_45/main_unc/leftBlue\GB_LB_4.xlsx
484	main_unc	True	0.0	483	0	9.0	9.0	1.0	1	right	1.0	1.0	1.0	1	0.0574737871997	blockFiles/set_45/main_unc/leftBlue\GB_LB_4.xlsx
485	main_unc	True	0.0	483	0	9.0	9.0	1.0	1	right	1.0	1.0	1.0	1	0.0386559085362	blockFiles/set_45/main_unc/leftBlue\GB_LB_4.xlsx
486	main_unc	True	0.0	483	0	9.0	9.0	1.0	1	right	2.0	0.0	0.0	1	0.004929965194310001	blockFiles/set_45/main_unc/leftBlue\GB_LB_4.xlsx
487	main_unc	True	0.0	483	0	9.0	9.0	0.0	1	left	2.0	1.0	1.0	0	-0.0639172080718	blockFiles/set_45/main_unc/leftBlue\GB_LB_4.xlsx
488	main_unc	True	0.0	483	0	9.0	9.0	1.0	1	right	1.0	1.0	1.0	1	0.0550737576745	blockFiles/set_45/main_unc/leftBlue\GB_LB_4.xlsx
489	main_unc	True	0.0	483	0	9.0	9.0	0.0	0	left	2.0	0.0	0.0	1	0.0384802111983	blockFiles/set_45/main_unc/leftBlue\GB_LB_4.xlsx
490	main_unc	True	0.0	483	0	9.0	9.0	0.0	1	left	2.0	0.0	1.0	0	-0.040015127603	blockFiles/set_45/main_unc/leftBlue\GB_LB_4.xlsx
491	main_unc	True	0.0	483	0	9.0	9.0	1.0	0	right	1.0	0.0	0.0	0	-0.00548526128754	blockFiles/set_45/main_unc/leftBlue\GB_LB_4.xlsx
492	main_unc	True	0.0	483	0	9.0	9.0	0.0	1	left	2.0	1.0	1.0	0	-0.0753018155694	blockFiles/set_45/main_unc/leftBlue\GB_LB_4.xlsx
493	main_unc	True	0.0	483	0	9.0	9.0	1.0	0	right	2.0	0.0	1.0	0	-0.010685720983899999	blockFiles/set_45/main_unc/leftBlue\GB_LB_4.xlsx
494	main_unc	True	0.0	483	0	9.0	9.0	0.0	1	left	2.0	1.0	1.0	0	-0.051201422736	blockFiles/set_45/main_unc/leftBlue\GB_LB_4.xlsx
495	main_unc	True	0.0	483	0	9.0	9.0	0.0	1	left	2.0	0.0	1.0	0	-0.0673828557879	blockFiles/set_45/main_unc/leftBlue\GB_LB_4.xlsx
496	main_unc	True	0.0	483	0	9.0	9.0	0.0	1	left	2.0	1.0	1.0	0	-0.00989332718775	blockFiles/set_45/main_unc/leftBlue\GB_LB_4.xlsx
497	main_unc	True	0.0	483	0	9.0	9.0	1.0	1	right	1.0	1.0	1.0	1	0.0586622248217	blockFiles/set_45/main_unc/leftBlue\GB_LB_4.xlsx
498	main_unc	True	0.0	483	0	9.0	9.0	0.0	1	left	2.0	1.0	1.0	0	-0.0303828276694	blockFiles/set_45/main_unc/leftBlue\GB_LB_4.xlsx
499	main_unc	True	0.0	483	0	9.0	9.0	1.0	1	right	1.0	0.0	1.0	1	0.03453904042019999	blockFiles/set_45/main_unc/leftBlue\GB_LB_4.xlsx
500	main_unc	True	0.0	483	0	9.0	9.0	0.0	1	left	2.0	1.0	1.0	0	-0.062183369156	blockFiles/set_45/main_unc/leftBlue\GB_LB_4.xlsx
501	main_unc	True	0.0	483	0	10.0	10.0	1.0	1	right	2.0	1.0	0.0	1	0.053076587896800004	blockFiles/set_45/main_unc/leftBlue\GB_LB_5.xlsx
502	main_unc	True	0.0	483	0	10.0	10.0	1.0	1	right	2.0	0.0	0.0	1	0.0727086926624	blockFiles/set_45/main_unc/leftBlue\GB_LB_5.xlsx
503	main_unc	True	0.0	483	0	10.0	10.0	1.0	1	right	2.0	0.0	0.0	1	0.043196121547400004	blockFiles/set_45/main_unc/leftBlue\GB_LB_5.xlsx
504	main_unc	True	0.0	483	0	10.0	10.0	1.0	1	right	1.0	1.0	1.0	1	0.006301369611169999	blockFiles/set_45/main_unc/leftBlue\GB_LB_5.xlsx
505	main_unc	True	0.0	483	0	10.0	10.0	1.0	1	right	1.0	1.0	1.0	1	0.0155349094793	blockFiles/set_45/main_unc/leftBlue\GB_LB_5.xlsx
506	main_unc	True	0.0	483	0	10.0	10.0	0.0	1	left	2.0	1.0	1.0	0	-0.022460251729900002	blockFiles/set_45/main_unc/leftBlue\GB_LB_5.xlsx
507	main_unc	True	0.0	483	0	10.0	10.0	0.0	1	left	2.0	1.0	1.0	0	-0.00925008825958	blockFiles/set_45/main_unc/leftBlue\GB_LB_5.xlsx
508	main_unc	True	0.0	483	0	10.0	10.0	1.0	1	right	1.0	1.0	1.0	1	0.061444687154099994	blockFiles/set_45/main_unc/leftBlue\GB_LB_5.xlsx
509	main_unc	True	0.0	483	0	10.0	10.0	1.0	1	right	1.0	1.0	1.0	1	0.07414637772369999	blockFiles/set_45/main_unc/leftBlue\GB_LB_5.xlsx
510	main_unc	True	0.0	483	0	10.0	10.0	1.0	1	right	1.0	1.0	1.0	1	0.0423741383292	blockFiles/set_45/main_unc/leftBlue\GB_LB_5.xlsx
511	main_unc	True	0.0	483	0	10.0	10.0	0.0	1	left	2.0	1.0	1.0	0	-0.0142851405777	blockFiles/set_45/main_unc/leftBlue\GB_LB_5.xlsx
512	main_unc	True	0.0	483	0	10.0	10.0	0.0	1	left	2.0	0.0	1.0	0	-0.0564667953551	blockFiles/set_45/main_unc/leftBlue\GB_LB_5.xlsx
513	main_unc	True	0.0	483	0	10.0	10.0	0.0	1	left	2.0	1.0	1.0	0	-0.0242799789831	blockFiles/set_45/main_unc/leftBlue\GB_LB_5.xlsx
514	main_unc	True	0.0	483	0	10.0	10.0	0.0	1	left	2.0	1.0	1.0	0	-0.055860702823800006	blockFiles/set_45/main_unc/leftBlue\GB_LB_5.xlsx
515	main_unc	True	0.0	483	0	10.0	10.0	1.0	1	right	1.0	1.0	1.0	1	0.025250880233900003	blockFiles/set_45/main_unc/leftBlue\GB_LB_5.xlsx
516	main_unc	True	0.0	483	0	10.0	10.0	0.0	0	left	1.0	0.0	1.0	1	0.0150562260672	blockFiles/set_45/main_unc/leftBlue\GB_LB_5.xlsx
517	main_unc	True	0.0	483	0	10.0	10.0	0.0	1	left	2.0	1.0	1.0	0	-0.038570446558300005	blockFiles/set_45/main_unc/leftBlue\GB_LB_5.xlsx
518	main_unc	True	0.0	483	0	10.0	10.0	1.0	1	right	1.0	1.0	1.0	1	0.039647980798	blockFiles/set_45/main_unc/leftBlue\GB_LB_5.xlsx
519	main_unc	True	0.0	483	0	10.0	10.0	1.0	0	right	2.0	1.0	1.0	0	-0.00414067700505	blockFiles/set_45/main_unc/leftBlue\GB_LB_5.xlsx
520	main_unc	True	0.0	483	0	10.0	10.0	0.0	1	left	2.0	1.0	1.0	0	-0.0788565465622	blockFiles/set_45/main_unc/leftBlue\GB_LB_5.xlsx
521	main_unc	True	0.0	483	0	10.0	10.0	0.0	1	left	2.0	1.0	1.0	0	-0.0394467060082	blockFiles/set_45/main_unc/leftBlue\GB_LB_5.xlsx
522	main_unc	True	0.0	483	0	10.0	10.0	0.0	0	left	2.0	0.0	0.0	1	0.00317777222022	blockFiles/set_45/main_unc/leftBlue\GB_LB_5.xlsx
523	main_unc	True	0.0	483	0	10.0	10.0	0.0	1	left	2.0	0.0	1.0	0	-0.076525967624	blockFiles/set_45/main_unc/leftBlue\GB_LB_5.xlsx
524	main_unc	True	0.0	483	0	10.0	10.0	1.0	1	right	1.0	0.0	1.0	1	0.0269832331687	blockFiles/set_45/main_unc/leftBlue\GB_LB_5.xlsx
525	main_unc	True	0.0	483	0	10.0	10.0	0.0	1	left	2.0	1.0	1.0	0	-0.054056657440999994	blockFiles/set_45/main_unc/leftBlue\GB_LB_5.xlsx
526	main_unc	True	1.0	483	0	11.0	11.0	1.0	1	right	n/a	0.0	n/a	1	0.0627146662213	blockFiles/set_45/main_unc/leftBlue\GB_LB_6.xlsx
527	main_unc	True	0.0	483	0	11.0	11.0	0.0	1	left	2.0	1.0	1.0	0	-0.0406690481119	blockFiles/set_45/main_unc/leftBlue\GB_LB_6.xlsx
528	main_unc	True	0.0	483	0	11.0	11.0	1.0	1	right	1.0	1.0	1.0	1	0.0635142867081	blockFiles/set_45/main_unc/leftBlue\GB_LB_6.xlsx
529	main_unc	True	0.0	483	0	11.0	11.0	0.0	1	left	2.0	0.0	1.0	0	-0.0380317562446	blockFiles/set_45/main_unc/leftBlue\GB_LB_6.xlsx
530	main_unc	True	0.0	483	0	11.0	11.0	1.0	1	right	1.0	1.0	1.0	1	0.018940698280900004	blockFiles/set_45/main_unc/leftBlue\GB_LB_6.xlsx
531	main_unc	True	0.0	483	0	11.0	11.0	0.0	1	left	2.0	0.0	1.0	0	-0.05005305916069999	blockFiles/set_45/main_unc/leftBlue\GB_LB_6.xlsx
532	main_unc	True	0.0	483	0	11.0	11.0	1.0	1	right	1.0	1.0	1.0	1	0.0680008110963	blockFiles/set_45/main_unc/leftBlue\GB_LB_6.xlsx
533	main_unc	True	0.0	483	0	11.0	11.0	0.0	1	left	2.0	1.0	1.0	0	-0.0121034324914	blockFiles/set_45/main_unc/leftBlue\GB_LB_6.xlsx
534	main_unc	True	0.0	483	0	11.0	11.0	0.0	1	left	2.0	0.0	1.0	0	-0.0359364320152	blockFiles/set_45/main_unc/leftBlue\GB_LB_6.xlsx
535	main_unc	True	0.0	483	0	11.0	11.0	0.0	1	left	2.0	1.0	1.0	0	-0.0739298151433	blockFiles/set_45/main_unc/leftBlue\GB_LB_6.xlsx
536	main_unc	True	0.0	483	0	11.0	11.0	1.0	1	right	1.0	1.0	1.0	1	0.007543103042989999	blockFiles/set_45/main_unc/leftBlue\GB_LB_6.xlsx
537	main_unc	True	0.0	483	0	11.0	11.0	1.0	0	right	1.0	0.0	0.0	0	-0.00218369621783	blockFiles/set_45/main_unc/leftBlue\GB_LB_6.xlsx
538	main_unc	True	0.0	483	0	11.0	11.0	0.0	1	left	2.0	1.0	1.0	0	-0.0737486323901	blockFiles/set_45/main_unc/leftBlue\GB_LB_6.xlsx
539	main_unc	True	0.0	483	0	11.0	11.0	1.0	1	right	1.0	1.0	1.0	1	0.00788949370384	blockFiles/set_45/main_unc/leftBlue\GB_LB_6.xlsx
540	main_unc	True	0.0	483	0	11.0	11.0	1.0	1	right	1.0	1.0	1.0	1	0.0409602865018	blockFiles/set_45/main_unc/leftBlue\GB_LB_6.xlsx
541	main_unc	True	0.0	483	0	11.0	11.0	1.0	0	right	2.0	1.0	1.0	0	-0.021061647497099996	blockFiles/set_45/main_unc/leftBlue\GB_LB_6.xlsx
542	main_unc	True	0.0	483	0	11.0	11.0	0.0	1	left	2.0	1.0	1.0	0	-0.06407002603640001	blockFiles/set_45/main_unc/leftBlue\GB_LB_6.xlsx
543	main_unc	True	0.0	483	0	11.0	11.0	1.0	1	right	1.0	1.0	1.0	1	0.0369734572805	blockFiles/set_45/main_unc/leftBlue\GB_LB_6.xlsx
544	main_unc	True	0.0	483	0	11.0	11.0	1.0	1	right	1.0	1.0	1.0	1	0.018037114776700003	blockFiles/set_45/main_unc/leftBlue\GB_LB_6.xlsx
545	main_unc	True	0.0	483	0	11.0	11.0	0.0	1	left	2.0	1.0	1.0	0	-0.07532000917939999	blockFiles/set_45/main_unc/leftBlue\GB_LB_6.xlsx
546	main_unc	True	0.0	483	0	11.0	11.0	0.0	1	left	1.0	0.0	0.0	0	-0.0105410226062	blockFiles/set_45/main_unc/leftBlue\GB_LB_6.xlsx
547	main_unc	True	0.0	483	0	11.0	11.0	0.0	1	left	2.0	1.0	1.0	0	-0.05071632396430001	blockFiles/set_45/main_unc/leftBlue\GB_LB_6.xlsx
548	main_unc	True	0.0	483	0	11.0	11.0	1.0	1	right	1.0	0.0	1.0	1	0.03688937118280001	blockFiles/set_45/main_unc/leftBlue\GB_LB_6.xlsx
549	main_unc	True	0.0	483	0	11.0	11.0	0.0	1	left	2.0	1.0	1.0	0	-0.058162045925900005	blockFiles/set_45/main_unc/leftBlue\GB_LB_6.xlsx
550	main_unc	True	0.0	483	0	11.0	11.0	1.0	1	right	1.0	0.0	1.0	1	0.0329184799455	blockFiles/set_45/main_unc/leftBlue\GB_LB_6.xlsx
551	main_unc	True	0.0	483	0	11.0	11.0	1.0	1	right	1.0	1.0	1.0	1	0.0627146662213	blockFiles/set_45/main_unc/leftBlue\GB_LB_6.xlsx
