	trial_type	complete	missIndex	participant	id	blockNumber	b_t	d_t	decision1.corr	decision1.keys	a_t	r_t	decision2.corr	s_t	u_t	block_file
0	main_safe	True	1.0	476	0	0.0	0.0	1.0	1	right	n/a	0.0	n/a	1	0.08	blockFiles/set_51/main_safe/rightBlue\GB_RB_3.xlsx
1	main_safe	True	0.0	476	0	0.0	0.0	1.0	1	right	2.0	1.0	1.0	1	0.08	blockFiles/set_51/main_safe/rightBlue\GB_RB_3.xlsx
2	main_safe	True	0.0	476	0	0.0	0.0	0.0	1	left	1.0	1.0	1.0	0	-0.08	blockFiles/set_51/main_safe/rightBlue\GB_RB_3.xlsx
3	main_safe	True	0.0	476	0	0.0	0.0	0.0	1	left	1.0	1.0	1.0	0	-0.08	blockFiles/set_51/main_safe/rightBlue\GB_RB_3.xlsx
4	main_safe	True	0.0	476	0	0.0	0.0	0.0	1	left	1.0	1.0	1.0	0	-0.08	blockFiles/set_51/main_safe/rightBlue\GB_RB_3.xlsx
5	main_safe	True	0.0	476	0	0.0	0.0	1.0	1	right	2.0	1.0	1.0	1	0.08	blockFiles/set_51/main_safe/rightBlue\GB_RB_3.xlsx
6	main_safe	True	0.0	476	0	0.0	0.0	1.0	1	right	2.0	1.0	1.0	1	0.08	blockFiles/set_51/main_safe/rightBlue\GB_RB_3.xlsx
7	main_safe	True	0.0	476	0	0.0	0.0	1.0	1	right	2.0	0.0	1.0	1	0.08	blockFiles/set_51/main_safe/rightBlue\GB_RB_3.xlsx
8	main_safe	True	0.0	476	0	0.0	0.0	1.0	1	right	2.0	1.0	1.0	1	0.08	blockFiles/set_51/main_safe/rightBlue\GB_RB_3.xlsx
9	main_safe	True	0.0	476	0	0.0	0.0	1.0	1	right	2.0	0.0	1.0	1	0.08	blockFiles/set_51/main_safe/rightBlue\GB_RB_3.xlsx
10	main_safe	True	0.0	476	0	0.0	0.0	1.0	1	right	2.0	1.0	1.0	1	0.08	blockFiles/set_51/main_safe/rightBlue\GB_RB_3.xlsx
11	main_safe	True	0.0	476	0	0.0	0.0	0.0	1	left	1.0	1.0	1.0	0	-0.08	blockFiles/set_51/main_safe/rightBlue\GB_RB_3.xlsx
12	main_safe	True	0.0	476	0	0.0	0.0	0.0	1	left	1.0	1.0	1.0	0	-0.08	blockFiles/set_51/main_safe/rightBlue\GB_RB_3.xlsx
13	main_safe	True	0.0	476	0	0.0	0.0	0.0	1	left	1.0	1.0	1.0	0	-0.08	blockFiles/set_51/main_safe/rightBlue\GB_RB_3.xlsx
14	main_safe	True	0.0	476	0	0.0	0.0	1.0	1	right	2.0	0.0	1.0	1	0.08	blockFiles/set_51/main_safe/rightBlue\GB_RB_3.xlsx
15	main_safe	True	0.0	476	0	0.0	0.0	0.0	1	left	1.0	1.0	1.0	0	-0.08	blockFiles/set_51/main_safe/rightBlue\GB_RB_3.xlsx
16	main_safe	True	0.0	476	0	0.0	0.0	1.0	1	right	2.0	1.0	1.0	1	0.08	blockFiles/set_51/main_safe/rightBlue\GB_RB_3.xlsx
17	main_safe	True	0.0	476	0	0.0	0.0	0.0	1	left	1.0	0.0	1.0	0	-0.08	blockFiles/set_51/main_safe/rightBlue\GB_RB_3.xlsx
18	main_safe	True	0.0	476	0	0.0	0.0	0.0	1	left	1.0	0.0	1.0	0	-0.08	blockFiles/set_51/main_safe/rightBlue\GB_RB_3.xlsx
19	main_safe	True	0.0	476	0	0.0	0.0	0.0	1	left	1.0	1.0	1.0	0	-0.08	blockFiles/set_51/main_safe/rightBlue\GB_RB_3.xlsx
20	main_safe	True	0.0	476	0	0.0	0.0	0.0	1	left	1.0	1.0	1.0	0	-0.08	blockFiles/set_51/main_safe/rightBlue\GB_RB_3.xlsx
21	main_safe	True	0.0	476	0	0.0	0.0	0.0	1	left	1.0	1.0	1.0	0	-0.08	blockFiles/set_51/main_safe/rightBlue\GB_RB_3.xlsx
22	main_safe	True	0.0	476	0	0.0	0.0	1.0	1	right	2.0	1.0	1.0	1	0.08	blockFiles/set_51/main_safe/rightBlue\GB_RB_3.xlsx
23	main_safe	True	0.0	476	0	0.0	0.0	1.0	1	right	2.0	1.0	1.0	1	0.08	blockFiles/set_51/main_safe/rightBlue\GB_RB_3.xlsx
24	main_safe	True	0.0	476	0	0.0	0.0	1.0	1	right	2.0	1.0	1.0	1	0.08	blockFiles/set_51/main_safe/rightBlue\GB_RB_3.xlsx
25	main_safe	True	0.0	476	0	0.0	0.0	1.0	1	right	2.0	1.0	1.0	1	0.08	blockFiles/set_51/main_safe/rightBlue\GB_RB_3.xlsx
26	main_safe	True	0.0	476	0	1.0	1.0	0.0	1	left	2.0	1.0	1.0	0	-0.08	blockFiles/set_51/main_safe/leftBlue\GB_LB_2.xlsx
27	main_safe	True	0.0	476	0	1.0	1.0	0.0	1	left	2.0	1.0	1.0	0	-0.08	blockFiles/set_51/main_safe/leftBlue\GB_LB_2.xlsx
28	main_safe	True	0.0	476	0	1.0	1.0	0.0	1	left	2.0	0.0	1.0	0	-0.08	blockFiles/set_51/main_safe/leftBlue\GB_LB_2.xlsx
29	main_safe	True	0.0	476	0	1.0	1.0	1.0	1	right	1.0	1.0	1.0	1	0.08	blockFiles/set_51/main_safe/leftBlue\GB_LB_2.xlsx
30	main_safe	True	0.0	476	0	1.0	1.0	1.0	1	right	1.0	1.0	1.0	1	0.08	blockFiles/set_51/main_safe/leftBlue\GB_LB_2.xlsx
31	main_safe	True	0.0	476	0	1.0	1.0	1.0	1	right	1.0	1.0	1.0	1	0.08	blockFiles/set_51/main_safe/leftBlue\GB_LB_2.xlsx
32	main_safe	True	0.0	476	0	1.0	1.0	1.0	1	right	1.0	1.0	1.0	1	0.08	blockFiles/set_51/main_safe/leftBlue\GB_LB_2.xlsx
33	main_safe	True	0.0	476	0	1.0	1.0	0.0	1	left	2.0	1.0	1.0	0	-0.08	blockFiles/set_51/main_safe/leftBlue\GB_LB_2.xlsx
34	main_safe	True	0.0	476	0	1.0	1.0	1.0	1	right	1.0	1.0	1.0	1	0.08	blockFiles/set_51/main_safe/leftBlue\GB_LB_2.xlsx
35	main_safe	True	0.0	476	0	1.0	1.0	1.0	1	right	1.0	1.0	1.0	1	0.08	blockFiles/set_51/main_safe/leftBlue\GB_LB_2.xlsx
36	main_safe	True	0.0	476	0	1.0	1.0	0.0	1	left	2.0	1.0	1.0	0	-0.08	blockFiles/set_51/main_safe/leftBlue\GB_LB_2.xlsx
37	main_safe	True	0.0	476	0	1.0	1.0	1.0	1	right	1.0	0.0	1.0	1	0.08	blockFiles/set_51/main_safe/leftBlue\GB_LB_2.xlsx
38	main_safe	True	0.0	476	0	1.0	1.0	0.0	1	left	2.0	1.0	1.0	0	-0.08	blockFiles/set_51/main_safe/leftBlue\GB_LB_2.xlsx
39	main_safe	True	0.0	476	0	1.0	1.0	0.0	1	left	2.0	1.0	1.0	0	-0.08	blockFiles/set_51/main_safe/leftBlue\GB_LB_2.xlsx
40	main_safe	True	0.0	476	0	1.0	1.0	1.0	1	right	1.0	1.0	1.0	1	0.08	blockFiles/set_51/main_safe/leftBlue\GB_LB_2.xlsx
41	main_safe	True	0.0	476	0	1.0	1.0	0.0	1	left	2.0	1.0	1.0	0	-0.08	blockFiles/set_51/main_safe/leftBlue\GB_LB_2.xlsx
42	main_safe	True	0.0	476	0	1.0	1.0	1.0	1	right	1.0	1.0	1.0	1	0.08	blockFiles/set_51/main_safe/leftBlue\GB_LB_2.xlsx
43	main_safe	True	0.0	476	0	1.0	1.0	1.0	1	right	1.0	1.0	1.0	1	0.08	blockFiles/set_51/main_safe/leftBlue\GB_LB_2.xlsx
44	main_safe	True	0.0	476	0	1.0	1.0	1.0	1	right	1.0	1.0	1.0	1	0.08	blockFiles/set_51/main_safe/leftBlue\GB_LB_2.xlsx
45	main_safe	True	0.0	476	0	1.0	1.0	1.0	1	right	1.0	0.0	1.0	1	0.08	blockFiles/set_51/main_safe/leftBlue\GB_LB_2.xlsx
46	main_safe	True	0.0	476	0	1.0	1.0	0.0	1	left	2.0	1.0	1.0	0	-0.08	blockFiles/set_51/main_safe/leftBlue\GB_LB_2.xlsx
47	main_safe	True	0.0	476	0	1.0	1.0	0.0	1	left	2.0	1.0	1.0	0	-0.08	blockFiles/set_51/main_safe/leftBlue\GB_LB_2.xlsx
48	main_safe	True	0.0	476	0	1.0	1.0	0.0	1	left	2.0	0.0	1.0	0	-0.08	blockFiles/set_51/main_safe/leftBlue\GB_LB_2.xlsx
49	main_safe	True	1.0	476	0	1.0	1.0	1.0	1	right	n/a	0.0	n/a	1	0.08	blockFiles/set_51/main_safe/leftBlue\GB_LB_2.xlsx
50	main_safe	True	0.0	476	0	1.0	1.0	0.0	1	left	2.0	1.0	1.0	0	-0.08	blockFiles/set_51/main_safe/leftBlue\GB_LB_2.xlsx
51	main_safe	True	0.0	476	0	1.0	1.0	1.0	1	right	1.0	1.0	1.0	1	0.08	blockFiles/set_51/main_safe/leftBlue\GB_LB_2.xlsx
52	main_safe	True	0.0	476	0	2.0	2.0	0.0	1	left	2.0	1.0	0.0	0	-0.08	blockFiles/set_51/main_safe/rightBlue\GB_RB_1.xlsx
53	main_safe	True	0.0	476	0	2.0	2.0	0.0	1	left	2.0	0.0	0.0	0	-0.08	blockFiles/set_51/main_safe/rightBlue\GB_RB_1.xlsx
54	main_safe	True	0.0	476	0	2.0	2.0	0.0	1	left	2.0	0.0	0.0	0	-0.08	blockFiles/set_51/main_safe/rightBlue\GB_RB_1.xlsx
55	main_safe	True	0.0	476	0	2.0	2.0	0.0	1	left	1.0	0.0	1.0	0	-0.08	blockFiles/set_51/main_safe/rightBlue\GB_RB_1.xlsx
56	main_safe	True	0.0	476	0	2.0	2.0	1.0	1	right	1.0	0.0	0.0	1	0.08	blockFiles/set_51/main_safe/rightBlue\GB_RB_1.xlsx
57	main_safe	True	0.0	476	0	2.0	2.0	0.0	1	left	1.0	1.0	1.0	0	-0.08	blockFiles/set_51/main_safe/rightBlue\GB_RB_1.xlsx
58	main_safe	True	0.0	476	0	2.0	2.0	1.0	1	right	2.0	1.0	1.0	1	0.08	blockFiles/set_51/main_safe/rightBlue\GB_RB_1.xlsx
59	main_safe	True	0.0	476	0	2.0	2.0	1.0	1	right	2.0	0.0	1.0	1	0.08	blockFiles/set_51/main_safe/rightBlue\GB_RB_1.xlsx
60	main_safe	True	0.0	476	0	2.0	2.0	1.0	1	right	2.0	1.0	1.0	1	0.08	blockFiles/set_51/main_safe/rightBlue\GB_RB_1.xlsx
61	main_safe	True	0.0	476	0	2.0	2.0	1.0	1	right	2.0	1.0	1.0	1	0.08	blockFiles/set_51/main_safe/rightBlue\GB_RB_1.xlsx
62	main_safe	True	0.0	476	0	2.0	2.0	0.0	1	left	1.0	0.0	1.0	0	-0.08	blockFiles/set_51/main_safe/rightBlue\GB_RB_1.xlsx
63	main_safe	True	0.0	476	0	2.0	2.0	1.0	1	right	2.0	1.0	1.0	1	0.08	blockFiles/set_51/main_safe/rightBlue\GB_RB_1.xlsx
64	main_safe	True	0.0	476	0	2.0	2.0	1.0	1	right	2.0	0.0	1.0	1	0.08	blockFiles/set_51/main_safe/rightBlue\GB_RB_1.xlsx
65	main_safe	True	0.0	476	0	2.0	2.0	1.0	1	right	2.0	1.0	1.0	1	0.08	blockFiles/set_51/main_safe/rightBlue\GB_RB_1.xlsx
66	main_safe	True	0.0	476	0	2.0	2.0	1.0	1	right	2.0	1.0	1.0	1	0.08	blockFiles/set_51/main_safe/rightBlue\GB_RB_1.xlsx
67	main_safe	True	0.0	476	0	2.0	2.0	0.0	1	left	1.0	1.0	1.0	0	-0.08	blockFiles/set_51/main_safe/rightBlue\GB_RB_1.xlsx
68	main_safe	True	0.0	476	0	2.0	2.0	0.0	1	left	1.0	1.0	1.0	0	-0.08	blockFiles/set_51/main_safe/rightBlue\GB_RB_1.xlsx
69	main_safe	True	0.0	476	0	2.0	2.0	0.0	1	left	1.0	1.0	1.0	0	-0.08	blockFiles/set_51/main_safe/rightBlue\GB_RB_1.xlsx
70	main_safe	True	0.0	476	0	2.0	2.0	1.0	1	right	2.0	1.0	1.0	1	0.08	blockFiles/set_51/main_safe/rightBlue\GB_RB_1.xlsx
71	main_safe	True	0.0	476	0	2.0	2.0	1.0	1	right	2.0	1.0	1.0	1	0.08	blockFiles/set_51/main_safe/rightBlue\GB_RB_1.xlsx
72	main_safe	True	0.0	476	0	2.0	2.0	0.0	1	left	1.0	1.0	1.0	0	-0.08	blockFiles/set_51/main_safe/rightBlue\GB_RB_1.xlsx
73	main_safe	True	0.0	476	0	2.0	2.0	0.0	1	left	1.0	1.0	1.0	0	-0.08	blockFiles/set_51/main_safe/rightBlue\GB_RB_1.xlsx
74	main_safe	True	0.0	476	0	2.0	2.0	1.0	1	right	2.0	1.0	1.0	1	0.08	blockFiles/set_51/main_safe/rightBlue\GB_RB_1.xlsx
75	main_safe	True	0.0	476	0	2.0	2.0	0.0	1	left	1.0	1.0	1.0	0	-0.08	blockFiles/set_51/main_safe/rightBlue\GB_RB_1.xlsx
76	main_safe	True	0.0	476	0	2.0	2.0	0.0	1	left	1.0	1.0	1.0	0	-0.08	blockFiles/set_51/main_safe/rightBlue\GB_RB_1.xlsx
77	main_safe	True	0.0	476	0	3.0	3.0	1.0	1	right	2.0	0.0	1.0	1	0.08	blockFiles/set_51/main_safe/rightBlue\GB_RB_2.xlsx
78	main_safe	True	0.0	476	0	3.0	3.0	1.0	1	right	1.0	0.0	0.0	1	0.08	blockFiles/set_51/main_safe/rightBlue\GB_RB_2.xlsx
79	main_safe	True	0.0	476	0	3.0	3.0	0.0	1	left	1.0	1.0	1.0	0	-0.08	blockFiles/set_51/main_safe/rightBlue\GB_RB_2.xlsx
80	main_safe	True	0.0	476	0	3.0	3.0	1.0	1	right	2.0	1.0	1.0	1	0.08	blockFiles/set_51/main_safe/rightBlue\GB_RB_2.xlsx
81	main_safe	True	0.0	476	0	3.0	3.0	1.0	1	right	2.0	1.0	1.0	1	0.08	blockFiles/set_51/main_safe/rightBlue\GB_RB_2.xlsx
82	main_safe	True	0.0	476	0	3.0	3.0	1.0	1	right	2.0	1.0	1.0	1	0.08	blockFiles/set_51/main_safe/rightBlue\GB_RB_2.xlsx
83	main_safe	True	0.0	476	0	3.0	3.0	0.0	1	left	1.0	1.0	1.0	0	-0.08	blockFiles/set_51/main_safe/rightBlue\GB_RB_2.xlsx
84	main_safe	True	0.0	476	0	3.0	3.0	0.0	1	left	1.0	1.0	1.0	0	-0.08	blockFiles/set_51/main_safe/rightBlue\GB_RB_2.xlsx
85	main_safe	True	0.0	476	0	3.0	3.0	1.0	1	right	2.0	0.0	1.0	1	0.08	blockFiles/set_51/main_safe/rightBlue\GB_RB_2.xlsx
86	main_safe	True	0.0	476	0	3.0	3.0	0.0	1	left	1.0	0.0	1.0	0	-0.08	blockFiles/set_51/main_safe/rightBlue\GB_RB_2.xlsx
87	main_safe	True	0.0	476	0	3.0	3.0	1.0	1	right	2.0	1.0	1.0	1	0.08	blockFiles/set_51/main_safe/rightBlue\GB_RB_2.xlsx
88	main_safe	True	0.0	476	0	3.0	3.0	0.0	1	left	1.0	1.0	1.0	0	-0.08	blockFiles/set_51/main_safe/rightBlue\GB_RB_2.xlsx
89	main_safe	True	0.0	476	0	3.0	3.0	0.0	1	left	1.0	1.0	1.0	0	-0.08	blockFiles/set_51/main_safe/rightBlue\GB_RB_2.xlsx
90	main_safe	True	0.0	476	0	3.0	3.0	0.0	1	left	1.0	1.0	1.0	0	-0.08	blockFiles/set_51/main_safe/rightBlue\GB_RB_2.xlsx
91	main_safe	True	0.0	476	0	3.0	3.0	0.0	1	left	1.0	1.0	1.0	0	-0.08	blockFiles/set_51/main_safe/rightBlue\GB_RB_2.xlsx
92	main_safe	True	0.0	476	0	3.0	3.0	1.0	1	right	2.0	1.0	1.0	1	0.08	blockFiles/set_51/main_safe/rightBlue\GB_RB_2.xlsx
93	main_safe	True	0.0	476	0	3.0	3.0	0.0	1	left	1.0	0.0	1.0	0	-0.08	blockFiles/set_51/main_safe/rightBlue\GB_RB_2.xlsx
94	main_safe	True	0.0	476	0	3.0	3.0	1.0	1	right	2.0	1.0	1.0	1	0.08	blockFiles/set_51/main_safe/rightBlue\GB_RB_2.xlsx
95	main_safe	True	0.0	476	0	3.0	3.0	0.0	1	left	1.0	1.0	1.0	0	-0.08	blockFiles/set_51/main_safe/rightBlue\GB_RB_2.xlsx
96	main_safe	True	0.0	476	0	3.0	3.0	1.0	1	right	2.0	1.0	1.0	1	0.08	blockFiles/set_51/main_safe/rightBlue\GB_RB_2.xlsx
97	main_safe	True	0.0	476	0	3.0	3.0	1.0	1	right	2.0	1.0	1.0	1	0.08	blockFiles/set_51/main_safe/rightBlue\GB_RB_2.xlsx
98	main_safe	True	0.0	476	0	3.0	3.0	0.0	1	left	1.0	1.0	1.0	0	-0.08	blockFiles/set_51/main_safe/rightBlue\GB_RB_2.xlsx
99	main_safe	True	0.0	476	0	3.0	3.0	1.0	1	right	2.0	1.0	1.0	1	0.08	blockFiles/set_51/main_safe/rightBlue\GB_RB_2.xlsx
100	main_safe	True	0.0	476	0	3.0	3.0	0.0	1	left	1.0	1.0	1.0	0	-0.08	blockFiles/set_51/main_safe/rightBlue\GB_RB_2.xlsx
101	main_safe	True	0.0	476	0	3.0	3.0	1.0	1	right	2.0	1.0	1.0	1	0.08	blockFiles/set_51/main_safe/rightBlue\GB_RB_2.xlsx
102	main_safe	True	0.0	476	0	4.0	4.0	0.0	1	left	2.0	1.0	1.0	0	-0.08	blockFiles/set_51/main_safe/leftBlue\GB_LB_3.xlsx
103	main_safe	True	0.0	476	0	4.0	4.0	1.0	1	right	1.0	1.0	1.0	1	0.08	blockFiles/set_51/main_safe/leftBlue\GB_LB_3.xlsx
104	main_safe	True	0.0	476	0	4.0	4.0	0.0	1	left	2.0	1.0	1.0	0	-0.08	blockFiles/set_51/main_safe/leftBlue\GB_LB_3.xlsx
105	main_safe	True	0.0	476	0	4.0	4.0	1.0	1	right	1.0	0.0	1.0	1	0.08	blockFiles/set_51/main_safe/leftBlue\GB_LB_3.xlsx
106	main_safe	True	0.0	476	0	4.0	4.0	1.0	1	right	1.0	1.0	1.0	1	0.08	blockFiles/set_51/main_safe/leftBlue\GB_LB_3.xlsx
107	main_safe	True	0.0	476	0	4.0	4.0	0.0	1	left	2.0	1.0	1.0	0	-0.08	blockFiles/set_51/main_safe/leftBlue\GB_LB_3.xlsx
108	main_safe	True	0.0	476	0	4.0	4.0	1.0	1	right	1.0	1.0	1.0	1	0.08	blockFiles/set_51/main_safe/leftBlue\GB_LB_3.xlsx
109	main_safe	True	0.0	476	0	4.0	4.0	0.0	1	left	2.0	1.0	1.0	0	-0.08	blockFiles/set_51/main_safe/leftBlue\GB_LB_3.xlsx
110	main_safe	True	0.0	476	0	4.0	4.0	0.0	1	left	2.0	1.0	1.0	0	-0.08	blockFiles/set_51/main_safe/leftBlue\GB_LB_3.xlsx
111	main_safe	True	0.0	476	0	4.0	4.0	0.0	1	left	2.0	0.0	1.0	0	-0.08	blockFiles/set_51/main_safe/leftBlue\GB_LB_3.xlsx
112	main_safe	True	0.0	476	0	4.0	4.0	1.0	1	right	1.0	1.0	1.0	1	0.08	blockFiles/set_51/main_safe/leftBlue\GB_LB_3.xlsx
113	main_safe	True	0.0	476	0	4.0	4.0	0.0	1	left	2.0	1.0	1.0	0	-0.08	blockFiles/set_51/main_safe/leftBlue\GB_LB_3.xlsx
114	main_safe	True	0.0	476	0	4.0	4.0	0.0	1	left	2.0	1.0	1.0	0	-0.08	blockFiles/set_51/main_safe/leftBlue\GB_LB_3.xlsx
115	main_safe	True	0.0	476	0	4.0	4.0	1.0	1	right	1.0	1.0	1.0	1	0.08	blockFiles/set_51/main_safe/leftBlue\GB_LB_3.xlsx
116	main_safe	True	0.0	476	0	4.0	4.0	1.0	1	right	1.0	1.0	1.0	1	0.08	blockFiles/set_51/main_safe/leftBlue\GB_LB_3.xlsx
117	main_safe	True	0.0	476	0	4.0	4.0	1.0	1	right	1.0	1.0	1.0	1	0.08	blockFiles/set_51/main_safe/leftBlue\GB_LB_3.xlsx
118	main_safe	True	0.0	476	0	4.0	4.0	1.0	1	right	1.0	1.0	1.0	1	0.08	blockFiles/set_51/main_safe/leftBlue\GB_LB_3.xlsx
119	main_safe	True	0.0	476	0	4.0	4.0	0.0	1	left	2.0	1.0	1.0	0	-0.08	blockFiles/set_51/main_safe/leftBlue\GB_LB_3.xlsx
120	main_safe	True	0.0	476	0	4.0	4.0	0.0	1	left	2.0	1.0	1.0	0	-0.08	blockFiles/set_51/main_safe/leftBlue\GB_LB_3.xlsx
121	main_safe	True	0.0	476	0	4.0	4.0	0.0	1	left	2.0	0.0	1.0	0	-0.08	blockFiles/set_51/main_safe/leftBlue\GB_LB_3.xlsx
122	main_safe	True	0.0	476	0	4.0	4.0	1.0	1	right	1.0	0.0	1.0	1	0.08	blockFiles/set_51/main_safe/leftBlue\GB_LB_3.xlsx
123	main_safe	True	0.0	476	0	4.0	4.0	0.0	1	left	2.0	1.0	1.0	0	-0.08	blockFiles/set_51/main_safe/leftBlue\GB_LB_3.xlsx
124	main_safe	True	0.0	476	0	4.0	4.0	1.0	1	right	1.0	1.0	1.0	1	0.08	blockFiles/set_51/main_safe/leftBlue\GB_LB_3.xlsx
125	main_safe	True	0.0	476	0	4.0	4.0	0.0	1	left	2.0	1.0	1.0	0	-0.08	blockFiles/set_51/main_safe/leftBlue\GB_LB_3.xlsx
126	main_safe	True	0.0	476	0	4.0	4.0	1.0	1	right	1.0	1.0	1.0	1	0.08	blockFiles/set_51/main_safe/leftBlue\GB_LB_3.xlsx
127	main_safe	True	1.0	476	0	5.0	5.0	1.0	1	right	n/a	0.0	n/a	1	0.08	blockFiles/set_51/main_safe/leftBlue\GB_LB_1.xlsx
128	main_safe	True	0.0	476	0	5.0	5.0	0.0	1	left	1.0	0.0	0.0	0	-0.08	blockFiles/set_51/main_safe/leftBlue\GB_LB_1.xlsx
129	main_safe	True	0.0	476	0	5.0	5.0	0.0	1	left	2.0	1.0	1.0	0	-0.08	blockFiles/set_51/main_safe/leftBlue\GB_LB_1.xlsx
130	main_safe	True	0.0	476	0	5.0	5.0	0.0	1	left	2.0	1.0	1.0	0	-0.08	blockFiles/set_51/main_safe/leftBlue\GB_LB_1.xlsx
131	main_safe	True	0.0	476	0	5.0	5.0	1.0	1	right	1.0	1.0	1.0	1	0.08	blockFiles/set_51/main_safe/leftBlue\GB_LB_1.xlsx
132	main_safe	True	1.0	476	0	5.0	5.0	1.0	1	right	n/a	0.0	n/a	1	0.08	blockFiles/set_51/main_safe/leftBlue\GB_LB_1.xlsx
133	main_safe	True	0.0	476	0	5.0	5.0	1.0	1	right	1.0	1.0	1.0	1	0.08	blockFiles/set_51/main_safe/leftBlue\GB_LB_1.xlsx
134	main_safe	True	0.0	476	0	5.0	5.0	0.0	1	left	2.0	1.0	1.0	0	-0.08	blockFiles/set_51/main_safe/leftBlue\GB_LB_1.xlsx
135	main_safe	True	0.0	476	0	5.0	5.0	0.0	1	left	2.0	1.0	1.0	0	-0.08	blockFiles/set_51/main_safe/leftBlue\GB_LB_1.xlsx
136	main_safe	True	0.0	476	0	5.0	5.0	0.0	1	left	2.0	1.0	1.0	0	-0.08	blockFiles/set_51/main_safe/leftBlue\GB_LB_1.xlsx
137	main_safe	True	0.0	476	0	5.0	5.0	1.0	1	right	1.0	1.0	1.0	1	0.08	blockFiles/set_51/main_safe/leftBlue\GB_LB_1.xlsx
138	main_safe	True	0.0	476	0	5.0	5.0	0.0	1	left	2.0	1.0	1.0	0	-0.08	blockFiles/set_51/main_safe/leftBlue\GB_LB_1.xlsx
139	main_safe	True	0.0	476	0	5.0	5.0	0.0	1	left	2.0	0.0	1.0	0	-0.08	blockFiles/set_51/main_safe/leftBlue\GB_LB_1.xlsx
140	main_safe	True	0.0	476	0	5.0	5.0	0.0	0	left	1.0	1.0	1.0	1	0.08	blockFiles/set_51/main_safe/leftBlue\GB_LB_1.xlsx
141	main_safe	True	0.0	476	0	5.0	5.0	1.0	1	right	1.0	1.0	1.0	1	0.08	blockFiles/set_51/main_safe/leftBlue\GB_LB_1.xlsx
142	main_safe	True	0.0	476	0	5.0	5.0	0.0	1	left	2.0	1.0	1.0	0	-0.08	blockFiles/set_51/main_safe/leftBlue\GB_LB_1.xlsx
143	main_safe	True	0.0	476	0	5.0	5.0	1.0	1	right	1.0	1.0	1.0	1	0.08	blockFiles/set_51/main_safe/leftBlue\GB_LB_1.xlsx
144	main_safe	True	0.0	476	0	5.0	5.0	0.0	1	left	2.0	1.0	1.0	0	-0.08	blockFiles/set_51/main_safe/leftBlue\GB_LB_1.xlsx
145	main_safe	True	0.0	476	0	5.0	5.0	0.0	1	left	2.0	1.0	1.0	0	-0.08	blockFiles/set_51/main_safe/leftBlue\GB_LB_1.xlsx
146	main_safe	True	0.0	476	0	5.0	5.0	1.0	1	right	1.0	0.0	1.0	1	0.08	blockFiles/set_51/main_safe/leftBlue\GB_LB_1.xlsx
147	main_safe	True	0.0	476	0	5.0	5.0	1.0	1	right	1.0	0.0	1.0	1	0.08	blockFiles/set_51/main_safe/leftBlue\GB_LB_1.xlsx
148	main_safe	True	0.0	476	0	5.0	5.0	0.0	1	left	2.0	1.0	1.0	0	-0.08	blockFiles/set_51/main_safe/leftBlue\GB_LB_1.xlsx
149	main_safe	True	0.0	476	0	5.0	5.0	1.0	1	right	1.0	1.0	1.0	1	0.08	blockFiles/set_51/main_safe/leftBlue\GB_LB_1.xlsx
150	main_safe	True	1.0	476	0	5.0	5.0	1.0	1	right	n/a	0.0	n/a	1	0.08	blockFiles/set_51/main_safe/leftBlue\GB_LB_1.xlsx
151	main_safe	True	0.0	476	0	5.0	5.0	0.0	1	left	2.0	0.0	1.0	0	-0.08	blockFiles/set_51/main_safe/leftBlue\GB_LB_1.xlsx
152	main_safe	True	0.0	476	0	5.0	5.0	1.0	1	right	1.0	0.0	1.0	1	0.08	blockFiles/set_51/main_safe/leftBlue\GB_LB_1.xlsx
153	main_safe	True	0.0	476	0	5.0	5.0	1.0	1	right	1.0	1.0	1.0	1	0.08	blockFiles/set_51/main_safe/leftBlue\GB_LB_1.xlsx
154	main_safe	True	0.0	476	0	5.0	5.0	1.0	1	right	1.0	1.0	1.0	1	0.08	blockFiles/set_51/main_safe/leftBlue\GB_LB_1.xlsx
155	patches	True	n/a	476	0	n/a	n/a	1.0	0	right	n/a	n/a	n/a	0	-0.0225562739186	blockFiles/set_51/main_PD/GB_runPatches1.xlsx
156	patches	True	n/a	476	0	n/a	n/a	0.0	1	left	n/a	n/a	n/a	0	-0.0655033630319	blockFiles/set_51/main_PD/GB_runPatches1.xlsx
157	patches	True	n/a	476	0	n/a	n/a	0.0	1	left	n/a	n/a	n/a	0	-0.0231388402916	blockFiles/set_51/main_PD/GB_runPatches1.xlsx
158	patches	True	n/a	476	0	n/a	n/a	1.0	1	right	n/a	n/a	n/a	1	0.055385815259099996	blockFiles/set_51/main_PD/GB_runPatches1.xlsx
159	patches	True	n/a	476	0	n/a	n/a	1.0	1	right	n/a	n/a	n/a	1	0.0629658585042	blockFiles/set_51/main_PD/GB_runPatches1.xlsx
160	patches	True	n/a	476	0	n/a	n/a	0.0	1	left	n/a	n/a	n/a	0	-0.0695144138858	blockFiles/set_51/main_PD/GB_runPatches1.xlsx
161	patches	True	n/a	476	0	n/a	n/a	0.0	1	left	n/a	n/a	n/a	0	-0.0454600526392	blockFiles/set_51/main_PD/GB_runPatches1.xlsx
162	patches	True	n/a	476	0	n/a	n/a	0.0	1	left	n/a	n/a	n/a	0	-0.0536258088797	blockFiles/set_51/main_PD/GB_runPatches1.xlsx
163	patches	True	n/a	476	0	n/a	n/a	0.0	0	left	n/a	n/a	n/a	1	0.00906520247459	blockFiles/set_51/main_PD/GB_runPatches1.xlsx
164	patches	True	n/a	476	0	n/a	n/a	1.0	0	right	n/a	n/a	n/a	0	-0.00453172152862	blockFiles/set_51/main_PD/GB_runPatches1.xlsx
165	patches	True	n/a	476	0	n/a	n/a	1.0	1	right	n/a	n/a	n/a	1	0.0682204973511	blockFiles/set_51/main_PD/GB_runPatches1.xlsx
166	patches	True	n/a	476	0	n/a	n/a	1.0	0	right	n/a	n/a	n/a	0	-0.00337589649484	blockFiles/set_51/main_PD/GB_runPatches1.xlsx
167	patches	True	n/a	476	0	n/a	n/a	0.0	1	left	n/a	n/a	n/a	0	-0.047339590582999996	blockFiles/set_51/main_PD/GB_runPatches1.xlsx
168	patches	True	n/a	476	0	n/a	n/a	1.0	0	right	n/a	n/a	n/a	0	-0.012848685346500001	blockFiles/set_51/main_PD/GB_runPatches1.xlsx
169	patches	True	n/a	476	0	n/a	n/a	1.0	1	right	n/a	n/a	n/a	1	0.0695491338708	blockFiles/set_51/main_PD/GB_runPatches1.xlsx
170	patches	True	n/a	476	0	n/a	n/a	1.0	1	right	n/a	n/a	n/a	1	0.042762847431	blockFiles/set_51/main_PD/GB_runPatches1.xlsx
171	patches	True	n/a	476	0	n/a	n/a	1.0	0	right	n/a	n/a	n/a	0	-0.0161559350416	blockFiles/set_51/main_PD/GB_runPatches1.xlsx
172	patches	True	n/a	476	0	n/a	n/a	1.0	1	right	n/a	n/a	n/a	1	0.0693601823039	blockFiles/set_51/main_PD/GB_runPatches1.xlsx
173	patches	True	n/a	476	0	n/a	n/a	0.0	1	left	n/a	n/a	n/a	0	-0.064382434953	blockFiles/set_51/main_PD/GB_runPatches1.xlsx
174	patches	True	n/a	476	0	n/a	n/a	1.0	1	right	n/a	n/a	n/a	1	0.00976979119703	blockFiles/set_51/main_PD/GB_runPatches1.xlsx
175	patches	True	n/a	476	0	n/a	n/a	0.0	1	left	n/a	n/a	n/a	0	-0.043442655708599995	blockFiles/set_51/main_PD/GB_runPatches1.xlsx
176	patches	True	n/a	476	0	n/a	n/a	1.0	1	right	n/a	n/a	n/a	1	0.007075081020590001	blockFiles/set_51/main_PD/GB_runPatches1.xlsx
177	patches	True	n/a	476	0	n/a	n/a	1.0	0	right	n/a	n/a	n/a	0	-0.0567054096423	blockFiles/set_51/main_PD/GB_runPatches1.xlsx
178	patches	True	n/a	476	0	n/a	n/a	0.0	1	left	n/a	n/a	n/a	0	-0.0198500152305	blockFiles/set_51/main_PD/GB_runPatches1.xlsx
179	patches	True	n/a	476	0	n/a	n/a	0.0	1	left	n/a	n/a	n/a	0	-0.0133473790251	blockFiles/set_51/main_PD/GB_runPatches1.xlsx
180	patches	True	n/a	476	0	n/a	n/a	1.0	1	right	n/a	n/a	n/a	1	0.07114125864580001	blockFiles/set_51/main_PD/GB_runPatches1.xlsx
181	patches	True	n/a	476	0	n/a	n/a	0.0	1	left	n/a	n/a	n/a	0	-0.05554572993890001	blockFiles/set_51/main_PD/GB_runPatches1.xlsx
182	patches	True	n/a	476	0	n/a	n/a	1.0	1	right	n/a	n/a	n/a	1	0.0251336605847	blockFiles/set_51/main_PD/GB_runPatches1.xlsx
183	patches	True	n/a	476	0	n/a	n/a	1.0	0	right	n/a	n/a	n/a	0	-0.0419014594145	blockFiles/set_51/main_PD/GB_runPatches1.xlsx
184	patches	True	n/a	476	0	n/a	n/a	1.0	1	right	n/a	n/a	n/a	1	0.0282011835836	blockFiles/set_51/main_PD/GB_runPatches1.xlsx
185	patches	True	n/a	476	0	n/a	n/a	1.0	1	right	n/a	n/a	n/a	1	0.049327696878500006	blockFiles/set_51/main_PD/GB_runPatches1.xlsx
186	patches	True	n/a	476	0	n/a	n/a	0.0	1	left	n/a	n/a	n/a	0	-0.0560217912868	blockFiles/set_51/main_PD/GB_runPatches1.xlsx
187	patches	True	n/a	476	0	n/a	n/a	0.0	1	left	n/a	n/a	n/a	0	-0.059209331572099996	blockFiles/set_51/main_PD/GB_runPatches1.xlsx
188	patches	True	n/a	476	0	n/a	n/a	1.0	0	right	n/a	n/a	n/a	0	-0.018515324220099997	blockFiles/set_51/main_PD/GB_runPatches1.xlsx
189	patches	True	n/a	476	0	n/a	n/a	0.0	1	left	n/a	n/a	n/a	0	-0.00489583477378	blockFiles/set_51/main_PD/GB_runPatches1.xlsx
190	patches	True	n/a	476	0	n/a	n/a	1.0	1	right	n/a	n/a	n/a	1	0.00118675632402	blockFiles/set_51/main_PD/GB_runPatches1.xlsx
191	patches	True	n/a	476	0	n/a	n/a	1.0	1	right	n/a	n/a	n/a	1	0.0546738330275	blockFiles/set_51/main_PD/GB_runPatches1.xlsx
192	patches	True	n/a	476	0	n/a	n/a	1.0	1	right	n/a	n/a	n/a	1	0.0167410165817	blockFiles/set_51/main_PD/GB_runPatches1.xlsx
193	patches	True	n/a	476	0	n/a	n/a	1.0	1	right	n/a	n/a	n/a	1	0.0741444279812	blockFiles/set_51/main_PD/GB_runPatches1.xlsx
194	patches	True	n/a	476	0	n/a	n/a	1.0	1	right	n/a	n/a	n/a	1	0.07875564759600001	blockFiles/set_51/main_PD/GB_runPatches1.xlsx
195	patches	True	n/a	476	0	n/a	n/a	1.0	0	right	n/a	n/a	n/a	0	-0.0161196545511	blockFiles/set_51/main_PD/GB_runPatches1.xlsx
196	patches	True	n/a	476	0	n/a	n/a	1.0	1	right	n/a	n/a	n/a	1	0.0027612055651799997	blockFiles/set_51/main_PD/GB_runPatches1.xlsx
197	patches	True	n/a	476	0	n/a	n/a	1.0	1	right	n/a	n/a	n/a	1	0.0378291829303	blockFiles/set_51/main_PD/GB_runPatches1.xlsx
198	patches	True	n/a	476	0	n/a	n/a	1.0	0	right	n/a	n/a	n/a	0	-0.00795888252556	blockFiles/set_51/main_PD/GB_runPatches1.xlsx
199	patches	True	n/a	476	0	n/a	n/a	1.0	1	right	n/a	n/a	n/a	1	0.0776313744299	blockFiles/set_51/main_PD/GB_runPatches1.xlsx
200	patches	True	n/a	476	0	n/a	n/a	1.0	1	right	n/a	n/a	n/a	1	0.038350218907	blockFiles/set_51/main_PD/GB_runPatches1.xlsx
201	patches	True	n/a	476	0	n/a	n/a	1.0	1	right	n/a	n/a	n/a	1	0.0464251105674	blockFiles/set_51/main_PD/GB_runPatches1.xlsx
202	patches	True	n/a	476	0	n/a	n/a	1.0	1	right	n/a	n/a	n/a	1	0.0586401139759	blockFiles/set_51/main_PD/GB_runPatches1.xlsx
203	patches	True	n/a	476	0	n/a	n/a	1.0	1	right	n/a	n/a	n/a	1	0.0015416479297	blockFiles/set_51/main_PD/GB_runPatches1.xlsx
204	patches	True	n/a	476	0	n/a	n/a	1.0	1	right	n/a	n/a	n/a	1	0.0718105866015	blockFiles/set_51/main_PD/GB_runPatches1.xlsx
205	patches	True	n/a	476	0	n/a	n/a	1.0	1	right	n/a	n/a	n/a	1	0.0689354572259	blockFiles/set_51/main_PD/GB_runPatches1.xlsx
206	patches	True	n/a	476	0	n/a	n/a	1.0	0	right	n/a	n/a	n/a	0	-0.023665766380699997	blockFiles/set_51/main_PD/GB_runPatches1.xlsx
207	patches	True	n/a	476	0	n/a	n/a	1.0	1	right	n/a	n/a	n/a	1	0.07306901285419999	blockFiles/set_51/main_PD/GB_runPatches1.xlsx
208	patches	True	n/a	476	0	n/a	n/a	1.0	1	right	n/a	n/a	n/a	1	0.04501764988530001	blockFiles/set_51/main_PD/GB_runPatches1.xlsx
209	patches	True	n/a	476	0	n/a	n/a	1.0	0	right	n/a	n/a	n/a	0	-0.0154119662382	blockFiles/set_51/main_PD/GB_runPatches1.xlsx
210	patches	True	n/a	476	0	n/a	n/a	0.0	1	left	n/a	n/a	n/a	0	-0.049593047928099994	blockFiles/set_51/main_PD/GB_runPatches1.xlsx
211	patches	True	n/a	476	0	n/a	n/a	0.0	1	left	n/a	n/a	n/a	0	-0.0161506571434	blockFiles/set_51/main_PD/GB_runPatches1.xlsx
212	patches	True	n/a	476	0	n/a	n/a	1.0	1	right	n/a	n/a	n/a	1	0.00931200416759	blockFiles/set_51/main_PD/GB_runPatches1.xlsx
213	patches	True	n/a	476	0	n/a	n/a	1.0	1	right	n/a	n/a	n/a	1	0.07945081394169999	blockFiles/set_51/main_PD/GB_runPatches1.xlsx
214	patches	True	n/a	476	0	n/a	n/a	1.0	1	right	n/a	n/a	n/a	1	0.049383425526300005	blockFiles/set_51/main_PD/GB_runPatches1.xlsx
215	patches	True	n/a	476	0	n/a	n/a	1.0	1	right	n/a	n/a	n/a	1	0.022225938327599996	blockFiles/set_51/main_PD/GB_runPatches1.xlsx
216	patches	True	n/a	476	0	n/a	n/a	0.0	1	left	n/a	n/a	n/a	0	-0.0319168037176	blockFiles/set_51/main_PD/GB_runPatches1.xlsx
217	patches	True	n/a	476	0	n/a	n/a	0.0	1	left	n/a	n/a	n/a	0	-0.047622283306	blockFiles/set_51/main_PD/GB_runPatches1.xlsx
218	patches	True	n/a	476	0	n/a	n/a	0.0	1	left	n/a	n/a	n/a	0	-0.0256510489993	blockFiles/set_51/main_PD/GB_runPatches1.xlsx
219	patches	True	n/a	476	0	n/a	n/a	0.0	1	left	n/a	n/a	n/a	0	-0.069957301598	blockFiles/set_51/main_PD/GB_runPatches1.xlsx
220	patches	True	n/a	476	0	n/a	n/a	1.0	1	right	n/a	n/a	n/a	1	0.0375950927474	blockFiles/set_51/main_PD/GB_runPatches1.xlsx
221	patches	True	n/a	476	0	n/a	n/a	1.0	1	right	n/a	n/a	n/a	1	0.0490217177011	blockFiles/set_51/main_PD/GB_runPatches1.xlsx
222	patches	True	n/a	476	0	n/a	n/a	1.0	0	right	n/a	n/a	n/a	0	-0.0312681441382	blockFiles/set_51/main_PD/GB_runPatches1.xlsx
223	patches	True	n/a	476	0	n/a	n/a	0.0	0	left	n/a	n/a	n/a	1	0.00583643924445	blockFiles/set_51/main_PD/GB_runPatches1.xlsx
224	patches	True	n/a	476	0	n/a	n/a	0.0	1	left	n/a	n/a	n/a	0	-0.018932823780900002	blockFiles/set_51/main_PD/GB_runPatches1.xlsx
225	patches	True	n/a	476	0	n/a	n/a	0.0	1	left	n/a	n/a	n/a	0	-0.0641420686804	blockFiles/set_51/main_PD/GB_runPatches1.xlsx
226	patches	True	n/a	476	0	n/a	n/a	1.0	1	right	n/a	n/a	n/a	1	0.0530146022327	blockFiles/set_51/main_PD/GB_runPatches1.xlsx
227	patches	True	n/a	476	0	n/a	n/a	0.0	1	left	n/a	n/a	n/a	0	-0.0574356499501	blockFiles/set_51/main_PD/GB_runPatches1.xlsx
228	patches	True	n/a	476	0	n/a	n/a	0.0	1	left	n/a	n/a	n/a	0	-0.0107405434176	blockFiles/set_51/main_PD/GB_runPatches1.xlsx
229	patches	True	n/a	476	0	n/a	n/a	0.0	0	left	n/a	n/a	n/a	1	0.00894154252484	blockFiles/set_51/main_PD/GB_runPatches1.xlsx
230	patches	True	n/a	476	0	n/a	n/a	0.0	1	left	n/a	n/a	n/a	0	-0.0764522396028	blockFiles/set_51/main_PD/GB_runPatches1.xlsx
231	patches	True	n/a	476	0	n/a	n/a	1.0	1	right	n/a	n/a	n/a	1	0.0401146069355	blockFiles/set_51/main_PD/GB_runPatches1.xlsx
232	patches	True	n/a	476	0	n/a	n/a	0.0	1	left	n/a	n/a	n/a	0	-0.061240845229500004	blockFiles/set_51/main_PD/GB_runPatches1.xlsx
233	patches	True	n/a	476	0	n/a	n/a	1.0	1	right	n/a	n/a	n/a	1	0.0503276748955	blockFiles/set_51/main_PD/GB_runPatches1.xlsx
234	patches	True	n/a	476	0	n/a	n/a	1.0	1	right	n/a	n/a	n/a	1	0.0178302124143	blockFiles/set_51/main_PD/GB_runPatches1.xlsx
235	patches	True	n/a	476	0	n/a	n/a	0.0	1	left	n/a	n/a	n/a	0	-0.024658087585100002	blockFiles/set_51/main_PD/GB_runPatches1.xlsx
236	patches	True	n/a	476	0	n/a	n/a	1.0	1	right	n/a	n/a	n/a	1	0.052182376142600004	blockFiles/set_51/main_PD/GB_runPatches1.xlsx
237	patches	True	n/a	476	0	n/a	n/a	0.0	0	left	n/a	n/a	n/a	1	0.0313455546275	blockFiles/set_51/main_PD/GB_runPatches1.xlsx
238	patches	True	n/a	476	0	n/a	n/a	0.0	1	left	n/a	n/a	n/a	0	-0.0675769593939	blockFiles/set_51/main_PD/GB_runPatches1.xlsx
239	patches	True	n/a	476	0	n/a	n/a	1.0	1	right	n/a	n/a	n/a	1	0.021366149056700003	blockFiles/set_51/main_PD/GB_runPatches1.xlsx
240	patches	True	n/a	476	0	n/a	n/a	0.0	1	left	n/a	n/a	n/a	0	-0.033132482934699996	blockFiles/set_51/main_PD/GB_runPatches1.xlsx
241	patches	True	n/a	476	0	n/a	n/a	0.0	1	left	n/a	n/a	n/a	0	-0.026857822835400003	blockFiles/set_51/main_PD/GB_runPatches1.xlsx
242	patches	True	n/a	476	0	n/a	n/a	1.0	1	right	n/a	n/a	n/a	1	0.0608633944206	blockFiles/set_51/main_PD/GB_runPatches1.xlsx
243	patches	True	n/a	476	0	n/a	n/a	1.0	1	right	n/a	n/a	n/a	1	0.049890908058699994	blockFiles/set_51/main_PD/GB_runPatches1.xlsx
244	patches	True	n/a	476	0	n/a	n/a	1.0	1	right	n/a	n/a	n/a	1	0.0008640061505139999	blockFiles/set_51/main_PD/GB_runPatches1.xlsx
245	patches	True	n/a	476	0	n/a	n/a	1.0	1	right	n/a	n/a	n/a	1	0.0317695813067	blockFiles/set_51/main_PD/GB_runPatches1.xlsx
246	patches	True	n/a	476	0	n/a	n/a	0.0	1	left	n/a	n/a	n/a	0	-0.07959572402760001	blockFiles/set_51/main_PD/GB_runPatches1.xlsx
247	patches	True	n/a	476	0	n/a	n/a	0.0	1	left	n/a	n/a	n/a	0	-0.028675024136900002	blockFiles/set_51/main_PD/GB_runPatches1.xlsx
248	patches	True	n/a	476	0	n/a	n/a	1.0	1	right	n/a	n/a	n/a	1	0.0616907072812	blockFiles/set_51/main_PD/GB_runPatches1.xlsx
249	patches	True	n/a	476	0	n/a	n/a	1.0	1	right	n/a	n/a	n/a	1	0.0478759778291	blockFiles/set_51/main_PD/GB_runPatches1.xlsx
250	patches	True	n/a	476	0	n/a	n/a	1.0	0	right	n/a	n/a	n/a	0	-0.0165681348369	blockFiles/set_51/main_PD/GB_runPatches1.xlsx
251	patches	True	n/a	476	0	n/a	n/a	0.0	1	left	n/a	n/a	n/a	0	-0.055650619398800005	blockFiles/set_51/main_PD/GB_runPatches1.xlsx
252	patches	True	n/a	476	0	n/a	n/a	0.0	1	left	n/a	n/a	n/a	0	-0.009089415483180001	blockFiles/set_51/main_PD/GB_runPatches1.xlsx
253	patches	True	n/a	476	0	n/a	n/a	0.0	1	left	n/a	n/a	n/a	0	-0.0559551522508	blockFiles/set_51/main_PD/GB_runPatches1.xlsx
254	patches	True	n/a	476	0	n/a	n/a	0.0	1	left	n/a	n/a	n/a	0	-0.0338943629339	blockFiles/set_51/main_PD/GB_runPatches1.xlsx
255	main_unc	True	0.0	476	0	0.0	0.0	1.0	1	right	1.0	1.0	1.0	1	0.0539068795927	blockFiles/set_51/main_unc/leftBlue\GB_LB_3.xlsx
256	main_unc	True	0.0	476	0	0.0	0.0	1.0	1	right	1.0	1.0	1.0	1	0.0734833700955	blockFiles/set_51/main_unc/leftBlue\GB_LB_3.xlsx
257	main_unc	True	0.0	476	0	0.0	0.0	0.0	1	left	1.0	0.0	0.0	0	-0.00309763299301	blockFiles/set_51/main_unc/leftBlue\GB_LB_3.xlsx
258	main_unc	True	0.0	476	0	0.0	0.0	1.0	0	right	2.0	1.0	1.0	0	-0.028170950990200002	blockFiles/set_51/main_unc/leftBlue\GB_LB_3.xlsx
259	main_unc	True	0.0	476	0	0.0	0.0	1.0	1	right	1.0	1.0	1.0	1	0.00871661430225	blockFiles/set_51/main_unc/leftBlue\GB_LB_3.xlsx
260	main_unc	True	0.0	476	0	0.0	0.0	1.0	0	right	1.0	1.0	0.0	0	-0.0216083799489	blockFiles/set_51/main_unc/leftBlue\GB_LB_3.xlsx
261	main_unc	True	0.0	476	0	0.0	0.0	0.0	1	left	1.0	0.0	0.0	0	-0.048145999070300004	blockFiles/set_51/main_unc/leftBlue\GB_LB_3.xlsx
262	main_unc	True	0.0	476	0	0.0	0.0	0.0	1	left	1.0	0.0	0.0	0	-0.0549672882445	blockFiles/set_51/main_unc/leftBlue\GB_LB_3.xlsx
263	main_unc	True	0.0	476	0	0.0	0.0	0.0	1	left	1.0	0.0	0.0	0	-0.03467791588980001	blockFiles/set_51/main_unc/leftBlue\GB_LB_3.xlsx
264	main_unc	True	0.0	476	0	0.0	0.0	0.0	1	left	2.0	1.0	1.0	0	-0.054852901995199994	blockFiles/set_51/main_unc/leftBlue\GB_LB_3.xlsx
265	main_unc	True	1.0	476	0	0.0	0.0	0.0	0	left	n/a	0.0	n/a	1	0.0184439115226	blockFiles/set_51/main_unc/leftBlue\GB_LB_3.xlsx
266	main_unc	True	0.0	476	0	0.0	0.0	0.0	1	left	2.0	1.0	1.0	0	-0.05913014352319999	blockFiles/set_51/main_unc/leftBlue\GB_LB_3.xlsx
267	main_unc	True	0.0	476	0	0.0	0.0	0.0	1	left	2.0	1.0	1.0	0	-0.0596574011073	blockFiles/set_51/main_unc/leftBlue\GB_LB_3.xlsx
268	main_unc	True	0.0	476	0	0.0	0.0	1.0	1	right	1.0	1.0	1.0	1	0.0377847323567	blockFiles/set_51/main_unc/leftBlue\GB_LB_3.xlsx
269	main_unc	True	0.0	476	0	0.0	0.0	1.0	1	right	1.0	1.0	1.0	1	0.0239869423583	blockFiles/set_51/main_unc/leftBlue\GB_LB_3.xlsx
270	main_unc	True	0.0	476	0	0.0	0.0	1.0	1	right	1.0	0.0	1.0	1	0.0664652894251	blockFiles/set_51/main_unc/leftBlue\GB_LB_3.xlsx
271	main_unc	True	0.0	476	0	0.0	0.0	1.0	1	right	1.0	1.0	1.0	1	0.0367075127922	blockFiles/set_51/main_unc/leftBlue\GB_LB_3.xlsx
272	main_unc	True	0.0	476	0	0.0	0.0	0.0	1	left	2.0	1.0	1.0	0	-0.0139399492927	blockFiles/set_51/main_unc/leftBlue\GB_LB_3.xlsx
273	main_unc	True	1.0	476	0	0.0	0.0	1.0	1	right	n/a	0.0	n/a	1	0.061409323848800004	blockFiles/set_51/main_unc/leftBlue\GB_LB_3.xlsx
274	main_unc	True	0.0	476	0	0.0	0.0	1.0	1	right	1.0	0.0	1.0	1	0.0709010106139	blockFiles/set_51/main_unc/leftBlue\GB_LB_3.xlsx
275	main_unc	True	0.0	476	0	0.0	0.0	1.0	1	right	1.0	1.0	1.0	1	0.0211339510605	blockFiles/set_51/main_unc/leftBlue\GB_LB_3.xlsx
276	main_unc	True	1.0	476	0	0.0	0.0	n/a	0	None	n/a	0.0	n/a	1	0.0606054755487	blockFiles/set_51/main_unc/leftBlue\GB_LB_3.xlsx
277	main_unc	True	0.0	476	0	0.0	0.0	0.0	1	left	2.0	0.0	1.0	0	-0.0468274201453	blockFiles/set_51/main_unc/leftBlue\GB_LB_3.xlsx
278	main_unc	True	0.0	476	0	0.0	0.0	0.0	0	left	1.0	1.0	1.0	1	0.008324387650939999	blockFiles/set_51/main_unc/leftBlue\GB_LB_3.xlsx
279	main_unc	True	0.0	476	0	0.0	0.0	0.0	1	left	2.0	1.0	1.0	0	-0.0512581321038	blockFiles/set_51/main_unc/leftBlue\GB_LB_3.xlsx
280	main_unc	True	0.0	476	0	0.0	0.0	0.0	0	left	2.0	0.0	0.0	1	0.0184439115226	blockFiles/set_51/main_unc/leftBlue\GB_LB_3.xlsx
281	main_unc	True	0.0	476	0	0.0	0.0	1.0	1	right	1.0	1.0	1.0	1	0.061409323848800004	blockFiles/set_51/main_unc/leftBlue\GB_LB_3.xlsx
282	main_unc	True	0.0	476	0	0.0	0.0	0.0	0	left	1.0	1.0	1.0	1	0.0606054755487	blockFiles/set_51/main_unc/leftBlue\GB_LB_3.xlsx
283	main_unc	True	0.0	476	0	1.0	1.0	1.0	1	right	1.0	1.0	1.0	1	0.010781816765700001	blockFiles/set_51/main_unc/leftBlue\GB_LB_2.xlsx
284	main_unc	True	0.0	476	0	1.0	1.0	0.0	1	left	1.0	0.0	0.0	0	-0.03910962130869999	blockFiles/set_51/main_unc/leftBlue\GB_LB_2.xlsx
285	main_unc	True	0.0	476	0	1.0	1.0	1.0	0	right	2.0	1.0	1.0	0	-0.019899684079	blockFiles/set_51/main_unc/leftBlue\GB_LB_2.xlsx
286	main_unc	True	0.0	476	0	1.0	1.0	0.0	0	left	2.0	0.0	0.0	1	0.00961680930108	blockFiles/set_51/main_unc/leftBlue\GB_LB_2.xlsx
287	main_unc	True	0.0	476	0	1.0	1.0	0.0	1	left	1.0	0.0	0.0	0	-0.0783040815964	blockFiles/set_51/main_unc/leftBlue\GB_LB_2.xlsx
288	main_unc	True	0.0	476	0	1.0	1.0	0.0	1	left	2.0	1.0	1.0	0	-0.068948344402	blockFiles/set_51/main_unc/leftBlue\GB_LB_2.xlsx
289	main_unc	True	0.0	476	0	1.0	1.0	0.0	0	left	1.0	0.0	1.0	1	0.0337299755029	blockFiles/set_51/main_unc/leftBlue\GB_LB_2.xlsx
290	main_unc	True	0.0	476	0	1.0	1.0	0.0	0	left	2.0	0.0	0.0	1	0.010520073436200001	blockFiles/set_51/main_unc/leftBlue\GB_LB_2.xlsx
291	main_unc	True	0.0	476	0	1.0	1.0	0.0	1	left	2.0	1.0	1.0	0	-0.0634738790244	blockFiles/set_51/main_unc/leftBlue\GB_LB_2.xlsx
292	main_unc	True	0.0	476	0	1.0	1.0	1.0	1	right	1.0	1.0	1.0	1	0.0230837594718	blockFiles/set_51/main_unc/leftBlue\GB_LB_2.xlsx
293	main_unc	True	0.0	476	0	1.0	1.0	1.0	1	right	1.0	0.0	1.0	1	0.055722185894800005	blockFiles/set_51/main_unc/leftBlue\GB_LB_2.xlsx
294	main_unc	True	0.0	476	0	1.0	1.0	1.0	0	right	1.0	0.0	0.0	0	-0.0061655790545	blockFiles/set_51/main_unc/leftBlue\GB_LB_2.xlsx
295	main_unc	True	0.0	476	0	1.0	1.0	0.0	1	left	2.0	1.0	1.0	0	-0.0676848484017	blockFiles/set_51/main_unc/leftBlue\GB_LB_2.xlsx
296	main_unc	True	1.0	476	0	1.0	1.0	1.0	1	right	n/a	0.0	n/a	1	0.00748348763213	blockFiles/set_51/main_unc/leftBlue\GB_LB_2.xlsx
297	main_unc	True	0.0	476	0	1.0	1.0	0.0	1	left	1.0	0.0	0.0	0	-0.021185451634200003	blockFiles/set_51/main_unc/leftBlue\GB_LB_2.xlsx
298	main_unc	True	0.0	476	0	1.0	1.0	0.0	1	left	1.0	0.0	0.0	0	-0.035550444871199995	blockFiles/set_51/main_unc/leftBlue\GB_LB_2.xlsx
299	main_unc	True	0.0	476	0	1.0	1.0	0.0	1	left	2.0	1.0	1.0	0	-0.0351133812219	blockFiles/set_51/main_unc/leftBlue\GB_LB_2.xlsx
300	main_unc	True	0.0	476	0	1.0	1.0	1.0	1	right	1.0	1.0	1.0	1	0.079105829224	blockFiles/set_51/main_unc/leftBlue\GB_LB_2.xlsx
301	main_unc	True	0.0	476	0	1.0	1.0	0.0	1	left	2.0	1.0	1.0	0	-0.0416812717915	blockFiles/set_51/main_unc/leftBlue\GB_LB_2.xlsx
302	main_unc	True	0.0	476	0	1.0	1.0	0.0	1	left	2.0	0.0	1.0	0	-0.0699805444293	blockFiles/set_51/main_unc/leftBlue\GB_LB_2.xlsx
303	main_unc	True	0.0	476	0	1.0	1.0	1.0	1	right	1.0	1.0	1.0	1	0.032429880742000004	blockFiles/set_51/main_unc/leftBlue\GB_LB_2.xlsx
304	main_unc	True	0.0	476	0	1.0	1.0	1.0	1	right	2.0	0.0	0.0	1	0.00543920991942	blockFiles/set_51/main_unc/leftBlue\GB_LB_2.xlsx
305	main_unc	True	0.0	476	0	1.0	1.0	1.0	1	right	1.0	1.0	1.0	1	0.022405901793400004	blockFiles/set_51/main_unc/leftBlue\GB_LB_2.xlsx
306	main_unc	True	0.0	476	0	1.0	1.0	0.0	1	left	2.0	0.0	1.0	0	-0.0226178983971	blockFiles/set_51/main_unc/leftBlue\GB_LB_2.xlsx
307	main_unc	True	0.0	476	0	1.0	1.0	1.0	1	right	1.0	0.0	1.0	1	0.068985443525	blockFiles/set_51/main_unc/leftBlue\GB_LB_2.xlsx
308	main_unc	True	0.0	476	0	1.0	1.0	1.0	1	right	1.0	0.0	1.0	1	0.00748348763213	blockFiles/set_51/main_unc/leftBlue\GB_LB_2.xlsx
309	main_unc	True	0.0	476	0	2.0	2.0	0.0	1	left	2.0	0.0	0.0	0	-0.0719849762693	blockFiles/set_51/main_unc/rightBlue\GB_RB_1.xlsx
310	main_unc	True	0.0	476	0	2.0	2.0	1.0	0	right	1.0	1.0	1.0	0	-0.0017944341152900001	blockFiles/set_51/main_unc/rightBlue\GB_RB_1.xlsx
311	main_unc	True	0.0	476	0	2.0	2.0	1.0	1	right	2.0	1.0	1.0	1	0.04674035616219999	blockFiles/set_51/main_unc/rightBlue\GB_RB_1.xlsx
312	main_unc	True	0.0	476	0	2.0	2.0	0.0	1	left	1.0	0.0	1.0	0	-0.0312554418109	blockFiles/set_51/main_unc/rightBlue\GB_RB_1.xlsx
313	main_unc	True	0.0	476	0	2.0	2.0	0.0	1	left	1.0	1.0	1.0	0	-0.0674934021942	blockFiles/set_51/main_unc/rightBlue\GB_RB_1.xlsx
314	main_unc	True	0.0	476	0	2.0	2.0	0.0	1	left	1.0	1.0	1.0	0	-0.031759710945200005	blockFiles/set_51/main_unc/rightBlue\GB_RB_1.xlsx
315	main_unc	True	0.0	476	0	2.0	2.0	0.0	1	left	1.0	1.0	1.0	0	-0.048606527280099995	blockFiles/set_51/main_unc/rightBlue\GB_RB_1.xlsx
316	main_unc	True	0.0	476	0	2.0	2.0	0.0	0	left	2.0	1.0	1.0	1	0.00736196117476	blockFiles/set_51/main_unc/rightBlue\GB_RB_1.xlsx
317	main_unc	True	0.0	476	0	2.0	2.0	1.0	1	right	2.0	1.0	1.0	1	0.029177160617	blockFiles/set_51/main_unc/rightBlue\GB_RB_1.xlsx
318	main_unc	True	0.0	476	0	2.0	2.0	0.0	0	left	2.0	1.0	1.0	1	0.022434736434400002	blockFiles/set_51/main_unc/rightBlue\GB_RB_1.xlsx
319	main_unc	True	0.0	476	0	2.0	2.0	0.0	1	left	1.0	0.0	1.0	0	-0.054297476057	blockFiles/set_51/main_unc/rightBlue\GB_RB_1.xlsx
320	main_unc	True	0.0	476	0	2.0	2.0	0.0	1	left	1.0	1.0	1.0	0	-0.0221833580919	blockFiles/set_51/main_unc/rightBlue\GB_RB_1.xlsx
321	main_unc	True	0.0	476	0	2.0	2.0	0.0	1	left	1.0	1.0	1.0	0	-0.030653916914	blockFiles/set_51/main_unc/rightBlue\GB_RB_1.xlsx
322	main_unc	True	0.0	476	0	2.0	2.0	1.0	1	right	2.0	1.0	1.0	1	0.0712713480182	blockFiles/set_51/main_unc/rightBlue\GB_RB_1.xlsx
323	main_unc	True	0.0	476	0	2.0	2.0	1.0	1	right	2.0	1.0	1.0	1	0.0683425696194	blockFiles/set_51/main_unc/rightBlue\GB_RB_1.xlsx
324	main_unc	True	0.0	476	0	2.0	2.0	1.0	1	right	2.0	1.0	1.0	1	0.020521189011599997	blockFiles/set_51/main_unc/rightBlue\GB_RB_1.xlsx
325	main_unc	True	0.0	476	0	2.0	2.0	0.0	1	left	1.0	1.0	1.0	0	-0.063588775117	blockFiles/set_51/main_unc/rightBlue\GB_RB_1.xlsx
326	main_unc	True	0.0	476	0	2.0	2.0	1.0	1	right	2.0	1.0	1.0	1	0.0491266891547	blockFiles/set_51/main_unc/rightBlue\GB_RB_1.xlsx
327	main_unc	True	0.0	476	0	2.0	2.0	1.0	1	right	2.0	1.0	1.0	1	0.0219595517404	blockFiles/set_51/main_unc/rightBlue\GB_RB_1.xlsx
328	main_unc	True	0.0	476	0	2.0	2.0	0.0	1	left	1.0	1.0	1.0	0	-0.0355292951874	blockFiles/set_51/main_unc/rightBlue\GB_RB_1.xlsx
329	main_unc	True	0.0	476	0	2.0	2.0	0.0	1	left	1.0	1.0	1.0	0	-0.0311067856476	blockFiles/set_51/main_unc/rightBlue\GB_RB_1.xlsx
330	main_unc	True	0.0	476	0	2.0	2.0	1.0	1	right	2.0	1.0	1.0	1	0.0147521242313	blockFiles/set_51/main_unc/rightBlue\GB_RB_1.xlsx
331	main_unc	True	0.0	476	0	2.0	2.0	1.0	1	right	2.0	0.0	1.0	1	0.0689285314083	blockFiles/set_51/main_unc/rightBlue\GB_RB_1.xlsx
332	main_unc	True	0.0	476	0	2.0	2.0	0.0	1	left	1.0	0.0	1.0	0	-0.060430869516000005	blockFiles/set_51/main_unc/rightBlue\GB_RB_1.xlsx
333	main_unc	True	1.0	476	0	2.0	2.0	0.0	0	left	n/a	0.0	n/a	1	0.00524846464396	blockFiles/set_51/main_unc/rightBlue\GB_RB_1.xlsx
334	main_unc	True	0.0	476	0	2.0	2.0	1.0	1	right	2.0	1.0	1.0	1	0.00524846464396	blockFiles/set_51/main_unc/rightBlue\GB_RB_1.xlsx
335	main_unc	True	0.0	476	0	3.0	3.0	0.0	1	left	1.0	0.0	0.0	0	-0.0702798129246	blockFiles/set_51/main_unc/leftBlue\GB_LB_1.xlsx
336	main_unc	True	0.0	476	0	3.0	3.0	0.0	1	left	2.0	1.0	1.0	0	-0.0676766649447	blockFiles/set_51/main_unc/leftBlue\GB_LB_1.xlsx
337	main_unc	True	0.0	476	0	3.0	3.0	0.0	1	left	2.0	1.0	1.0	0	-0.019553743097900003	blockFiles/set_51/main_unc/leftBlue\GB_LB_1.xlsx
338	main_unc	True	0.0	476	0	3.0	3.0	0.0	1	left	2.0	1.0	1.0	0	-0.0549623130076	blockFiles/set_51/main_unc/leftBlue\GB_LB_1.xlsx
339	main_unc	True	0.0	476	0	3.0	3.0	1.0	1	right	1.0	0.0	1.0	1	0.042351384088399995	blockFiles/set_51/main_unc/leftBlue\GB_LB_1.xlsx
340	main_unc	True	0.0	476	0	3.0	3.0	1.0	1	right	1.0	1.0	1.0	1	0.0567004408687	blockFiles/set_51/main_unc/leftBlue\GB_LB_1.xlsx
341	main_unc	True	0.0	476	0	3.0	3.0	0.0	1	left	2.0	1.0	1.0	0	-0.0057722033001499995	blockFiles/set_51/main_unc/leftBlue\GB_LB_1.xlsx
342	main_unc	True	0.0	476	0	3.0	3.0	1.0	1	right	1.0	0.0	1.0	1	0.0225431649573	blockFiles/set_51/main_unc/leftBlue\GB_LB_1.xlsx
343	main_unc	True	0.0	476	0	3.0	3.0	1.0	1	right	1.0	0.0	1.0	1	0.014297089725699999	blockFiles/set_51/main_unc/leftBlue\GB_LB_1.xlsx
344	main_unc	True	0.0	476	0	3.0	3.0	0.0	1	left	1.0	0.0	0.0	0	-0.0298173764907	blockFiles/set_51/main_unc/leftBlue\GB_LB_1.xlsx
345	main_unc	True	0.0	476	0	3.0	3.0	1.0	1	right	1.0	1.0	1.0	1	0.0736975460127	blockFiles/set_51/main_unc/leftBlue\GB_LB_1.xlsx
346	main_unc	True	0.0	476	0	3.0	3.0	1.0	1	right	1.0	1.0	1.0	1	0.0286328691803	blockFiles/set_51/main_unc/leftBlue\GB_LB_1.xlsx
347	main_unc	True	0.0	476	0	3.0	3.0	1.0	1	right	1.0	1.0	1.0	1	0.033878548909	blockFiles/set_51/main_unc/leftBlue\GB_LB_1.xlsx
348	main_unc	True	0.0	476	0	3.0	3.0	1.0	1	right	1.0	1.0	1.0	1	0.0712006776966	blockFiles/set_51/main_unc/leftBlue\GB_LB_1.xlsx
349	main_unc	True	1.0	476	0	3.0	3.0	n/a	0	None	n/a	0.0	n/a	0	-0.00362721340731	blockFiles/set_51/main_unc/leftBlue\GB_LB_1.xlsx
350	main_unc	True	0.0	476	0	3.0	3.0	1.0	1	right	1.0	1.0	1.0	1	0.0670129662938	blockFiles/set_51/main_unc/leftBlue\GB_LB_1.xlsx
351	main_unc	True	0.0	476	0	3.0	3.0	1.0	1	right	1.0	0.0	1.0	1	0.017760703787200002	blockFiles/set_51/main_unc/leftBlue\GB_LB_1.xlsx
352	main_unc	True	0.0	476	0	3.0	3.0	0.0	1	left	2.0	1.0	1.0	0	-0.0381749929488	blockFiles/set_51/main_unc/leftBlue\GB_LB_1.xlsx
353	main_unc	True	0.0	476	0	3.0	3.0	0.0	1	left	2.0	1.0	1.0	0	-0.061316768899600006	blockFiles/set_51/main_unc/leftBlue\GB_LB_1.xlsx
354	main_unc	True	0.0	476	0	3.0	3.0	1.0	1	right	1.0	0.0	1.0	1	0.00516353629529	blockFiles/set_51/main_unc/leftBlue\GB_LB_1.xlsx
355	main_unc	True	0.0	476	0	3.0	3.0	0.0	1	left	2.0	1.0	1.0	0	-0.07455175293610002	blockFiles/set_51/main_unc/leftBlue\GB_LB_1.xlsx
356	main_unc	True	0.0	476	0	3.0	3.0	0.0	1	left	2.0	1.0	1.0	0	-0.028411578442899998	blockFiles/set_51/main_unc/leftBlue\GB_LB_1.xlsx
357	main_unc	True	0.0	476	0	3.0	3.0	0.0	1	left	2.0	1.0	1.0	0	-0.0667967723124	blockFiles/set_51/main_unc/leftBlue\GB_LB_1.xlsx
358	main_unc	True	0.0	476	0	3.0	3.0	0.0	0	left	1.0	1.0	1.0	1	0.0298552489839	blockFiles/set_51/main_unc/leftBlue\GB_LB_1.xlsx
359	main_unc	True	0.0	476	0	3.0	3.0	1.0	1	right	1.0	1.0	1.0	1	0.0724171217717	blockFiles/set_51/main_unc/leftBlue\GB_LB_1.xlsx
360	main_unc	True	0.0	476	0	3.0	3.0	1.0	0	right	1.0	0.0	0.0	0	-0.00362721340731	blockFiles/set_51/main_unc/leftBlue\GB_LB_1.xlsx
361	main_unc	True	0.0	476	0	4.0	4.0	0.0	1	left	2.0	0.0	0.0	0	-0.028915655221799997	blockFiles/set_51/main_unc/rightBlue\GB_RB_3.xlsx
362	main_unc	True	0.0	476	0	4.0	4.0	1.0	1	right	2.0	1.0	1.0	1	0.033481220304999997	blockFiles/set_51/main_unc/rightBlue\GB_RB_3.xlsx
363	main_unc	True	0.0	476	0	4.0	4.0	1.0	1	right	2.0	1.0	1.0	1	0.0160539477691	blockFiles/set_51/main_unc/rightBlue\GB_RB_3.xlsx
364	main_unc	True	0.0	476	0	4.0	4.0	0.0	1	left	1.0	0.0	1.0	0	-0.050463513229	blockFiles/set_51/main_unc/rightBlue\GB_RB_3.xlsx
365	main_unc	True	0.0	476	0	4.0	4.0	1.0	1	right	2.0	1.0	1.0	1	0.0549593330547	blockFiles/set_51/main_unc/rightBlue\GB_RB_3.xlsx
366	main_unc	True	0.0	476	0	4.0	4.0	1.0	1	right	2.0	1.0	1.0	1	0.0603684932739	blockFiles/set_51/main_unc/rightBlue\GB_RB_3.xlsx
367	main_unc	True	0.0	476	0	4.0	4.0	0.0	1	left	1.0	1.0	1.0	0	-0.00829785328358	blockFiles/set_51/main_unc/rightBlue\GB_RB_3.xlsx
368	main_unc	True	0.0	476	0	4.0	4.0	1.0	1	right	2.0	1.0	1.0	1	0.008828155845399999	blockFiles/set_51/main_unc/rightBlue\GB_RB_3.xlsx
369	main_unc	True	0.0	476	0	4.0	4.0	1.0	1	right	2.0	0.0	1.0	1	0.0784127320722	blockFiles/set_51/main_unc/rightBlue\GB_RB_3.xlsx
370	main_unc	True	0.0	476	0	4.0	4.0	1.0	1	right	2.0	1.0	1.0	1	0.0397184663266	blockFiles/set_51/main_unc/rightBlue\GB_RB_3.xlsx
371	main_unc	True	0.0	476	0	4.0	4.0	1.0	1	right	2.0	1.0	1.0	1	0.014872597139299998	blockFiles/set_51/main_unc/rightBlue\GB_RB_3.xlsx
372	main_unc	True	0.0	476	0	4.0	4.0	0.0	1	left	1.0	1.0	1.0	0	-0.0661110251211	blockFiles/set_51/main_unc/rightBlue\GB_RB_3.xlsx
373	main_unc	True	0.0	476	0	4.0	4.0	0.0	1	left	1.0	1.0	1.0	0	-0.0379330722056	blockFiles/set_51/main_unc/rightBlue\GB_RB_3.xlsx
374	main_unc	True	0.0	476	0	4.0	4.0	1.0	1	right	2.0	1.0	1.0	1	0.0275212619081	blockFiles/set_51/main_unc/rightBlue\GB_RB_3.xlsx
375	main_unc	True	0.0	476	0	4.0	4.0	0.0	0	left	1.0	0.0	0.0	1	0.009955910965799999	blockFiles/set_51/main_unc/rightBlue\GB_RB_3.xlsx
376	main_unc	True	0.0	476	0	4.0	4.0	0.0	1	left	1.0	0.0	1.0	0	-0.023778010867499998	blockFiles/set_51/main_unc/rightBlue\GB_RB_3.xlsx
377	main_unc	True	0.0	476	0	4.0	4.0	1.0	1	right	2.0	1.0	1.0	1	0.0479289373197	blockFiles/set_51/main_unc/rightBlue\GB_RB_3.xlsx
378	main_unc	True	0.0	476	0	4.0	4.0	1.0	1	right	2.0	1.0	1.0	1	0.049801671523599995	blockFiles/set_51/main_unc/rightBlue\GB_RB_3.xlsx
379	main_unc	True	0.0	476	0	4.0	4.0	0.0	1	left	1.0	1.0	1.0	0	-0.0413548304141	blockFiles/set_51/main_unc/rightBlue\GB_RB_3.xlsx
380	main_unc	True	0.0	476	0	4.0	4.0	0.0	1	left	1.0	0.0	1.0	0	-0.057619738858199994	blockFiles/set_51/main_unc/rightBlue\GB_RB_3.xlsx
381	main_unc	True	0.0	476	0	4.0	4.0	0.0	0	left	2.0	1.0	1.0	1	0.0154658822902	blockFiles/set_51/main_unc/rightBlue\GB_RB_3.xlsx
382	main_unc	True	0.0	476	0	4.0	4.0	1.0	1	right	2.0	1.0	1.0	1	0.0506646998785	blockFiles/set_51/main_unc/rightBlue\GB_RB_3.xlsx
383	main_unc	True	0.0	476	0	4.0	4.0	0.0	1	left	1.0	1.0	1.0	0	-0.07820220123980001	blockFiles/set_51/main_unc/rightBlue\GB_RB_3.xlsx
384	main_unc	True	0.0	476	0	4.0	4.0	0.0	1	left	2.0	1.0	0.0	0	-0.009742824994030001	blockFiles/set_51/main_unc/rightBlue\GB_RB_3.xlsx
385	main_unc	True	0.0	476	0	4.0	4.0	0.0	1	left	1.0	0.0	1.0	0	-0.00532161507756	blockFiles/set_51/main_unc/rightBlue\GB_RB_3.xlsx
386	main_unc	True	0.0	476	0	5.0	5.0	1.0	1	right	1.0	0.0	1.0	1	0.0415225215815	blockFiles/set_51/main_unc/leftBlue\GB_LB_5.xlsx
387	main_unc	True	0.0	476	0	5.0	5.0	0.0	0	left	1.0	1.0	1.0	1	0.00242497211322	blockFiles/set_51/main_unc/leftBlue\GB_LB_5.xlsx
388	main_unc	True	0.0	476	0	5.0	5.0	1.0	0	right	2.0	1.0	1.0	0	-0.0033647445403000003	blockFiles/set_51/main_unc/leftBlue\GB_LB_5.xlsx
389	main_unc	True	0.0	476	0	5.0	5.0	0.0	1	left	1.0	0.0	0.0	0	-0.0777623177692	blockFiles/set_51/main_unc/leftBlue\GB_LB_5.xlsx
390	main_unc	True	0.0	476	0	5.0	5.0	0.0	1	left	1.0	0.0	0.0	0	-0.0522126323543	blockFiles/set_51/main_unc/leftBlue\GB_LB_5.xlsx
391	main_unc	True	0.0	476	0	5.0	5.0	0.0	1	left	1.0	1.0	0.0	0	-0.06154983654619999	blockFiles/set_51/main_unc/leftBlue\GB_LB_5.xlsx
392	main_unc	True	0.0	476	0	5.0	5.0	1.0	1	right	2.0	0.0	0.0	1	0.030700187198799998	blockFiles/set_51/main_unc/leftBlue\GB_LB_5.xlsx
393	main_unc	True	0.0	476	0	5.0	5.0	1.0	1	right	2.0	0.0	0.0	1	0.0675257587805	blockFiles/set_51/main_unc/leftBlue\GB_LB_5.xlsx
394	main_unc	True	0.0	476	0	5.0	5.0	1.0	1	right	2.0	0.0	0.0	1	0.0298508414812	blockFiles/set_51/main_unc/leftBlue\GB_LB_5.xlsx
395	main_unc	True	0.0	476	0	5.0	5.0	1.0	1	right	2.0	0.0	0.0	1	0.020956702381400003	blockFiles/set_51/main_unc/leftBlue\GB_LB_5.xlsx
396	main_unc	True	0.0	476	0	5.0	5.0	0.0	1	left	1.0	0.0	0.0	0	-0.0509282305464	blockFiles/set_51/main_unc/leftBlue\GB_LB_5.xlsx
397	main_unc	True	0.0	476	0	5.0	5.0	0.0	1	left	2.0	1.0	1.0	0	-0.0642149377428	blockFiles/set_51/main_unc/leftBlue\GB_LB_5.xlsx
398	main_unc	True	0.0	476	0	5.0	5.0	1.0	1	right	1.0	0.0	1.0	1	0.029878575857700002	blockFiles/set_51/main_unc/leftBlue\GB_LB_5.xlsx
399	main_unc	True	0.0	476	0	5.0	5.0	0.0	1	left	2.0	1.0	1.0	0	-0.056513738967500005	blockFiles/set_51/main_unc/leftBlue\GB_LB_5.xlsx
400	main_unc	True	0.0	476	0	5.0	5.0	0.0	1	left	2.0	1.0	1.0	0	-0.03531282512469999	blockFiles/set_51/main_unc/leftBlue\GB_LB_5.xlsx
401	main_unc	True	0.0	476	0	5.0	5.0	1.0	1	right	1.0	1.0	1.0	1	0.0698363411985	blockFiles/set_51/main_unc/leftBlue\GB_LB_5.xlsx
402	main_unc	True	0.0	476	0	5.0	5.0	0.0	1	left	2.0	0.0	1.0	0	-0.034988506417699995	blockFiles/set_51/main_unc/leftBlue\GB_LB_5.xlsx
403	main_unc	True	0.0	476	0	5.0	5.0	1.0	0	right	1.0	0.0	0.0	0	-0.007673473637550001	blockFiles/set_51/main_unc/leftBlue\GB_LB_5.xlsx
404	main_unc	True	0.0	476	0	5.0	5.0	0.0	0	left	1.0	1.0	1.0	1	0.00799868462607	blockFiles/set_51/main_unc/leftBlue\GB_LB_5.xlsx
405	main_unc	True	0.0	476	0	5.0	5.0	0.0	1	left	1.0	0.0	0.0	0	-0.0668041360006	blockFiles/set_51/main_unc/leftBlue\GB_LB_5.xlsx
406	main_unc	True	0.0	476	0	5.0	5.0	1.0	1	right	1.0	1.0	1.0	1	0.0581402471289	blockFiles/set_51/main_unc/leftBlue\GB_LB_5.xlsx
407	main_unc	True	0.0	476	0	5.0	5.0	0.0	1	left	1.0	0.0	0.0	0	-0.00221614176407	blockFiles/set_51/main_unc/leftBlue\GB_LB_5.xlsx
408	main_unc	True	0.0	476	0	5.0	5.0	0.0	1	left	2.0	1.0	1.0	0	-0.0031165205501	blockFiles/set_51/main_unc/leftBlue\GB_LB_5.xlsx
409	main_unc	True	0.0	476	0	5.0	5.0	1.0	1	right	1.0	1.0	1.0	1	0.0736456248723	blockFiles/set_51/main_unc/leftBlue\GB_LB_5.xlsx
410	main_unc	True	0.0	476	0	5.0	5.0	0.0	1	left	2.0	1.0	1.0	0	-0.0674011060968	blockFiles/set_51/main_unc/leftBlue\GB_LB_5.xlsx
411	main_unc	True	0.0	476	0	6.0	6.0	0.0	1	left	1.0	1.0	1.0	0	-0.070449707862	blockFiles/set_51/main_unc/rightBlue\GB_RB_4.xlsx
412	main_unc	True	0.0	476	0	6.0	6.0	0.0	1	left	1.0	1.0	1.0	0	-0.0316649398021	blockFiles/set_51/main_unc/rightBlue\GB_RB_4.xlsx
413	main_unc	True	0.0	476	0	6.0	6.0	1.0	1	right	2.0	1.0	1.0	1	0.058007239177800006	blockFiles/set_51/main_unc/rightBlue\GB_RB_4.xlsx
414	main_unc	True	0.0	476	0	6.0	6.0	1.0	1	right	2.0	1.0	1.0	1	0.0467938731238	blockFiles/set_51/main_unc/rightBlue\GB_RB_4.xlsx
415	main_unc	True	0.0	476	0	6.0	6.0	1.0	1	right	2.0	1.0	1.0	1	0.0414031098224	blockFiles/set_51/main_unc/rightBlue\GB_RB_4.xlsx
416	main_unc	True	0.0	476	0	6.0	6.0	0.0	1	left	1.0	1.0	1.0	0	-0.004842348396779999	blockFiles/set_51/main_unc/rightBlue\GB_RB_4.xlsx
417	main_unc	True	0.0	476	0	6.0	6.0	0.0	1	left	1.0	0.0	1.0	0	-0.0315555547364	blockFiles/set_51/main_unc/rightBlue\GB_RB_4.xlsx
418	main_unc	True	0.0	476	0	6.0	6.0	1.0	1	right	2.0	0.0	1.0	1	0.06099330767990001	blockFiles/set_51/main_unc/rightBlue\GB_RB_4.xlsx
419	main_unc	True	0.0	476	0	6.0	6.0	1.0	1	right	2.0	1.0	1.0	1	0.0026594486460100003	blockFiles/set_51/main_unc/rightBlue\GB_RB_4.xlsx
420	main_unc	True	0.0	476	0	6.0	6.0	0.0	1	left	1.0	0.0	1.0	0	-0.0628525477462	blockFiles/set_51/main_unc/rightBlue\GB_RB_4.xlsx
421	main_unc	True	0.0	476	0	6.0	6.0	0.0	1	left	1.0	1.0	1.0	0	-0.036769066453	blockFiles/set_51/main_unc/rightBlue\GB_RB_4.xlsx
422	main_unc	True	0.0	476	0	6.0	6.0	0.0	1	left	1.0	1.0	1.0	0	-0.0507740415819	blockFiles/set_51/main_unc/rightBlue\GB_RB_4.xlsx
423	main_unc	True	0.0	476	0	6.0	6.0	1.0	1	right	2.0	1.0	1.0	1	0.059361823909	blockFiles/set_51/main_unc/rightBlue\GB_RB_4.xlsx
424	main_unc	True	0.0	476	0	6.0	6.0	0.0	1	left	1.0	1.0	1.0	0	-0.0462166502886	blockFiles/set_51/main_unc/rightBlue\GB_RB_4.xlsx
425	main_unc	True	0.0	476	0	6.0	6.0	1.0	0	right	1.0	1.0	1.0	0	-0.0149961755238	blockFiles/set_51/main_unc/rightBlue\GB_RB_4.xlsx
426	main_unc	True	0.0	476	0	6.0	6.0	0.0	0	left	2.0	1.0	1.0	1	0.0174393678084	blockFiles/set_51/main_unc/rightBlue\GB_RB_4.xlsx
427	main_unc	True	0.0	476	0	6.0	6.0	1.0	1	right	1.0	0.0	0.0	1	0.0122369823046	blockFiles/set_51/main_unc/rightBlue\GB_RB_4.xlsx
428	main_unc	True	0.0	476	0	6.0	6.0	1.0	1	right	1.0	0.0	0.0	1	0.053816283885399996	blockFiles/set_51/main_unc/rightBlue\GB_RB_4.xlsx
429	main_unc	True	0.0	476	0	6.0	6.0	0.0	1	left	2.0	0.0	0.0	0	-0.0727869778499	blockFiles/set_51/main_unc/rightBlue\GB_RB_4.xlsx
430	main_unc	True	0.0	476	0	6.0	6.0	1.0	1	right	1.0	0.0	0.0	1	0.0422102654353	blockFiles/set_51/main_unc/rightBlue\GB_RB_4.xlsx
431	main_unc	True	0.0	476	0	6.0	6.0	1.0	1	right	1.0	1.0	0.0	1	0.06217019388450001	blockFiles/set_51/main_unc/rightBlue\GB_RB_4.xlsx
432	main_unc	True	0.0	476	0	6.0	6.0	0.0	1	left	2.0	0.0	0.0	0	-0.030506366491299997	blockFiles/set_51/main_unc/rightBlue\GB_RB_4.xlsx
433	main_unc	True	0.0	476	0	6.0	6.0	0.0	0	left	1.0	0.0	0.0	1	0.033722043074699996	blockFiles/set_51/main_unc/rightBlue\GB_RB_4.xlsx
434	main_unc	True	0.0	476	0	6.0	6.0	0.0	0	left	2.0	0.0	1.0	1	0.0103559677303	blockFiles/set_51/main_unc/rightBlue\GB_RB_4.xlsx
435	main_unc	True	0.0	476	0	6.0	6.0	0.0	1	left	2.0	0.0	0.0	0	-0.07267158355560001	blockFiles/set_51/main_unc/rightBlue\GB_RB_4.xlsx
436	main_unc	True	0.0	476	0	7.0	7.0	0.0	1	left	1.0	1.0	1.0	0	-0.0737276521698	blockFiles/set_51/main_unc/rightBlue\GB_RB_5.xlsx
437	main_unc	True	0.0	476	0	7.0	7.0	1.0	1	right	2.0	1.0	1.0	1	0.0761904028803	blockFiles/set_51/main_unc/rightBlue\GB_RB_5.xlsx
438	main_unc	True	1.0	476	0	7.0	7.0	n/a	0	None	n/a	0.0	n/a	0	-0.00169095493853	blockFiles/set_51/main_unc/rightBlue\GB_RB_5.xlsx
439	main_unc	True	0.0	476	0	7.0	7.0	0.0	1	left	1.0	1.0	1.0	0	-0.05204839376730001	blockFiles/set_51/main_unc/rightBlue\GB_RB_5.xlsx
440	main_unc	True	0.0	476	0	7.0	7.0	1.0	1	right	2.0	0.0	1.0	1	0.0319235035963	blockFiles/set_51/main_unc/rightBlue\GB_RB_5.xlsx
441	main_unc	True	0.0	476	0	7.0	7.0	1.0	1	right	2.0	1.0	1.0	1	0.0547831413522	blockFiles/set_51/main_unc/rightBlue\GB_RB_5.xlsx
442	main_unc	True	0.0	476	0	7.0	7.0	1.0	1	right	2.0	1.0	1.0	1	0.025909273289099997	blockFiles/set_51/main_unc/rightBlue\GB_RB_5.xlsx
443	main_unc	True	0.0	476	0	7.0	7.0	0.0	1	left	1.0	0.0	1.0	0	-0.05915840692819999	blockFiles/set_51/main_unc/rightBlue\GB_RB_5.xlsx
444	main_unc	True	0.0	476	0	7.0	7.0	0.0	1	left	1.0	1.0	1.0	0	-0.027568357009400003	blockFiles/set_51/main_unc/rightBlue\GB_RB_5.xlsx
445	main_unc	True	0.0	476	0	7.0	7.0	1.0	1	right	2.0	1.0	1.0	1	0.044733109567300006	blockFiles/set_51/main_unc/rightBlue\GB_RB_5.xlsx
446	main_unc	True	0.0	476	0	7.0	7.0	0.0	1	left	1.0	1.0	1.0	0	-0.00667923463508	blockFiles/set_51/main_unc/rightBlue\GB_RB_5.xlsx
447	main_unc	True	0.0	476	0	7.0	7.0	0.0	1	left	1.0	1.0	1.0	0	-0.040796370990599996	blockFiles/set_51/main_unc/rightBlue\GB_RB_5.xlsx
448	main_unc	True	0.0	476	0	7.0	7.0	0.0	1	left	1.0	1.0	1.0	0	-0.035420238915800005	blockFiles/set_51/main_unc/rightBlue\GB_RB_5.xlsx
449	main_unc	True	0.0	476	0	7.0	7.0	1.0	1	right	2.0	0.0	1.0	1	0.0413859791309	blockFiles/set_51/main_unc/rightBlue\GB_RB_5.xlsx
450	main_unc	True	0.0	476	0	7.0	7.0	1.0	1	right	2.0	1.0	1.0	1	0.0724240414985	blockFiles/set_51/main_unc/rightBlue\GB_RB_5.xlsx
451	main_unc	True	0.0	476	0	7.0	7.0	1.0	1	right	2.0	1.0	1.0	1	0.0190374004096	blockFiles/set_51/main_unc/rightBlue\GB_RB_5.xlsx
452	main_unc	True	0.0	476	0	7.0	7.0	1.0	1	right	2.0	1.0	1.0	1	0.0737035192549	blockFiles/set_51/main_unc/rightBlue\GB_RB_5.xlsx
453	main_unc	True	0.0	476	0	7.0	7.0	1.0	1	right	1.0	0.0	0.0	1	0.0169390150346	blockFiles/set_51/main_unc/rightBlue\GB_RB_5.xlsx
454	main_unc	True	0.0	476	0	7.0	7.0	0.0	1	left	1.0	0.0	1.0	0	-0.0644575756788	blockFiles/set_51/main_unc/rightBlue\GB_RB_5.xlsx
455	main_unc	True	0.0	476	0	7.0	7.0	1.0	1	right	2.0	1.0	1.0	1	0.024743935093299998	blockFiles/set_51/main_unc/rightBlue\GB_RB_5.xlsx
456	main_unc	True	0.0	476	0	7.0	7.0	1.0	1	right	2.0	1.0	1.0	1	0.020686078146099997	blockFiles/set_51/main_unc/rightBlue\GB_RB_5.xlsx
457	main_unc	True	0.0	476	0	7.0	7.0	1.0	1	right	2.0	0.0	1.0	1	0.061311902031300006	blockFiles/set_51/main_unc/rightBlue\GB_RB_5.xlsx
458	main_unc	True	0.0	476	0	7.0	7.0	1.0	1	right	1.0	1.0	0.0	1	0.007901565302160001	blockFiles/set_51/main_unc/rightBlue\GB_RB_5.xlsx
459	main_unc	True	0.0	476	0	7.0	7.0	0.0	1	left	1.0	1.0	1.0	0	-0.0207488162071	blockFiles/set_51/main_unc/rightBlue\GB_RB_5.xlsx
460	main_unc	True	0.0	476	0	7.0	7.0	0.0	1	left	1.0	1.0	1.0	0	-0.0760041981563	blockFiles/set_51/main_unc/rightBlue\GB_RB_5.xlsx
461	main_unc	True	0.0	476	0	7.0	7.0	0.0	1	left	1.0	1.0	1.0	0	-0.00169095493853	blockFiles/set_51/main_unc/rightBlue\GB_RB_5.xlsx
462	main_unc	True	0.0	476	0	8.0	8.0	1.0	1	right	2.0	1.0	1.0	1	0.0584801742435	blockFiles/set_51/main_unc/rightBlue\GB_RB_6.xlsx
463	main_unc	True	0.0	476	0	8.0	8.0	0.0	1	left	1.0	1.0	1.0	0	-0.055364335943	blockFiles/set_51/main_unc/rightBlue\GB_RB_6.xlsx
464	main_unc	True	0.0	476	0	8.0	8.0	0.0	1	left	2.0	1.0	0.0	0	-0.00979206528515	blockFiles/set_51/main_unc/rightBlue\GB_RB_6.xlsx
465	main_unc	True	0.0	476	0	8.0	8.0	0.0	1	left	2.0	0.0	0.0	0	-0.0300653567538	blockFiles/set_51/main_unc/rightBlue\GB_RB_6.xlsx
466	main_unc	True	0.0	476	0	8.0	8.0	0.0	1	left	2.0	0.0	0.0	0	-0.00128359597176	blockFiles/set_51/main_unc/rightBlue\GB_RB_6.xlsx
467	main_unc	True	0.0	476	0	8.0	8.0	0.0	1	left	2.0	0.0	0.0	0	-0.050885920971599996	blockFiles/set_51/main_unc/rightBlue\GB_RB_6.xlsx
468	main_unc	True	0.0	476	0	8.0	8.0	0.0	1	left	1.0	0.0	1.0	0	-0.0574550933577	blockFiles/set_51/main_unc/rightBlue\GB_RB_6.xlsx
469	main_unc	True	0.0	476	0	8.0	8.0	0.0	1	left	1.0	1.0	1.0	0	-0.0183327741735	blockFiles/set_51/main_unc/rightBlue\GB_RB_6.xlsx
470	main_unc	True	0.0	476	0	8.0	8.0	1.0	1	right	2.0	1.0	1.0	1	0.0350214408524	blockFiles/set_51/main_unc/rightBlue\GB_RB_6.xlsx
471	main_unc	True	0.0	476	0	8.0	8.0	1.0	1	right	2.0	1.0	1.0	1	0.0685938348621	blockFiles/set_51/main_unc/rightBlue\GB_RB_6.xlsx
472	main_unc	True	0.0	476	0	8.0	8.0	1.0	1	right	2.0	1.0	1.0	1	0.06584003776309999	blockFiles/set_51/main_unc/rightBlue\GB_RB_6.xlsx
473	main_unc	True	0.0	476	0	8.0	8.0	0.0	0	left	2.0	1.0	1.0	1	0.000611730944365	blockFiles/set_51/main_unc/rightBlue\GB_RB_6.xlsx
474	main_unc	True	0.0	476	0	8.0	8.0	0.0	1	left	1.0	1.0	1.0	0	-0.038736835662300004	blockFiles/set_51/main_unc/rightBlue\GB_RB_6.xlsx
475	main_unc	True	0.0	476	0	8.0	8.0	1.0	0	right	1.0	1.0	1.0	0	-0.0305819003657	blockFiles/set_51/main_unc/rightBlue\GB_RB_6.xlsx
476	main_unc	True	0.0	476	0	8.0	8.0	1.0	1	right	2.0	1.0	1.0	1	0.0605573185906	blockFiles/set_51/main_unc/rightBlue\GB_RB_6.xlsx
477	main_unc	True	0.0	476	0	8.0	8.0	1.0	1	right	2.0	1.0	1.0	1	0.031566622443499996	blockFiles/set_51/main_unc/rightBlue\GB_RB_6.xlsx
478	main_unc	True	0.0	476	0	8.0	8.0	1.0	1	right	2.0	1.0	1.0	1	0.025479882210499998	blockFiles/set_51/main_unc/rightBlue\GB_RB_6.xlsx
479	main_unc	True	0.0	476	0	8.0	8.0	0.0	1	left	1.0	1.0	1.0	0	-0.0683964039199	blockFiles/set_51/main_unc/rightBlue\GB_RB_6.xlsx
480	main_unc	True	0.0	476	0	8.0	8.0	0.0	1	left	1.0	0.0	1.0	0	-0.058135901000399996	blockFiles/set_51/main_unc/rightBlue\GB_RB_6.xlsx
481	main_unc	True	0.0	476	0	8.0	8.0	1.0	1	right	2.0	1.0	1.0	1	0.0558085334301	blockFiles/set_51/main_unc/rightBlue\GB_RB_6.xlsx
482	main_unc	True	0.0	476	0	8.0	8.0	0.0	1	left	1.0	1.0	1.0	0	-0.060517937373400006	blockFiles/set_51/main_unc/rightBlue\GB_RB_6.xlsx
483	main_unc	True	0.0	476	0	8.0	8.0	0.0	0	left	1.0	1.0	0.0	1	0.0024208572879399998	blockFiles/set_51/main_unc/rightBlue\GB_RB_6.xlsx
484	main_unc	True	0.0	476	0	8.0	8.0	0.0	1	left	1.0	1.0	1.0	0	-0.021999111156900005	blockFiles/set_51/main_unc/rightBlue\GB_RB_6.xlsx
485	main_unc	True	0.0	476	0	8.0	8.0	1.0	1	right	2.0	1.0	1.0	1	0.0562457186542	blockFiles/set_51/main_unc/rightBlue\GB_RB_6.xlsx
486	main_unc	True	0.0	476	0	8.0	8.0	1.0	1	right	2.0	1.0	1.0	1	0.0331324871443	blockFiles/set_51/main_unc/rightBlue\GB_RB_6.xlsx
487	main_unc	True	0.0	476	0	9.0	9.0	1.0	1	right	2.0	1.0	1.0	1	0.0142762919888	blockFiles/set_51/main_unc/rightBlue\GB_RB_2.xlsx
488	main_unc	True	0.0	476	0	9.0	9.0	1.0	1	right	2.0	1.0	1.0	1	0.076470556967	blockFiles/set_51/main_unc/rightBlue\GB_RB_2.xlsx
489	main_unc	True	0.0	476	0	9.0	9.0	0.0	1	left	1.0	1.0	1.0	0	-0.023967866078	blockFiles/set_51/main_unc/rightBlue\GB_RB_2.xlsx
490	main_unc	True	0.0	476	0	9.0	9.0	0.0	1	left	1.0	1.0	1.0	0	-0.061394517049199994	blockFiles/set_51/main_unc/rightBlue\GB_RB_2.xlsx
491	main_unc	True	0.0	476	0	9.0	9.0	1.0	1	right	2.0	1.0	1.0	1	0.0229230570793	blockFiles/set_51/main_unc/rightBlue\GB_RB_2.xlsx
492	main_unc	True	0.0	476	0	9.0	9.0	1.0	1	right	2.0	1.0	1.0	1	0.0656423087418	blockFiles/set_51/main_unc/rightBlue\GB_RB_2.xlsx
493	main_unc	True	0.0	476	0	9.0	9.0	0.0	1	left	1.0	0.0	1.0	0	-0.027128705158799997	blockFiles/set_51/main_unc/rightBlue\GB_RB_2.xlsx
494	main_unc	True	0.0	476	0	9.0	9.0	1.0	1	right	1.0	0.0	0.0	1	0.030672572627699998	blockFiles/set_51/main_unc/rightBlue\GB_RB_2.xlsx
495	main_unc	True	0.0	476	0	9.0	9.0	0.0	1	left	1.0	1.0	1.0	0	-0.023912000432599997	blockFiles/set_51/main_unc/rightBlue\GB_RB_2.xlsx
496	main_unc	True	0.0	476	0	9.0	9.0	0.0	0	left	2.0	1.0	1.0	1	0.0029038707539399996	blockFiles/set_51/main_unc/rightBlue\GB_RB_2.xlsx
497	main_unc	True	0.0	476	0	9.0	9.0	1.0	1	right	2.0	0.0	1.0	1	0.0560468745232	blockFiles/set_51/main_unc/rightBlue\GB_RB_2.xlsx
498	main_unc	True	0.0	476	0	9.0	9.0	0.0	1	left	1.0	1.0	1.0	0	-0.074134669546	blockFiles/set_51/main_unc/rightBlue\GB_RB_2.xlsx
499	main_unc	True	0.0	476	0	9.0	9.0	0.0	1	left	1.0	1.0	1.0	0	-0.0676770417206	blockFiles/set_51/main_unc/rightBlue\GB_RB_2.xlsx
500	main_unc	True	0.0	476	0	9.0	9.0	1.0	1	right	2.0	1.0	1.0	1	0.0186058749072	blockFiles/set_51/main_unc/rightBlue\GB_RB_2.xlsx
501	main_unc	True	0.0	476	0	9.0	9.0	0.0	1	left	1.0	1.0	1.0	0	-0.016697400976	blockFiles/set_51/main_unc/rightBlue\GB_RB_2.xlsx
502	main_unc	True	0.0	476	0	9.0	9.0	1.0	1	right	2.0	1.0	1.0	1	0.039470974877499995	blockFiles/set_51/main_unc/rightBlue\GB_RB_2.xlsx
503	main_unc	True	0.0	476	0	9.0	9.0	1.0	1	right	2.0	0.0	1.0	1	0.0768420810066	blockFiles/set_51/main_unc/rightBlue\GB_RB_2.xlsx
504	main_unc	True	0.0	476	0	9.0	9.0	0.0	1	left	1.0	1.0	1.0	0	-0.0356527543813	blockFiles/set_51/main_unc/rightBlue\GB_RB_2.xlsx
505	main_unc	True	0.0	476	0	9.0	9.0	0.0	1	left	1.0	1.0	1.0	0	-0.067653011959	blockFiles/set_51/main_unc/rightBlue\GB_RB_2.xlsx
506	main_unc	True	0.0	476	0	9.0	9.0	0.0	0	left	2.0	1.0	1.0	1	0.0152852440439	blockFiles/set_51/main_unc/rightBlue\GB_RB_2.xlsx
507	main_unc	True	0.0	476	0	9.0	9.0	0.0	1	left	1.0	1.0	1.0	0	-0.0230761452578	blockFiles/set_51/main_unc/rightBlue\GB_RB_2.xlsx
508	main_unc	True	0.0	476	0	9.0	9.0	1.0	1	right	2.0	1.0	1.0	1	0.0285649589263	blockFiles/set_51/main_unc/rightBlue\GB_RB_2.xlsx
509	main_unc	True	0.0	476	0	9.0	9.0	0.0	1	left	1.0	1.0	1.0	0	-0.022944265455	blockFiles/set_51/main_unc/rightBlue\GB_RB_2.xlsx
510	main_unc	True	0.0	476	0	9.0	9.0	1.0	1	right	2.0	1.0	1.0	1	0.0591564062051	blockFiles/set_51/main_unc/rightBlue\GB_RB_2.xlsx
511	main_unc	True	0.0	476	0	9.0	9.0	0.0	1	left	1.0	0.0	1.0	0	-0.026983143482400003	blockFiles/set_51/main_unc/rightBlue\GB_RB_2.xlsx
512	main_unc	True	0.0	476	0	10.0	10.0	0.0	1	left	1.0	0.0	0.0	0	-0.00331756910309	blockFiles/set_51/main_unc/leftBlue\GB_LB_6.xlsx
513	main_unc	True	0.0	476	0	10.0	10.0	0.0	1	left	1.0	0.0	0.0	0	-0.0560354596004	blockFiles/set_51/main_unc/leftBlue\GB_LB_6.xlsx
514	main_unc	True	0.0	476	0	10.0	10.0	1.0	1	right	1.0	1.0	1.0	1	0.038777574189	blockFiles/set_51/main_unc/leftBlue\GB_LB_6.xlsx
515	main_unc	True	0.0	476	0	10.0	10.0	0.0	1	left	2.0	1.0	1.0	0	-0.049890827499299996	blockFiles/set_51/main_unc/leftBlue\GB_LB_6.xlsx
516	main_unc	True	0.0	476	0	10.0	10.0	1.0	1	right	1.0	1.0	1.0	1	0.014828213881700001	blockFiles/set_51/main_unc/leftBlue\GB_LB_6.xlsx
517	main_unc	True	1.0	476	0	10.0	10.0	0.0	0	left	n/a	0.0	n/a	1	0.023134127892599998	blockFiles/set_51/main_unc/leftBlue\GB_LB_6.xlsx
518	main_unc	True	0.0	476	0	10.0	10.0	1.0	1	right	1.0	1.0	1.0	1	0.0708842685446	blockFiles/set_51/main_unc/leftBlue\GB_LB_6.xlsx
519	main_unc	True	0.0	476	0	10.0	10.0	1.0	1	right	1.0	0.0	1.0	1	0.040230444520699994	blockFiles/set_51/main_unc/leftBlue\GB_LB_6.xlsx
520	main_unc	True	0.0	476	0	10.0	10.0	0.0	1	left	2.0	1.0	1.0	0	-0.0282855774276	blockFiles/set_51/main_unc/leftBlue\GB_LB_6.xlsx
521	main_unc	True	0.0	476	0	10.0	10.0	1.0	0	right	2.0	0.0	1.0	0	-0.00564073858783	blockFiles/set_51/main_unc/leftBlue\GB_LB_6.xlsx
522	main_unc	True	0.0	476	0	10.0	10.0	1.0	1	right	2.0	0.0	0.0	1	0.00984741277993	blockFiles/set_51/main_unc/leftBlue\GB_LB_6.xlsx
523	main_unc	True	0.0	476	0	10.0	10.0	0.0	1	left	2.0	0.0	1.0	0	-0.07863167304549999	blockFiles/set_51/main_unc/leftBlue\GB_LB_6.xlsx
524	main_unc	True	0.0	476	0	10.0	10.0	1.0	1	right	1.0	1.0	1.0	1	0.0184009956568	blockFiles/set_51/main_unc/leftBlue\GB_LB_6.xlsx
525	main_unc	True	0.0	476	0	10.0	10.0	0.0	1	left	2.0	1.0	1.0	0	-0.0292074854672	blockFiles/set_51/main_unc/leftBlue\GB_LB_6.xlsx
526	main_unc	True	0.0	476	0	10.0	10.0	1.0	1	right	1.0	1.0	1.0	1	0.0459730326757	blockFiles/set_51/main_unc/leftBlue\GB_LB_6.xlsx
527	main_unc	True	0.0	476	0	10.0	10.0	0.0	1	left	2.0	1.0	1.0	0	-0.0624495837465	blockFiles/set_51/main_unc/leftBlue\GB_LB_6.xlsx
528	main_unc	True	0.0	476	0	10.0	10.0	0.0	1	left	2.0	0.0	1.0	0	-0.037204163745	blockFiles/set_51/main_unc/leftBlue\GB_LB_6.xlsx
529	main_unc	True	0.0	476	0	10.0	10.0	1.0	0	right	1.0	0.0	0.0	0	-0.030988080482900002	blockFiles/set_51/main_unc/leftBlue\GB_LB_6.xlsx
530	main_unc	True	0.0	476	0	10.0	10.0	1.0	1	right	1.0	1.0	1.0	1	0.0196263572387	blockFiles/set_51/main_unc/leftBlue\GB_LB_6.xlsx
531	main_unc	True	0.0	476	0	10.0	10.0	0.0	1	left	2.0	1.0	1.0	0	-0.042799475174400005	blockFiles/set_51/main_unc/leftBlue\GB_LB_6.xlsx
532	main_unc	True	0.0	476	0	10.0	10.0	1.0	1	right	1.0	1.0	1.0	1	0.07819596886630001	blockFiles/set_51/main_unc/leftBlue\GB_LB_6.xlsx
533	main_unc	True	0.0	476	0	10.0	10.0	1.0	1	right	1.0	1.0	1.0	1	0.0708809813298	blockFiles/set_51/main_unc/leftBlue\GB_LB_6.xlsx
534	main_unc	True	0.0	476	0	10.0	10.0	1.0	0	right	2.0	1.0	1.0	0	-0.0161260792799	blockFiles/set_51/main_unc/leftBlue\GB_LB_6.xlsx
535	main_unc	True	0.0	476	0	10.0	10.0	1.0	1	right	1.0	1.0	1.0	1	0.0569352836907	blockFiles/set_51/main_unc/leftBlue\GB_LB_6.xlsx
536	main_unc	True	0.0	476	0	10.0	10.0	1.0	1	right	1.0	1.0	1.0	1	0.025219723396	blockFiles/set_51/main_unc/leftBlue\GB_LB_6.xlsx
537	main_unc	True	0.0	476	0	10.0	10.0	1.0	1	right	1.0	1.0	1.0	1	0.023134127892599998	blockFiles/set_51/main_unc/leftBlue\GB_LB_6.xlsx
538	main_unc	True	0.0	476	0	11.0	11.0	1.0	1	right	1.0	1.0	1.0	1	0.048037368077800006	blockFiles/set_51/main_unc/leftBlue\GB_LB_4.xlsx
539	main_unc	True	0.0	476	0	11.0	11.0	0.0	1	left	2.0	1.0	1.0	0	-0.0641168232821	blockFiles/set_51/main_unc/leftBlue\GB_LB_4.xlsx
540	main_unc	True	0.0	476	0	11.0	11.0	0.0	1	left	2.0	1.0	1.0	0	-0.0343463883176	blockFiles/set_51/main_unc/leftBlue\GB_LB_4.xlsx
541	main_unc	True	0.0	476	0	11.0	11.0	1.0	1	right	1.0	0.0	1.0	1	0.0289629601873	blockFiles/set_51/main_unc/leftBlue\GB_LB_4.xlsx
542	main_unc	True	0.0	476	0	11.0	11.0	1.0	1	right	2.0	0.0	0.0	1	0.0137580998614	blockFiles/set_51/main_unc/leftBlue\GB_LB_4.xlsx
543	main_unc	True	0.0	476	0	11.0	11.0	1.0	1	right	1.0	1.0	1.0	1	0.0733445505612	blockFiles/set_51/main_unc/leftBlue\GB_LB_4.xlsx
544	main_unc	True	0.0	476	0	11.0	11.0	0.0	1	left	2.0	1.0	1.0	0	-0.050365091655400006	blockFiles/set_51/main_unc/leftBlue\GB_LB_4.xlsx
545	main_unc	True	0.0	476	0	11.0	11.0	1.0	1	right	1.0	1.0	1.0	1	0.0759413072281	blockFiles/set_51/main_unc/leftBlue\GB_LB_4.xlsx
546	main_unc	True	0.0	476	0	11.0	11.0	0.0	1	left	2.0	1.0	1.0	0	-0.037416851148	blockFiles/set_51/main_unc/leftBlue\GB_LB_4.xlsx
547	main_unc	True	0.0	476	0	11.0	11.0	1.0	1	right	1.0	1.0	1.0	1	0.0170418660901	blockFiles/set_51/main_unc/leftBlue\GB_LB_4.xlsx
548	main_unc	True	0.0	476	0	11.0	11.0	0.0	1	left	2.0	1.0	1.0	0	-0.0584601759911	blockFiles/set_51/main_unc/leftBlue\GB_LB_4.xlsx
549	main_unc	True	0.0	476	0	11.0	11.0	1.0	1	right	1.0	0.0	1.0	1	0.005872782599180001	blockFiles/set_51/main_unc/leftBlue\GB_LB_4.xlsx
550	main_unc	True	0.0	476	0	11.0	11.0	0.0	1	left	2.0	1.0	1.0	0	-0.00466156227514	blockFiles/set_51/main_unc/leftBlue\GB_LB_4.xlsx
551	main_unc	True	0.0	476	0	11.0	11.0	0.0	1	left	2.0	1.0	1.0	0	-0.05880094833669999	blockFiles/set_51/main_unc/leftBlue\GB_LB_4.xlsx
552	main_unc	True	0.0	476	0	11.0	11.0	1.0	1	right	1.0	1.0	1.0	1	0.077969851438	blockFiles/set_51/main_unc/leftBlue\GB_LB_4.xlsx
553	main_unc	True	0.0	476	0	11.0	11.0	0.0	1	left	2.0	0.0	1.0	0	-0.00257651023567	blockFiles/set_51/main_unc/leftBlue\GB_LB_4.xlsx
554	main_unc	True	0.0	476	0	11.0	11.0	1.0	1	right	1.0	0.0	1.0	1	0.0457496155612	blockFiles/set_51/main_unc/leftBlue\GB_LB_4.xlsx
555	main_unc	True	0.0	476	0	11.0	11.0	0.0	1	left	2.0	1.0	1.0	0	-0.039844799377	blockFiles/set_51/main_unc/leftBlue\GB_LB_4.xlsx
556	main_unc	True	0.0	476	0	11.0	11.0	0.0	1	left	2.0	1.0	1.0	0	-0.0488884253055	blockFiles/set_51/main_unc/leftBlue\GB_LB_4.xlsx
557	main_unc	True	0.0	476	0	11.0	11.0	1.0	1	right	1.0	1.0	1.0	1	0.0117969909869	blockFiles/set_51/main_unc/leftBlue\GB_LB_4.xlsx
558	main_unc	True	0.0	476	0	11.0	11.0	1.0	1	right	1.0	0.0	1.0	1	0.0371579395607	blockFiles/set_51/main_unc/leftBlue\GB_LB_4.xlsx
559	main_unc	True	0.0	476	0	11.0	11.0	0.0	1	left	2.0	1.0	1.0	0	-0.0523901480623	blockFiles/set_51/main_unc/leftBlue\GB_LB_4.xlsx
560	main_unc	True	0.0	476	0	11.0	11.0	1.0	1	right	1.0	1.0	1.0	1	0.0428663723171	blockFiles/set_51/main_unc/leftBlue\GB_LB_4.xlsx
561	main_unc	True	0.0	476	0	11.0	11.0	1.0	1	right	2.0	0.0	0.0	1	0.0491522348113	blockFiles/set_51/main_unc/leftBlue\GB_LB_4.xlsx
562	main_unc	True	0.0	476	0	11.0	11.0	0.0	1	left	2.0	1.0	1.0	0	-0.0724312685244	blockFiles/set_51/main_unc/leftBlue\GB_LB_4.xlsx
