	trial_type	complete	missIndex	participant	id	blockNumber	b_t	d_t	decision1.corr	decision1.keys	a_t	r_t	decision2.corr	s_t	u_t	block_file
0	main_safe	True	0.0	317	0	0.0	0.0	0.0	1	left	1.0	0.0	0.0	0	-0.08	blockFiles/set_14/main_safe/leftBlue\GB_LB_1.xlsx
1	main_safe	True	0.0	317	0	0.0	0.0	1.0	1	right	1.0	1.0	1.0	1	0.08	blockFiles/set_14/main_safe/leftBlue\GB_LB_1.xlsx
2	main_safe	True	0.0	317	0	0.0	0.0	1.0	1	right	1.0	0.0	1.0	1	0.08	blockFiles/set_14/main_safe/leftBlue\GB_LB_1.xlsx
3	main_safe	True	0.0	317	0	0.0	0.0	0.0	1	left	2.0	0.0	1.0	0	-0.08	blockFiles/set_14/main_safe/leftBlue\GB_LB_1.xlsx
4	main_safe	True	0.0	317	0	0.0	0.0	0.0	1	left	1.0	0.0	0.0	0	-0.08	blockFiles/set_14/main_safe/leftBlue\GB_LB_1.xlsx
5	main_safe	True	0.0	317	0	0.0	0.0	1.0	1	right	2.0	0.0	0.0	1	0.08	blockFiles/set_14/main_safe/leftBlue\GB_LB_1.xlsx
6	main_safe	True	0.0	317	0	0.0	0.0	0.0	1	left	2.0	1.0	1.0	0	-0.08	blockFiles/set_14/main_safe/leftBlue\GB_LB_1.xlsx
7	main_safe	True	0.0	317	0	0.0	0.0	0.0	1	left	2.0	1.0	1.0	0	-0.08	blockFiles/set_14/main_safe/leftBlue\GB_LB_1.xlsx
8	main_safe	True	0.0	317	0	0.0	0.0	1.0	1	right	1.0	0.0	1.0	1	0.08	blockFiles/set_14/main_safe/leftBlue\GB_LB_1.xlsx
9	main_safe	True	0.0	317	0	0.0	0.0	1.0	1	right	1.0	1.0	1.0	1	0.08	blockFiles/set_14/main_safe/leftBlue\GB_LB_1.xlsx
10	main_safe	True	0.0	317	0	0.0	0.0	0.0	1	left	2.0	1.0	1.0	0	-0.08	blockFiles/set_14/main_safe/leftBlue\GB_LB_1.xlsx
11	main_safe	True	0.0	317	0	0.0	0.0	1.0	1	right	1.0	0.0	1.0	1	0.08	blockFiles/set_14/main_safe/leftBlue\GB_LB_1.xlsx
12	main_safe	True	0.0	317	0	0.0	0.0	1.0	1	right	1.0	1.0	1.0	1	0.08	blockFiles/set_14/main_safe/leftBlue\GB_LB_1.xlsx
13	main_safe	True	0.0	317	0	0.0	0.0	0.0	1	left	2.0	1.0	1.0	0	-0.08	blockFiles/set_14/main_safe/leftBlue\GB_LB_1.xlsx
14	main_safe	True	0.0	317	0	0.0	0.0	1.0	1	right	1.0	1.0	1.0	1	0.08	blockFiles/set_14/main_safe/leftBlue\GB_LB_1.xlsx
15	main_safe	True	0.0	317	0	0.0	0.0	0.0	1	left	2.0	1.0	1.0	0	-0.08	blockFiles/set_14/main_safe/leftBlue\GB_LB_1.xlsx
16	main_safe	True	0.0	317	0	0.0	0.0	1.0	1	right	1.0	1.0	1.0	1	0.08	blockFiles/set_14/main_safe/leftBlue\GB_LB_1.xlsx
17	main_safe	True	0.0	317	0	0.0	0.0	0.0	1	left	2.0	1.0	1.0	0	-0.08	blockFiles/set_14/main_safe/leftBlue\GB_LB_1.xlsx
18	main_safe	True	0.0	317	0	0.0	0.0	0.0	1	left	2.0	1.0	1.0	0	-0.08	blockFiles/set_14/main_safe/leftBlue\GB_LB_1.xlsx
19	main_safe	True	0.0	317	0	0.0	0.0	0.0	1	left	2.0	1.0	1.0	0	-0.08	blockFiles/set_14/main_safe/leftBlue\GB_LB_1.xlsx
20	main_safe	True	0.0	317	0	0.0	0.0	1.0	1	right	1.0	1.0	1.0	1	0.08	blockFiles/set_14/main_safe/leftBlue\GB_LB_1.xlsx
21	main_safe	True	0.0	317	0	0.0	0.0	0.0	1	left	2.0	1.0	1.0	0	-0.08	blockFiles/set_14/main_safe/leftBlue\GB_LB_1.xlsx
22	main_safe	True	0.0	317	0	0.0	0.0	1.0	1	right	1.0	1.0	1.0	1	0.08	blockFiles/set_14/main_safe/leftBlue\GB_LB_1.xlsx
23	main_safe	True	0.0	317	0	0.0	0.0	1.0	1	right	1.0	0.0	1.0	1	0.08	blockFiles/set_14/main_safe/leftBlue\GB_LB_1.xlsx
24	main_safe	True	0.0	317	0	0.0	0.0	1.0	1	right	1.0	1.0	1.0	1	0.08	blockFiles/set_14/main_safe/leftBlue\GB_LB_1.xlsx
25	main_safe	True	0.0	317	0	1.0	1.0	1.0	1	right	1.0	0.0	0.0	1	0.08	blockFiles/set_14/main_safe/rightBlue\GB_RB_3.xlsx
26	main_safe	True	0.0	317	0	1.0	1.0	0.0	1	left	1.0	1.0	1.0	0	-0.08	blockFiles/set_14/main_safe/rightBlue\GB_RB_3.xlsx
27	main_safe	True	0.0	317	0	1.0	1.0	1.0	1	right	2.0	1.0	1.0	1	0.08	blockFiles/set_14/main_safe/rightBlue\GB_RB_3.xlsx
28	main_safe	True	0.0	317	0	1.0	1.0	1.0	1	right	2.0	1.0	1.0	1	0.08	blockFiles/set_14/main_safe/rightBlue\GB_RB_3.xlsx
29	main_safe	True	0.0	317	0	1.0	1.0	0.0	1	left	1.0	1.0	1.0	0	-0.08	blockFiles/set_14/main_safe/rightBlue\GB_RB_3.xlsx
30	main_safe	True	0.0	317	0	1.0	1.0	1.0	1	right	2.0	0.0	1.0	1	0.08	blockFiles/set_14/main_safe/rightBlue\GB_RB_3.xlsx
31	main_safe	True	0.0	317	0	1.0	1.0	1.0	1	right	2.0	1.0	1.0	1	0.08	blockFiles/set_14/main_safe/rightBlue\GB_RB_3.xlsx
32	main_safe	True	0.0	317	0	1.0	1.0	0.0	1	left	1.0	1.0	1.0	0	-0.08	blockFiles/set_14/main_safe/rightBlue\GB_RB_3.xlsx
33	main_safe	True	0.0	317	0	1.0	1.0	0.0	1	left	1.0	0.0	1.0	0	-0.08	blockFiles/set_14/main_safe/rightBlue\GB_RB_3.xlsx
34	main_safe	True	0.0	317	0	1.0	1.0	0.0	1	left	1.0	1.0	1.0	0	-0.08	blockFiles/set_14/main_safe/rightBlue\GB_RB_3.xlsx
35	main_safe	True	0.0	317	0	1.0	1.0	1.0	1	right	2.0	1.0	1.0	1	0.08	blockFiles/set_14/main_safe/rightBlue\GB_RB_3.xlsx
36	main_safe	True	0.0	317	0	1.0	1.0	1.0	1	right	2.0	0.0	1.0	1	0.08	blockFiles/set_14/main_safe/rightBlue\GB_RB_3.xlsx
37	main_safe	True	0.0	317	0	1.0	1.0	1.0	1	right	2.0	1.0	1.0	1	0.08	blockFiles/set_14/main_safe/rightBlue\GB_RB_3.xlsx
38	main_safe	True	0.0	317	0	1.0	1.0	0.0	1	left	1.0	1.0	1.0	0	-0.08	blockFiles/set_14/main_safe/rightBlue\GB_RB_3.xlsx
39	main_safe	True	0.0	317	0	1.0	1.0	0.0	1	left	1.0	1.0	1.0	0	-0.08	blockFiles/set_14/main_safe/rightBlue\GB_RB_3.xlsx
40	main_safe	True	0.0	317	0	1.0	1.0	0.0	1	left	1.0	1.0	1.0	0	-0.08	blockFiles/set_14/main_safe/rightBlue\GB_RB_3.xlsx
41	main_safe	True	0.0	317	0	1.0	1.0	1.0	1	right	2.0	1.0	1.0	1	0.08	blockFiles/set_14/main_safe/rightBlue\GB_RB_3.xlsx
42	main_safe	True	0.0	317	0	1.0	1.0	1.0	1	right	2.0	0.0	1.0	1	0.08	blockFiles/set_14/main_safe/rightBlue\GB_RB_3.xlsx
43	main_safe	True	0.0	317	0	1.0	1.0	1.0	1	right	2.0	0.0	1.0	1	0.08	blockFiles/set_14/main_safe/rightBlue\GB_RB_3.xlsx
44	main_safe	True	0.0	317	0	1.0	1.0	1.0	1	right	2.0	1.0	1.0	1	0.08	blockFiles/set_14/main_safe/rightBlue\GB_RB_3.xlsx
45	main_safe	True	0.0	317	0	1.0	1.0	0.0	1	left	1.0	1.0	1.0	0	-0.08	blockFiles/set_14/main_safe/rightBlue\GB_RB_3.xlsx
46	main_safe	True	0.0	317	0	1.0	1.0	0.0	1	left	1.0	1.0	1.0	0	-0.08	blockFiles/set_14/main_safe/rightBlue\GB_RB_3.xlsx
47	main_safe	True	0.0	317	0	1.0	1.0	0.0	1	left	1.0	1.0	1.0	0	-0.08	blockFiles/set_14/main_safe/rightBlue\GB_RB_3.xlsx
48	main_safe	True	0.0	317	0	1.0	1.0	1.0	1	right	2.0	0.0	1.0	1	0.08	blockFiles/set_14/main_safe/rightBlue\GB_RB_3.xlsx
49	main_safe	True	0.0	317	0	1.0	1.0	1.0	1	right	2.0	1.0	1.0	1	0.08	blockFiles/set_14/main_safe/rightBlue\GB_RB_3.xlsx
50	main_safe	True	0.0	317	0	2.0	2.0	1.0	1	right	2.0	1.0	1.0	1	0.08	blockFiles/set_14/main_safe/rightBlue\GB_RB_1.xlsx
51	main_safe	True	0.0	317	0	2.0	2.0	0.0	1	left	1.0	1.0	1.0	0	-0.08	blockFiles/set_14/main_safe/rightBlue\GB_RB_1.xlsx
52	main_safe	True	0.0	317	0	2.0	2.0	0.0	1	left	1.0	1.0	1.0	0	-0.08	blockFiles/set_14/main_safe/rightBlue\GB_RB_1.xlsx
53	main_safe	True	0.0	317	0	2.0	2.0	1.0	1	right	2.0	1.0	1.0	1	0.08	blockFiles/set_14/main_safe/rightBlue\GB_RB_1.xlsx
54	main_safe	True	0.0	317	0	2.0	2.0	0.0	1	left	1.0	1.0	1.0	0	-0.08	blockFiles/set_14/main_safe/rightBlue\GB_RB_1.xlsx
55	main_safe	True	0.0	317	0	2.0	2.0	1.0	1	right	2.0	1.0	1.0	1	0.08	blockFiles/set_14/main_safe/rightBlue\GB_RB_1.xlsx
56	main_safe	True	0.0	317	0	2.0	2.0	0.0	1	left	1.0	1.0	1.0	0	-0.08	blockFiles/set_14/main_safe/rightBlue\GB_RB_1.xlsx
57	main_safe	True	0.0	317	0	2.0	2.0	0.0	1	left	1.0	1.0	1.0	0	-0.08	blockFiles/set_14/main_safe/rightBlue\GB_RB_1.xlsx
58	main_safe	True	0.0	317	0	2.0	2.0	1.0	1	right	2.0	0.0	1.0	1	0.08	blockFiles/set_14/main_safe/rightBlue\GB_RB_1.xlsx
59	main_safe	True	0.0	317	0	2.0	2.0	1.0	1	right	2.0	1.0	1.0	1	0.08	blockFiles/set_14/main_safe/rightBlue\GB_RB_1.xlsx
60	main_safe	True	0.0	317	0	2.0	2.0	0.0	1	left	1.0	0.0	1.0	0	-0.08	blockFiles/set_14/main_safe/rightBlue\GB_RB_1.xlsx
61	main_safe	True	0.0	317	0	2.0	2.0	0.0	1	left	1.0	1.0	1.0	0	-0.08	blockFiles/set_14/main_safe/rightBlue\GB_RB_1.xlsx
62	main_safe	True	0.0	317	0	2.0	2.0	1.0	1	right	2.0	1.0	1.0	1	0.08	blockFiles/set_14/main_safe/rightBlue\GB_RB_1.xlsx
63	main_safe	True	0.0	317	0	2.0	2.0	1.0	1	right	2.0	1.0	1.0	1	0.08	blockFiles/set_14/main_safe/rightBlue\GB_RB_1.xlsx
64	main_safe	True	0.0	317	0	2.0	2.0	1.0	1	right	2.0	1.0	1.0	1	0.08	blockFiles/set_14/main_safe/rightBlue\GB_RB_1.xlsx
65	main_safe	True	0.0	317	0	2.0	2.0	0.0	1	left	1.0	0.0	1.0	0	-0.08	blockFiles/set_14/main_safe/rightBlue\GB_RB_1.xlsx
66	main_safe	True	0.0	317	0	2.0	2.0	0.0	1	left	1.0	1.0	1.0	0	-0.08	blockFiles/set_14/main_safe/rightBlue\GB_RB_1.xlsx
67	main_safe	True	0.0	317	0	2.0	2.0	1.0	1	right	2.0	1.0	1.0	1	0.08	blockFiles/set_14/main_safe/rightBlue\GB_RB_1.xlsx
68	main_safe	True	0.0	317	0	2.0	2.0	1.0	1	right	2.0	0.0	1.0	1	0.08	blockFiles/set_14/main_safe/rightBlue\GB_RB_1.xlsx
69	main_safe	True	0.0	317	0	2.0	2.0	1.0	1	right	2.0	1.0	1.0	1	0.08	blockFiles/set_14/main_safe/rightBlue\GB_RB_1.xlsx
70	main_safe	True	0.0	317	0	2.0	2.0	0.0	1	left	1.0	1.0	1.0	0	-0.08	blockFiles/set_14/main_safe/rightBlue\GB_RB_1.xlsx
71	main_safe	True	0.0	317	0	2.0	2.0	0.0	1	left	1.0	1.0	1.0	0	-0.08	blockFiles/set_14/main_safe/rightBlue\GB_RB_1.xlsx
72	main_safe	True	0.0	317	0	2.0	2.0	0.0	1	left	1.0	1.0	1.0	0	-0.08	blockFiles/set_14/main_safe/rightBlue\GB_RB_1.xlsx
73	main_safe	True	0.0	317	0	2.0	2.0	1.0	1	right	2.0	1.0	1.0	1	0.08	blockFiles/set_14/main_safe/rightBlue\GB_RB_1.xlsx
74	main_safe	True	0.0	317	0	2.0	2.0	0.0	0	left	2.0	0.0	1.0	1	0.08	blockFiles/set_14/main_safe/rightBlue\GB_RB_1.xlsx
75	main_safe	True	0.0	317	0	3.0	3.0	1.0	1	right	1.0	0.0	1.0	1	0.08	blockFiles/set_14/main_safe/leftBlue\GB_LB_3.xlsx
76	main_safe	True	0.0	317	0	3.0	3.0	1.0	1	right	1.0	1.0	1.0	1	0.08	blockFiles/set_14/main_safe/leftBlue\GB_LB_3.xlsx
77	main_safe	True	0.0	317	0	3.0	3.0	1.0	1	right	1.0	1.0	1.0	1	0.08	blockFiles/set_14/main_safe/leftBlue\GB_LB_3.xlsx
78	main_safe	True	0.0	317	0	3.0	3.0	1.0	1	right	1.0	0.0	1.0	1	0.08	blockFiles/set_14/main_safe/leftBlue\GB_LB_3.xlsx
79	main_safe	True	0.0	317	0	3.0	3.0	1.0	1	right	1.0	1.0	1.0	1	0.08	blockFiles/set_14/main_safe/leftBlue\GB_LB_3.xlsx
80	main_safe	True	0.0	317	0	3.0	3.0	1.0	1	right	1.0	1.0	1.0	1	0.08	blockFiles/set_14/main_safe/leftBlue\GB_LB_3.xlsx
81	main_safe	True	0.0	317	0	3.0	3.0	1.0	1	right	1.0	0.0	1.0	1	0.08	blockFiles/set_14/main_safe/leftBlue\GB_LB_3.xlsx
82	main_safe	True	0.0	317	0	3.0	3.0	1.0	1	right	1.0	1.0	1.0	1	0.08	blockFiles/set_14/main_safe/leftBlue\GB_LB_3.xlsx
83	main_safe	True	0.0	317	0	3.0	3.0	0.0	1	left	2.0	1.0	1.0	0	-0.08	blockFiles/set_14/main_safe/leftBlue\GB_LB_3.xlsx
84	main_safe	True	0.0	317	0	3.0	3.0	0.0	1	left	2.0	1.0	1.0	0	-0.08	blockFiles/set_14/main_safe/leftBlue\GB_LB_3.xlsx
85	main_safe	True	0.0	317	0	3.0	3.0	0.0	1	left	2.0	1.0	1.0	0	-0.08	blockFiles/set_14/main_safe/leftBlue\GB_LB_3.xlsx
86	main_safe	True	0.0	317	0	3.0	3.0	0.0	1	left	2.0	1.0	1.0	0	-0.08	blockFiles/set_14/main_safe/leftBlue\GB_LB_3.xlsx
87	main_safe	True	0.0	317	0	3.0	3.0	1.0	1	right	1.0	1.0	1.0	1	0.08	blockFiles/set_14/main_safe/leftBlue\GB_LB_3.xlsx
88	main_safe	True	0.0	317	0	3.0	3.0	1.0	1	right	1.0	1.0	1.0	1	0.08	blockFiles/set_14/main_safe/leftBlue\GB_LB_3.xlsx
89	main_safe	True	1.0	317	0	3.0	3.0	0.0	1	left	n/a	0.0	n/a	0	-0.08	blockFiles/set_14/main_safe/leftBlue\GB_LB_3.xlsx
90	main_safe	True	0.0	317	0	3.0	3.0	0.0	1	left	2.0	1.0	1.0	0	-0.08	blockFiles/set_14/main_safe/leftBlue\GB_LB_3.xlsx
91	main_safe	True	0.0	317	0	3.0	3.0	1.0	1	right	1.0	1.0	1.0	1	0.08	blockFiles/set_14/main_safe/leftBlue\GB_LB_3.xlsx
92	main_safe	True	1.0	317	0	3.0	3.0	0.0	1	left	n/a	0.0	n/a	0	-0.08	blockFiles/set_14/main_safe/leftBlue\GB_LB_3.xlsx
93	main_safe	True	0.0	317	0	3.0	3.0	0.0	1	left	2.0	1.0	1.0	0	-0.08	blockFiles/set_14/main_safe/leftBlue\GB_LB_3.xlsx
94	main_safe	True	0.0	317	0	3.0	3.0	0.0	1	left	2.0	1.0	1.0	0	-0.08	blockFiles/set_14/main_safe/leftBlue\GB_LB_3.xlsx
95	main_safe	True	0.0	317	0	3.0	3.0	0.0	1	left	2.0	1.0	1.0	0	-0.08	blockFiles/set_14/main_safe/leftBlue\GB_LB_3.xlsx
96	main_safe	True	0.0	317	0	3.0	3.0	1.0	1	right	1.0	1.0	1.0	1	0.08	blockFiles/set_14/main_safe/leftBlue\GB_LB_3.xlsx
97	main_safe	True	0.0	317	0	3.0	3.0	0.0	1	left	2.0	0.0	1.0	0	-0.08	blockFiles/set_14/main_safe/leftBlue\GB_LB_3.xlsx
98	main_safe	True	0.0	317	0	3.0	3.0	1.0	1	right	1.0	0.0	1.0	1	0.08	blockFiles/set_14/main_safe/leftBlue\GB_LB_3.xlsx
99	main_safe	True	0.0	317	0	3.0	3.0	0.0	1	left	2.0	1.0	1.0	0	-0.08	blockFiles/set_14/main_safe/leftBlue\GB_LB_3.xlsx
100	main_safe	True	0.0	317	0	3.0	3.0	0.0	1	left	2.0	1.0	1.0	0	-0.08	blockFiles/set_14/main_safe/leftBlue\GB_LB_3.xlsx
101	main_safe	True	0.0	317	0	3.0	3.0	0.0	1	left	2.0	1.0	1.0	0	-0.08	blockFiles/set_14/main_safe/leftBlue\GB_LB_3.xlsx
102	main_safe	True	0.0	317	0	4.0	4.0	1.0	1	right	2.0	1.0	1.0	1	0.08	blockFiles/set_14/main_safe/rightBlue\GB_RB_2.xlsx
103	main_safe	True	0.0	317	0	4.0	4.0	0.0	1	left	1.0	1.0	1.0	0	-0.08	blockFiles/set_14/main_safe/rightBlue\GB_RB_2.xlsx
104	main_safe	True	1.0	317	0	4.0	4.0	1.0	1	right	n/a	0.0	n/a	1	0.08	blockFiles/set_14/main_safe/rightBlue\GB_RB_2.xlsx
105	main_safe	True	0.0	317	0	4.0	4.0	0.0	1	left	1.0	1.0	1.0	0	-0.08	blockFiles/set_14/main_safe/rightBlue\GB_RB_2.xlsx
106	main_safe	True	0.0	317	0	4.0	4.0	1.0	1	right	2.0	0.0	1.0	1	0.08	blockFiles/set_14/main_safe/rightBlue\GB_RB_2.xlsx
107	main_safe	True	0.0	317	0	4.0	4.0	0.0	1	left	1.0	1.0	1.0	0	-0.08	blockFiles/set_14/main_safe/rightBlue\GB_RB_2.xlsx
108	main_safe	True	0.0	317	0	4.0	4.0	0.0	1	left	1.0	1.0	1.0	0	-0.08	blockFiles/set_14/main_safe/rightBlue\GB_RB_2.xlsx
109	main_safe	True	0.0	317	0	4.0	4.0	1.0	1	right	2.0	1.0	1.0	1	0.08	blockFiles/set_14/main_safe/rightBlue\GB_RB_2.xlsx
110	main_safe	True	0.0	317	0	4.0	4.0	0.0	1	left	1.0	1.0	1.0	0	-0.08	blockFiles/set_14/main_safe/rightBlue\GB_RB_2.xlsx
111	main_safe	True	0.0	317	0	4.0	4.0	1.0	1	right	2.0	1.0	1.0	1	0.08	blockFiles/set_14/main_safe/rightBlue\GB_RB_2.xlsx
112	main_safe	True	0.0	317	0	4.0	4.0	0.0	1	left	1.0	1.0	1.0	0	-0.08	blockFiles/set_14/main_safe/rightBlue\GB_RB_2.xlsx
113	main_safe	True	0.0	317	0	4.0	4.0	0.0	1	left	1.0	1.0	1.0	0	-0.08	blockFiles/set_14/main_safe/rightBlue\GB_RB_2.xlsx
114	main_safe	True	0.0	317	0	4.0	4.0	1.0	1	right	2.0	0.0	1.0	1	0.08	blockFiles/set_14/main_safe/rightBlue\GB_RB_2.xlsx
115	main_safe	True	0.0	317	0	4.0	4.0	1.0	1	right	2.0	1.0	1.0	1	0.08	blockFiles/set_14/main_safe/rightBlue\GB_RB_2.xlsx
116	main_safe	True	0.0	317	0	4.0	4.0	1.0	1	right	2.0	1.0	1.0	1	0.08	blockFiles/set_14/main_safe/rightBlue\GB_RB_2.xlsx
117	main_safe	True	0.0	317	0	4.0	4.0	0.0	1	left	1.0	0.0	1.0	0	-0.08	blockFiles/set_14/main_safe/rightBlue\GB_RB_2.xlsx
118	main_safe	True	0.0	317	0	4.0	4.0	1.0	1	right	2.0	1.0	1.0	1	0.08	blockFiles/set_14/main_safe/rightBlue\GB_RB_2.xlsx
119	main_safe	True	0.0	317	0	4.0	4.0	1.0	1	right	2.0	1.0	1.0	1	0.08	blockFiles/set_14/main_safe/rightBlue\GB_RB_2.xlsx
120	main_safe	True	0.0	317	0	4.0	4.0	0.0	1	left	1.0	1.0	1.0	0	-0.08	blockFiles/set_14/main_safe/rightBlue\GB_RB_2.xlsx
121	main_safe	True	0.0	317	0	4.0	4.0	0.0	1	left	1.0	1.0	1.0	0	-0.08	blockFiles/set_14/main_safe/rightBlue\GB_RB_2.xlsx
122	main_safe	True	0.0	317	0	4.0	4.0	1.0	1	right	2.0	1.0	1.0	1	0.08	blockFiles/set_14/main_safe/rightBlue\GB_RB_2.xlsx
123	main_safe	True	0.0	317	0	4.0	4.0	1.0	1	right	2.0	1.0	1.0	1	0.08	blockFiles/set_14/main_safe/rightBlue\GB_RB_2.xlsx
124	main_safe	True	0.0	317	0	4.0	4.0	0.0	1	left	1.0	1.0	1.0	0	-0.08	blockFiles/set_14/main_safe/rightBlue\GB_RB_2.xlsx
125	main_safe	True	0.0	317	0	4.0	4.0	0.0	1	left	1.0	1.0	1.0	0	-0.08	blockFiles/set_14/main_safe/rightBlue\GB_RB_2.xlsx
126	main_safe	True	0.0	317	0	4.0	4.0	0.0	1	left	1.0	1.0	1.0	0	-0.08	blockFiles/set_14/main_safe/rightBlue\GB_RB_2.xlsx
127	main_safe	True	0.0	317	0	4.0	4.0	1.0	1	right	2.0	0.0	1.0	1	0.08	blockFiles/set_14/main_safe/rightBlue\GB_RB_2.xlsx
128	main_safe	True	0.0	317	0	5.0	5.0	1.0	1	right	1.0	1.0	1.0	1	0.08	blockFiles/set_14/main_safe/leftBlue\GB_LB_2.xlsx
129	main_safe	True	0.0	317	0	5.0	5.0	0.0	1	left	2.0	0.0	1.0	0	-0.08	blockFiles/set_14/main_safe/leftBlue\GB_LB_2.xlsx
130	main_safe	True	0.0	317	0	5.0	5.0	0.0	1	left	2.0	1.0	1.0	0	-0.08	blockFiles/set_14/main_safe/leftBlue\GB_LB_2.xlsx
131	main_safe	True	0.0	317	0	5.0	5.0	0.0	1	left	2.0	1.0	1.0	0	-0.08	blockFiles/set_14/main_safe/leftBlue\GB_LB_2.xlsx
132	main_safe	True	0.0	317	0	5.0	5.0	1.0	1	right	1.0	1.0	1.0	1	0.08	blockFiles/set_14/main_safe/leftBlue\GB_LB_2.xlsx
133	main_safe	True	0.0	317	0	5.0	5.0	0.0	1	left	2.0	1.0	1.0	0	-0.08	blockFiles/set_14/main_safe/leftBlue\GB_LB_2.xlsx
134	main_safe	True	0.0	317	0	5.0	5.0	1.0	1	right	1.0	1.0	1.0	1	0.08	blockFiles/set_14/main_safe/leftBlue\GB_LB_2.xlsx
135	main_safe	True	0.0	317	0	5.0	5.0	0.0	1	left	2.0	1.0	1.0	0	-0.08	blockFiles/set_14/main_safe/leftBlue\GB_LB_2.xlsx
136	main_safe	True	0.0	317	0	5.0	5.0	0.0	1	left	2.0	0.0	1.0	0	-0.08	blockFiles/set_14/main_safe/leftBlue\GB_LB_2.xlsx
137	main_safe	True	0.0	317	0	5.0	5.0	0.0	0	left	2.0	0.0	0.0	1	0.08	blockFiles/set_14/main_safe/leftBlue\GB_LB_2.xlsx
138	main_safe	True	0.0	317	0	5.0	5.0	0.0	1	left	2.0	1.0	1.0	0	-0.08	blockFiles/set_14/main_safe/leftBlue\GB_LB_2.xlsx
139	main_safe	True	0.0	317	0	5.0	5.0	0.0	1	left	2.0	1.0	1.0	0	-0.08	blockFiles/set_14/main_safe/leftBlue\GB_LB_2.xlsx
140	main_safe	True	0.0	317	0	5.0	5.0	0.0	1	left	2.0	0.0	1.0	0	-0.08	blockFiles/set_14/main_safe/leftBlue\GB_LB_2.xlsx
141	main_safe	True	0.0	317	0	5.0	5.0	1.0	1	right	1.0	1.0	1.0	1	0.08	blockFiles/set_14/main_safe/leftBlue\GB_LB_2.xlsx
142	main_safe	True	0.0	317	0	5.0	5.0	1.0	1	right	1.0	1.0	1.0	1	0.08	blockFiles/set_14/main_safe/leftBlue\GB_LB_2.xlsx
143	main_safe	True	0.0	317	0	5.0	5.0	1.0	1	right	1.0	1.0	1.0	1	0.08	blockFiles/set_14/main_safe/leftBlue\GB_LB_2.xlsx
144	main_safe	True	0.0	317	0	5.0	5.0	0.0	1	left	2.0	1.0	1.0	0	-0.08	blockFiles/set_14/main_safe/leftBlue\GB_LB_2.xlsx
145	main_safe	True	0.0	317	0	5.0	5.0	1.0	1	right	1.0	0.0	1.0	1	0.08	blockFiles/set_14/main_safe/leftBlue\GB_LB_2.xlsx
146	main_safe	True	0.0	317	0	5.0	5.0	1.0	1	right	1.0	1.0	1.0	1	0.08	blockFiles/set_14/main_safe/leftBlue\GB_LB_2.xlsx
147	main_safe	True	0.0	317	0	5.0	5.0	1.0	1	right	1.0	1.0	1.0	1	0.08	blockFiles/set_14/main_safe/leftBlue\GB_LB_2.xlsx
148	main_safe	True	0.0	317	0	5.0	5.0	1.0	1	right	2.0	0.0	0.0	1	0.08	blockFiles/set_14/main_safe/leftBlue\GB_LB_2.xlsx
149	main_safe	True	0.0	317	0	5.0	5.0	1.0	1	right	1.0	1.0	1.0	1	0.08	blockFiles/set_14/main_safe/leftBlue\GB_LB_2.xlsx
150	main_safe	True	0.0	317	0	5.0	5.0	1.0	1	right	1.0	1.0	1.0	1	0.08	blockFiles/set_14/main_safe/leftBlue\GB_LB_2.xlsx
151	main_safe	True	0.0	317	0	5.0	5.0	0.0	1	left	2.0	1.0	1.0	0	-0.08	blockFiles/set_14/main_safe/leftBlue\GB_LB_2.xlsx
152	main_safe	True	0.0	317	0	5.0	5.0	0.0	1	left	2.0	1.0	1.0	0	-0.08	blockFiles/set_14/main_safe/leftBlue\GB_LB_2.xlsx
153	patches	True	n/a	317	0	n/a	n/a	1.0	1	right	n/a	n/a	n/a	1	0.05357687581330001	blockFiles/set_14/main_PD/GB_runPatches1.xlsx
154	patches	True	n/a	317	0	n/a	n/a	0.0	0	left	n/a	n/a	n/a	1	0.00142282886431	blockFiles/set_14/main_PD/GB_runPatches1.xlsx
155	patches	True	n/a	317	0	n/a	n/a	1.0	1	right	n/a	n/a	n/a	1	0.0212917239964	blockFiles/set_14/main_PD/GB_runPatches1.xlsx
156	patches	True	n/a	317	0	n/a	n/a	0.0	1	left	n/a	n/a	n/a	0	-0.0669531845674	blockFiles/set_14/main_PD/GB_runPatches1.xlsx
157	patches	True	n/a	317	0	n/a	n/a	1.0	1	right	n/a	n/a	n/a	1	0.047220497597000005	blockFiles/set_14/main_PD/GB_runPatches1.xlsx
158	patches	True	n/a	317	0	n/a	n/a	0.0	1	left	n/a	n/a	n/a	0	-0.0659844907932	blockFiles/set_14/main_PD/GB_runPatches1.xlsx
159	patches	True	n/a	317	0	n/a	n/a	0.0	1	left	n/a	n/a	n/a	0	-0.00545866547152	blockFiles/set_14/main_PD/GB_runPatches1.xlsx
160	patches	True	n/a	317	0	n/a	n/a	1.0	1	right	n/a	n/a	n/a	1	0.0501890406944	blockFiles/set_14/main_PD/GB_runPatches1.xlsx
161	patches	True	n/a	317	0	n/a	n/a	0.0	1	left	n/a	n/a	n/a	0	-0.0443998871371	blockFiles/set_14/main_PD/GB_runPatches1.xlsx
162	patches	True	n/a	317	0	n/a	n/a	1.0	1	right	n/a	n/a	n/a	1	0.052309771273300006	blockFiles/set_14/main_PD/GB_runPatches1.xlsx
163	patches	True	n/a	317	0	n/a	n/a	0.0	1	left	n/a	n/a	n/a	0	-0.0384500568546	blockFiles/set_14/main_PD/GB_runPatches1.xlsx
164	patches	True	n/a	317	0	n/a	n/a	0.0	1	left	n/a	n/a	n/a	0	-0.006031678207219999	blockFiles/set_14/main_PD/GB_runPatches1.xlsx
165	patches	True	n/a	317	0	n/a	n/a	0.0	1	left	n/a	n/a	n/a	0	-0.0761373931728	blockFiles/set_14/main_PD/GB_runPatches1.xlsx
166	patches	True	n/a	317	0	n/a	n/a	1.0	1	right	n/a	n/a	n/a	1	0.050993047933999995	blockFiles/set_14/main_PD/GB_runPatches1.xlsx
167	patches	True	n/a	317	0	n/a	n/a	1.0	1	right	n/a	n/a	n/a	1	0.031496267505	blockFiles/set_14/main_PD/GB_runPatches1.xlsx
168	patches	True	n/a	317	0	n/a	n/a	0.0	1	left	n/a	n/a	n/a	0	-0.0327953746915	blockFiles/set_14/main_PD/GB_runPatches1.xlsx
169	patches	True	n/a	317	0	n/a	n/a	0.0	1	left	n/a	n/a	n/a	0	-0.049111502263699994	blockFiles/set_14/main_PD/GB_runPatches1.xlsx
170	patches	True	n/a	317	0	n/a	n/a	1.0	0	right	n/a	n/a	n/a	0	-0.026214150283499996	blockFiles/set_14/main_PD/GB_runPatches1.xlsx
171	patches	True	n/a	317	0	n/a	n/a	0.0	0	left	n/a	n/a	n/a	1	0.0100397487171	blockFiles/set_14/main_PD/GB_runPatches1.xlsx
172	patches	True	n/a	317	0	n/a	n/a	1.0	1	right	n/a	n/a	n/a	1	0.06962436035280001	blockFiles/set_14/main_PD/GB_runPatches1.xlsx
173	patches	True	n/a	317	0	n/a	n/a	1.0	1	right	n/a	n/a	n/a	1	0.049952553585199996	blockFiles/set_14/main_PD/GB_runPatches1.xlsx
174	patches	True	n/a	317	0	n/a	n/a	1.0	1	right	n/a	n/a	n/a	1	0.046677780505300005	blockFiles/set_14/main_PD/GB_runPatches1.xlsx
175	patches	True	n/a	317	0	n/a	n/a	0.0	1	left	n/a	n/a	n/a	0	-0.0783750234358	blockFiles/set_14/main_PD/GB_runPatches1.xlsx
176	patches	True	n/a	317	0	n/a	n/a	0.0	0	left	n/a	n/a	n/a	1	0.0063753293827200005	blockFiles/set_14/main_PD/GB_runPatches1.xlsx
177	patches	True	n/a	317	0	n/a	n/a	1.0	1	right	n/a	n/a	n/a	1	0.035668247584300004	blockFiles/set_14/main_PD/GB_runPatches1.xlsx
178	patches	True	n/a	317	0	n/a	n/a	0.0	1	left	n/a	n/a	n/a	0	-0.0330306961574	blockFiles/set_14/main_PD/GB_runPatches1.xlsx
179	patches	True	n/a	317	0	n/a	n/a	1.0	1	right	n/a	n/a	n/a	1	0.0248649345711	blockFiles/set_14/main_PD/GB_runPatches1.xlsx
180	patches	True	n/a	317	0	n/a	n/a	0.0	1	left	n/a	n/a	n/a	0	-0.011255353149	blockFiles/set_14/main_PD/GB_runPatches1.xlsx
181	patches	True	n/a	317	0	n/a	n/a	1.0	1	right	n/a	n/a	n/a	1	0.07920994127169999	blockFiles/set_14/main_PD/GB_runPatches1.xlsx
182	patches	True	n/a	317	0	n/a	n/a	0.0	0	left	n/a	n/a	n/a	1	0.029843658022599997	blockFiles/set_14/main_PD/GB_runPatches1.xlsx
183	patches	True	n/a	317	0	n/a	n/a	1.0	0	right	n/a	n/a	n/a	0	-0.024675983618900003	blockFiles/set_14/main_PD/GB_runPatches1.xlsx
184	patches	True	n/a	317	0	n/a	n/a	0.0	1	left	n/a	n/a	n/a	0	-0.058598384875800005	blockFiles/set_14/main_PD/GB_runPatches1.xlsx
185	patches	True	n/a	317	0	n/a	n/a	0.0	0	left	n/a	n/a	n/a	1	0.0249406600185	blockFiles/set_14/main_PD/GB_runPatches1.xlsx
186	patches	True	n/a	317	0	n/a	n/a	1.0	1	right	n/a	n/a	n/a	1	0.041669308878500004	blockFiles/set_14/main_PD/GB_runPatches1.xlsx
187	patches	True	n/a	317	0	n/a	n/a	0.0	0	left	n/a	n/a	n/a	1	0.0498324246332	blockFiles/set_14/main_PD/GB_runPatches1.xlsx
188	patches	True	n/a	317	0	n/a	n/a	0.0	1	left	n/a	n/a	n/a	0	-0.0017181144095999997	blockFiles/set_14/main_PD/GB_runPatches1.xlsx
189	patches	True	n/a	317	0	n/a	n/a	1.0	1	right	n/a	n/a	n/a	1	0.0593664314784	blockFiles/set_14/main_PD/GB_runPatches1.xlsx
190	patches	True	n/a	317	0	n/a	n/a	0.0	1	left	n/a	n/a	n/a	0	-0.0646611897834	blockFiles/set_14/main_PD/GB_runPatches1.xlsx
191	patches	True	n/a	317	0	n/a	n/a	0.0	1	left	n/a	n/a	n/a	0	-0.00306353809312	blockFiles/set_14/main_PD/GB_runPatches1.xlsx
192	patches	True	n/a	317	0	n/a	n/a	0.0	0	left	n/a	n/a	n/a	1	0.015874941051	blockFiles/set_14/main_PD/GB_runPatches1.xlsx
193	patches	True	n/a	317	0	n/a	n/a	0.0	1	left	n/a	n/a	n/a	0	-0.078201899007	blockFiles/set_14/main_PD/GB_runPatches1.xlsx
194	patches	True	n/a	317	0	n/a	n/a	0.0	0	left	n/a	n/a	n/a	1	0.0128301406093	blockFiles/set_14/main_PD/GB_runPatches1.xlsx
195	patches	True	n/a	317	0	n/a	n/a	1.0	1	right	n/a	n/a	n/a	1	0.06515599887819999	blockFiles/set_14/main_PD/GB_runPatches1.xlsx
196	patches	True	n/a	317	0	n/a	n/a	0.0	1	left	n/a	n/a	n/a	0	-0.07230440834539999	blockFiles/set_14/main_PD/GB_runPatches1.xlsx
197	patches	True	n/a	317	0	n/a	n/a	0.0	1	left	n/a	n/a	n/a	0	-0.0008481870219110001	blockFiles/set_14/main_PD/GB_runPatches1.xlsx
198	patches	True	n/a	317	0	n/a	n/a	0.0	1	left	n/a	n/a	n/a	0	-0.0566003998928	blockFiles/set_14/main_PD/GB_runPatches1.xlsx
199	patches	True	n/a	317	0	n/a	n/a	0.0	1	left	n/a	n/a	n/a	0	-0.032118436489300004	blockFiles/set_14/main_PD/GB_runPatches1.xlsx
200	patches	True	n/a	317	0	n/a	n/a	1.0	1	right	n/a	n/a	n/a	1	0.06160717044030001	blockFiles/set_14/main_PD/GB_runPatches1.xlsx
201	patches	True	n/a	317	0	n/a	n/a	0.0	1	left	n/a	n/a	n/a	0	-0.006647775750609999	blockFiles/set_14/main_PD/GB_runPatches1.xlsx
202	patches	True	n/a	317	0	n/a	n/a	0.0	1	left	n/a	n/a	n/a	0	-0.0798272144422	blockFiles/set_14/main_PD/GB_runPatches1.xlsx
203	patches	True	n/a	317	0	n/a	n/a	0.0	1	left	n/a	n/a	n/a	0	-0.0572038157098	blockFiles/set_14/main_PD/GB_runPatches1.xlsx
204	patches	True	n/a	317	0	n/a	n/a	1.0	1	right	n/a	n/a	n/a	1	0.0713158852048	blockFiles/set_14/main_PD/GB_runPatches1.xlsx
205	patches	True	n/a	317	0	n/a	n/a	1.0	0	right	n/a	n/a	n/a	0	-0.00421726886183	blockFiles/set_14/main_PD/GB_runPatches1.xlsx
206	patches	True	n/a	317	0	n/a	n/a	0.0	1	left	n/a	n/a	n/a	0	-0.0254866863415	blockFiles/set_14/main_PD/GB_runPatches1.xlsx
207	patches	True	n/a	317	0	n/a	n/a	1.0	1	right	n/a	n/a	n/a	1	0.06891957679760001	blockFiles/set_14/main_PD/GB_runPatches1.xlsx
208	patches	True	n/a	317	0	n/a	n/a	0.0	1	left	n/a	n/a	n/a	0	-0.0408087622374	blockFiles/set_14/main_PD/GB_runPatches1.xlsx
209	patches	True	n/a	317	0	n/a	n/a	0.0	1	left	n/a	n/a	n/a	0	-0.00387851616368	blockFiles/set_14/main_PD/GB_runPatches1.xlsx
210	patches	True	n/a	317	0	n/a	n/a	0.0	1	left	n/a	n/a	n/a	0	-0.0154654381797	blockFiles/set_14/main_PD/GB_runPatches1.xlsx
211	patches	True	n/a	317	0	n/a	n/a	1.0	1	right	n/a	n/a	n/a	1	0.0356022530422	blockFiles/set_14/main_PD/GB_runPatches1.xlsx
212	patches	True	n/a	317	0	n/a	n/a	0.0	0	left	n/a	n/a	n/a	1	0.0526731591299	blockFiles/set_14/main_PD/GB_runPatches1.xlsx
213	patches	True	n/a	317	0	n/a	n/a	1.0	1	right	n/a	n/a	n/a	1	0.065802077353	blockFiles/set_14/main_PD/GB_runPatches1.xlsx
214	patches	True	n/a	317	0	n/a	n/a	0.0	1	left	n/a	n/a	n/a	0	-0.0147701297887	blockFiles/set_14/main_PD/GB_runPatches1.xlsx
215	patches	True	n/a	317	0	n/a	n/a	0.0	1	left	n/a	n/a	n/a	0	-0.0487472314015	blockFiles/set_14/main_PD/GB_runPatches1.xlsx
216	patches	True	n/a	317	0	n/a	n/a	1.0	0	right	n/a	n/a	n/a	0	-0.012200203985	blockFiles/set_14/main_PD/GB_runPatches1.xlsx
217	patches	True	n/a	317	0	n/a	n/a	0.0	1	left	n/a	n/a	n/a	0	-0.054003467895099994	blockFiles/set_14/main_PD/GB_runPatches1.xlsx
218	patches	True	n/a	317	0	n/a	n/a	0.0	1	left	n/a	n/a	n/a	0	-0.055098351296	blockFiles/set_14/main_PD/GB_runPatches1.xlsx
219	patches	True	n/a	317	0	n/a	n/a	0.0	1	left	n/a	n/a	n/a	0	-0.04472071329130001	blockFiles/set_14/main_PD/GB_runPatches1.xlsx
220	patches	True	n/a	317	0	n/a	n/a	1.0	1	right	n/a	n/a	n/a	1	0.0645487504452	blockFiles/set_14/main_PD/GB_runPatches1.xlsx
221	patches	True	n/a	317	0	n/a	n/a	0.0	0	left	n/a	n/a	n/a	1	0.0586189684086	blockFiles/set_14/main_PD/GB_runPatches1.xlsx
222	patches	True	n/a	317	0	n/a	n/a	0.0	1	left	n/a	n/a	n/a	0	-0.047190559543699995	blockFiles/set_14/main_PD/GB_runPatches1.xlsx
223	patches	True	n/a	317	0	n/a	n/a	0.0	1	left	n/a	n/a	n/a	0	-0.0177283564955	blockFiles/set_14/main_PD/GB_runPatches1.xlsx
224	patches	True	n/a	317	0	n/a	n/a	0.0	0	left	n/a	n/a	n/a	1	0.00986552974209	blockFiles/set_14/main_PD/GB_runPatches1.xlsx
225	patches	True	n/a	317	0	n/a	n/a	0.0	0	left	n/a	n/a	n/a	1	0.0384602239169	blockFiles/set_14/main_PD/GB_runPatches1.xlsx
226	patches	True	n/a	317	0	n/a	n/a	0.0	1	left	n/a	n/a	n/a	0	-0.0681024787575	blockFiles/set_14/main_PD/GB_runPatches1.xlsx
227	patches	True	n/a	317	0	n/a	n/a	1.0	1	right	n/a	n/a	n/a	1	0.00983554154634	blockFiles/set_14/main_PD/GB_runPatches1.xlsx
228	patches	True	n/a	317	0	n/a	n/a	0.0	1	left	n/a	n/a	n/a	0	-0.06797522574659999	blockFiles/set_14/main_PD/GB_runPatches1.xlsx
229	patches	True	n/a	317	0	n/a	n/a	1.0	1	right	n/a	n/a	n/a	1	0.0573601727001	blockFiles/set_14/main_PD/GB_runPatches1.xlsx
230	patches	True	n/a	317	0	n/a	n/a	1.0	1	right	n/a	n/a	n/a	1	0.021371440328700003	blockFiles/set_14/main_PD/GB_runPatches1.xlsx
231	patches	True	n/a	317	0	n/a	n/a	1.0	1	right	n/a	n/a	n/a	1	0.015112795680799998	blockFiles/set_14/main_PD/GB_runPatches1.xlsx
232	patches	True	n/a	317	0	n/a	n/a	1.0	1	right	n/a	n/a	n/a	1	0.0776247127727	blockFiles/set_14/main_PD/GB_runPatches1.xlsx
233	patches	True	n/a	317	0	n/a	n/a	1.0	1	right	n/a	n/a	n/a	1	0.05164752138780001	blockFiles/set_14/main_PD/GB_runPatches1.xlsx
234	patches	True	n/a	317	0	n/a	n/a	1.0	1	right	n/a	n/a	n/a	1	0.0429746595211	blockFiles/set_14/main_PD/GB_runPatches1.xlsx
235	patches	True	n/a	317	0	n/a	n/a	0.0	0	left	n/a	n/a	n/a	1	0.032385294716799996	blockFiles/set_14/main_PD/GB_runPatches1.xlsx
236	patches	True	n/a	317	0	n/a	n/a	1.0	1	right	n/a	n/a	n/a	1	0.0333876347542	blockFiles/set_14/main_PD/GB_runPatches1.xlsx
237	patches	True	n/a	317	0	n/a	n/a	1.0	1	right	n/a	n/a	n/a	1	0.0436972961202	blockFiles/set_14/main_PD/GB_runPatches1.xlsx
238	patches	True	n/a	317	0	n/a	n/a	0.0	1	left	n/a	n/a	n/a	0	-0.0490820164047	blockFiles/set_14/main_PD/GB_runPatches1.xlsx
239	patches	True	n/a	317	0	n/a	n/a	1.0	0	right	n/a	n/a	n/a	0	-0.020675621014099997	blockFiles/set_14/main_PD/GB_runPatches1.xlsx
240	patches	True	n/a	317	0	n/a	n/a	0.0	1	left	n/a	n/a	n/a	0	-0.058282950893	blockFiles/set_14/main_PD/GB_runPatches1.xlsx
241	patches	True	n/a	317	0	n/a	n/a	1.0	1	right	n/a	n/a	n/a	1	0.0590449791774	blockFiles/set_14/main_PD/GB_runPatches1.xlsx
242	patches	True	n/a	317	0	n/a	n/a	1.0	1	right	n/a	n/a	n/a	1	0.0144070979953	blockFiles/set_14/main_PD/GB_runPatches1.xlsx
243	patches	True	n/a	317	0	n/a	n/a	0.0	1	left	n/a	n/a	n/a	0	-0.0185375821963	blockFiles/set_14/main_PD/GB_runPatches1.xlsx
244	patches	True	n/a	317	0	n/a	n/a	0.0	0	left	n/a	n/a	n/a	1	0.00310614984483	blockFiles/set_14/main_PD/GB_runPatches1.xlsx
245	patches	True	n/a	317	0	n/a	n/a	0.0	1	left	n/a	n/a	n/a	0	-0.062283269688499995	blockFiles/set_14/main_PD/GB_runPatches1.xlsx
246	patches	True	n/a	317	0	n/a	n/a	0.0	0	left	n/a	n/a	n/a	1	0.007143864985560001	blockFiles/set_14/main_PD/GB_runPatches1.xlsx
247	patches	True	n/a	317	0	n/a	n/a	1.0	0	right	n/a	n/a	n/a	0	-0.0509605967253	blockFiles/set_14/main_PD/GB_runPatches1.xlsx
248	patches	True	n/a	317	0	n/a	n/a	0.0	0	left	n/a	n/a	n/a	1	0.0271429346502	blockFiles/set_14/main_PD/GB_runPatches1.xlsx
249	patches	True	n/a	317	0	n/a	n/a	0.0	1	left	n/a	n/a	n/a	0	-0.06690328881140001	blockFiles/set_14/main_PD/GB_runPatches1.xlsx
250	patches	True	n/a	317	0	n/a	n/a	0.0	1	left	n/a	n/a	n/a	0	-0.0388165140897	blockFiles/set_14/main_PD/GB_runPatches1.xlsx
251	patches	True	n/a	317	0	n/a	n/a	0.0	0	left	n/a	n/a	n/a	1	0.038608149942	blockFiles/set_14/main_PD/GB_runPatches1.xlsx
252	patches	True	n/a	317	0	n/a	n/a	0.0	1	left	n/a	n/a	n/a	0	-0.012522158455100001	blockFiles/set_14/main_PD/GB_runPatches1.xlsx
253	main_unc	True	0.0	317	0	0.0	0.0	0.0	1	left	1.0	0.0	0.0	0	-0.07578941002489999	blockFiles/set_14/main_unc/leftBlue\GB_LB_2.xlsx
254	main_unc	True	0.0	317	0	0.0	0.0	1.0	1	right	2.0	0.0	0.0	1	0.0656450999714	blockFiles/set_14/main_unc/leftBlue\GB_LB_2.xlsx
255	main_unc	True	0.0	317	0	0.0	0.0	0.0	1	left	2.0	1.0	1.0	0	-0.04367573417719999	blockFiles/set_14/main_unc/leftBlue\GB_LB_2.xlsx
256	main_unc	True	0.0	317	0	0.0	0.0	0.0	1	left	2.0	1.0	1.0	0	-0.00538481431082	blockFiles/set_14/main_unc/leftBlue\GB_LB_2.xlsx
257	main_unc	True	0.0	317	0	0.0	0.0	1.0	1	right	1.0	1.0	1.0	1	0.040815725419699994	blockFiles/set_14/main_unc/leftBlue\GB_LB_2.xlsx
258	main_unc	True	0.0	317	0	0.0	0.0	0.0	0	left	2.0	0.0	0.0	1	0.0271716717631	blockFiles/set_14/main_unc/leftBlue\GB_LB_2.xlsx
259	main_unc	True	0.0	317	0	0.0	0.0	0.0	1	left	1.0	0.0	0.0	0	-0.074841454234	blockFiles/set_14/main_unc/leftBlue\GB_LB_2.xlsx
260	main_unc	True	0.0	317	0	0.0	0.0	0.0	0	left	2.0	1.0	0.0	1	0.0157819384523	blockFiles/set_14/main_unc/leftBlue\GB_LB_2.xlsx
261	main_unc	True	0.0	317	0	0.0	0.0	1.0	1	right	1.0	1.0	1.0	1	0.07774893341589999	blockFiles/set_14/main_unc/leftBlue\GB_LB_2.xlsx
262	main_unc	True	0.0	317	0	0.0	0.0	0.0	1	left	2.0	0.0	1.0	0	-0.0366851747036	blockFiles/set_14/main_unc/leftBlue\GB_LB_2.xlsx
263	main_unc	True	0.0	317	0	0.0	0.0	0.0	1	left	2.0	1.0	1.0	0	-0.0377940795943	blockFiles/set_14/main_unc/leftBlue\GB_LB_2.xlsx
264	main_unc	True	0.0	317	0	0.0	0.0	0.0	1	left	2.0	1.0	1.0	0	-0.0287654155307	blockFiles/set_14/main_unc/leftBlue\GB_LB_2.xlsx
265	main_unc	True	0.0	317	0	0.0	0.0	1.0	1	right	1.0	1.0	1.0	1	0.0436469966359	blockFiles/set_14/main_unc/leftBlue\GB_LB_2.xlsx
266	main_unc	True	0.0	317	0	0.0	0.0	1.0	1	right	1.0	1.0	1.0	1	0.0309963891283	blockFiles/set_14/main_unc/leftBlue\GB_LB_2.xlsx
267	main_unc	True	0.0	317	0	0.0	0.0	0.0	1	left	2.0	1.0	1.0	0	-0.0579911136441	blockFiles/set_14/main_unc/leftBlue\GB_LB_2.xlsx
268	main_unc	True	0.0	317	0	0.0	0.0	0.0	0	left	1.0	1.0	1.0	1	0.00960701424628	blockFiles/set_14/main_unc/leftBlue\GB_LB_2.xlsx
269	main_unc	True	0.0	317	0	0.0	0.0	0.0	1	left	2.0	1.0	1.0	0	-0.065313677527	blockFiles/set_14/main_unc/leftBlue\GB_LB_2.xlsx
270	main_unc	True	0.0	317	0	0.0	0.0	0.0	1	left	2.0	0.0	1.0	0	-0.0208092185482	blockFiles/set_14/main_unc/leftBlue\GB_LB_2.xlsx
271	main_unc	True	0.0	317	0	0.0	0.0	1.0	1	right	1.0	1.0	1.0	1	0.060029771737800004	blockFiles/set_14/main_unc/leftBlue\GB_LB_2.xlsx
272	main_unc	True	0.0	317	0	0.0	0.0	1.0	1	right	1.0	1.0	1.0	1	0.0336824072897	blockFiles/set_14/main_unc/leftBlue\GB_LB_2.xlsx
273	main_unc	True	0.0	317	0	0.0	0.0	0.0	1	left	2.0	0.0	1.0	0	-0.0681112923101	blockFiles/set_14/main_unc/leftBlue\GB_LB_2.xlsx
274	main_unc	True	0.0	317	0	0.0	0.0	0.0	1	left	2.0	1.0	1.0	0	-0.035721318367900004	blockFiles/set_14/main_unc/leftBlue\GB_LB_2.xlsx
275	main_unc	True	0.0	317	0	0.0	0.0	1.0	1	right	1.0	0.0	1.0	1	0.00849519334733	blockFiles/set_14/main_unc/leftBlue\GB_LB_2.xlsx
276	main_unc	True	0.0	317	0	0.0	0.0	1.0	1	right	1.0	1.0	1.0	1	0.0717727231979	blockFiles/set_14/main_unc/leftBlue\GB_LB_2.xlsx
277	main_unc	True	0.0	317	0	0.0	0.0	1.0	1	right	1.0	1.0	1.0	1	0.00873889483511	blockFiles/set_14/main_unc/leftBlue\GB_LB_2.xlsx
278	main_unc	True	0.0	317	0	1.0	1.0	1.0	1	right	1.0	1.0	1.0	1	0.059795586857900006	blockFiles/set_14/main_unc/leftBlue\GB_LB_3.xlsx
279	main_unc	True	0.0	317	0	1.0	1.0	0.0	1	left	2.0	1.0	1.0	0	-0.0279253816977	blockFiles/set_14/main_unc/leftBlue\GB_LB_3.xlsx
280	main_unc	True	0.0	317	0	1.0	1.0	1.0	1	right	1.0	1.0	1.0	1	0.0260572949983	blockFiles/set_14/main_unc/leftBlue\GB_LB_3.xlsx
281	main_unc	True	0.0	317	0	1.0	1.0	1.0	1	right	1.0	1.0	1.0	1	0.0731592630967	blockFiles/set_14/main_unc/leftBlue\GB_LB_3.xlsx
282	main_unc	True	0.0	317	0	1.0	1.0	1.0	1	right	1.0	1.0	1.0	1	0.040901404563300006	blockFiles/set_14/main_unc/leftBlue\GB_LB_3.xlsx
283	main_unc	True	0.0	317	0	1.0	1.0	0.0	1	left	2.0	1.0	1.0	0	-0.023505118060900002	blockFiles/set_14/main_unc/leftBlue\GB_LB_3.xlsx
284	main_unc	True	0.0	317	0	1.0	1.0	0.0	1	left	2.0	0.0	1.0	0	-0.043077892456199994	blockFiles/set_14/main_unc/leftBlue\GB_LB_3.xlsx
285	main_unc	True	0.0	317	0	1.0	1.0	0.0	1	left	2.0	0.0	1.0	0	-0.06253462210300001	blockFiles/set_14/main_unc/leftBlue\GB_LB_3.xlsx
286	main_unc	True	0.0	317	0	1.0	1.0	0.0	0	left	1.0	1.0	1.0	1	0.0651430189051	blockFiles/set_14/main_unc/leftBlue\GB_LB_3.xlsx
287	main_unc	True	0.0	317	0	1.0	1.0	0.0	1	left	2.0	1.0	1.0	0	-0.012637639343700002	blockFiles/set_14/main_unc/leftBlue\GB_LB_3.xlsx
288	main_unc	True	0.0	317	0	1.0	1.0	0.0	1	left	2.0	1.0	1.0	0	-0.014943132139700001	blockFiles/set_14/main_unc/leftBlue\GB_LB_3.xlsx
289	main_unc	True	0.0	317	0	1.0	1.0	1.0	1	right	1.0	1.0	1.0	1	0.0757523055002	blockFiles/set_14/main_unc/leftBlue\GB_LB_3.xlsx
290	main_unc	True	0.0	317	0	1.0	1.0	0.0	0	left	2.0	0.0	0.0	1	0.0448672611825	blockFiles/set_14/main_unc/leftBlue\GB_LB_3.xlsx
291	main_unc	True	0.0	317	0	1.0	1.0	0.0	1	left	2.0	1.0	1.0	0	-0.0276515882462	blockFiles/set_14/main_unc/leftBlue\GB_LB_3.xlsx
292	main_unc	True	0.0	317	0	1.0	1.0	0.0	0	left	2.0	0.0	0.0	1	0.028308886475900002	blockFiles/set_14/main_unc/leftBlue\GB_LB_3.xlsx
293	main_unc	True	0.0	317	0	1.0	1.0	0.0	1	left	2.0	1.0	1.0	0	-0.0769069761783	blockFiles/set_14/main_unc/leftBlue\GB_LB_3.xlsx
294	main_unc	True	0.0	317	0	1.0	1.0	0.0	0	left	2.0	0.0	0.0	1	0.0221458619833	blockFiles/set_14/main_unc/leftBlue\GB_LB_3.xlsx
295	main_unc	True	0.0	317	0	1.0	1.0	0.0	1	left	2.0	0.0	1.0	0	-0.04210822567340001	blockFiles/set_14/main_unc/leftBlue\GB_LB_3.xlsx
296	main_unc	True	1.0	317	0	1.0	1.0	n/a	0	None	n/a	0.0	n/a	1	0.0184572436474	blockFiles/set_14/main_unc/leftBlue\GB_LB_3.xlsx
297	main_unc	True	0.0	317	0	1.0	1.0	0.0	1	left	2.0	0.0	1.0	0	-0.06867463834580001	blockFiles/set_14/main_unc/leftBlue\GB_LB_3.xlsx
298	main_unc	True	0.0	317	0	1.0	1.0	0.0	1	left	2.0	1.0	1.0	0	-0.0123944158107	blockFiles/set_14/main_unc/leftBlue\GB_LB_3.xlsx
299	main_unc	True	0.0	317	0	1.0	1.0	1.0	1	right	1.0	1.0	1.0	1	0.029313276894400005	blockFiles/set_14/main_unc/leftBlue\GB_LB_3.xlsx
300	main_unc	True	0.0	317	0	1.0	1.0	0.0	1	left	2.0	0.0	1.0	0	-0.06047447210180001	blockFiles/set_14/main_unc/leftBlue\GB_LB_3.xlsx
301	main_unc	True	0.0	317	0	1.0	1.0	0.0	0	left	2.0	0.0	0.0	1	0.04744242098180001	blockFiles/set_14/main_unc/leftBlue\GB_LB_3.xlsx
302	main_unc	True	0.0	317	0	1.0	1.0	0.0	0	left	2.0	0.0	0.0	1	0.0226806015894	blockFiles/set_14/main_unc/leftBlue\GB_LB_3.xlsx
303	main_unc	True	0.0	317	0	1.0	1.0	0.0	0	left	1.0	1.0	1.0	1	0.0184572436474	blockFiles/set_14/main_unc/leftBlue\GB_LB_3.xlsx
304	main_unc	True	0.0	317	0	2.0	2.0	0.0	1	left	2.0	0.0	0.0	0	-0.0298326613568	blockFiles/set_14/main_unc/rightBlue\GB_RB_5.xlsx
305	main_unc	True	0.0	317	0	2.0	2.0	1.0	1	right	2.0	0.0	1.0	1	0.024403588585599996	blockFiles/set_14/main_unc/rightBlue\GB_RB_5.xlsx
306	main_unc	True	0.0	317	0	2.0	2.0	0.0	1	left	1.0	1.0	1.0	0	-0.031347938776	blockFiles/set_14/main_unc/rightBlue\GB_RB_5.xlsx
307	main_unc	True	0.0	317	0	2.0	2.0	0.0	1	left	1.0	1.0	1.0	0	-0.049921109583199993	blockFiles/set_14/main_unc/rightBlue\GB_RB_5.xlsx
308	main_unc	True	0.0	317	0	2.0	2.0	0.0	0	left	1.0	1.0	0.0	1	0.029117802884400003	blockFiles/set_14/main_unc/rightBlue\GB_RB_5.xlsx
309	main_unc	True	0.0	317	0	2.0	2.0	0.0	1	left	1.0	1.0	1.0	0	-0.009114747643469999	blockFiles/set_14/main_unc/rightBlue\GB_RB_5.xlsx
310	main_unc	True	0.0	317	0	2.0	2.0	0.0	1	left	1.0	1.0	1.0	0	-0.0783656670898	blockFiles/set_14/main_unc/rightBlue\GB_RB_5.xlsx
311	main_unc	True	0.0	317	0	2.0	2.0	0.0	0	left	2.0	1.0	1.0	1	0.0448157492466	blockFiles/set_14/main_unc/rightBlue\GB_RB_5.xlsx
312	main_unc	True	0.0	317	0	2.0	2.0	1.0	1	right	1.0	0.0	0.0	1	0.023533851318099996	blockFiles/set_14/main_unc/rightBlue\GB_RB_5.xlsx
313	main_unc	True	0.0	317	0	2.0	2.0	1.0	1	right	1.0	0.0	0.0	1	0.034445412941300005	blockFiles/set_14/main_unc/rightBlue\GB_RB_5.xlsx
314	main_unc	True	0.0	317	0	2.0	2.0	1.0	1	right	2.0	1.0	1.0	1	0.0334693140537	blockFiles/set_14/main_unc/rightBlue\GB_RB_5.xlsx
315	main_unc	True	0.0	317	0	2.0	2.0	0.0	1	left	1.0	1.0	1.0	0	-0.0016593273542799998	blockFiles/set_14/main_unc/rightBlue\GB_RB_5.xlsx
316	main_unc	True	0.0	317	0	2.0	2.0	0.0	1	left	1.0	1.0	1.0	0	-0.0584579098783	blockFiles/set_14/main_unc/rightBlue\GB_RB_5.xlsx
317	main_unc	True	0.0	317	0	2.0	2.0	1.0	1	right	2.0	1.0	1.0	1	0.0577005227841	blockFiles/set_14/main_unc/rightBlue\GB_RB_5.xlsx
318	main_unc	True	0.0	317	0	2.0	2.0	0.0	1	left	1.0	1.0	1.0	0	-0.0427789589018	blockFiles/set_14/main_unc/rightBlue\GB_RB_5.xlsx
319	main_unc	True	0.0	317	0	2.0	2.0	0.0	1	left	1.0	1.0	1.0	0	-0.020451341662599997	blockFiles/set_14/main_unc/rightBlue\GB_RB_5.xlsx
320	main_unc	True	0.0	317	0	2.0	2.0	0.0	1	left	1.0	0.0	1.0	0	-0.00760517645627	blockFiles/set_14/main_unc/rightBlue\GB_RB_5.xlsx
321	main_unc	True	1.0	317	0	2.0	2.0	n/a	0	None	n/a	0.0	n/a	1	0.026023063454800002	blockFiles/set_14/main_unc/rightBlue\GB_RB_5.xlsx
322	main_unc	True	0.0	317	0	2.0	2.0	0.0	0	left	2.0	0.0	1.0	1	0.0333654918894	blockFiles/set_14/main_unc/rightBlue\GB_RB_5.xlsx
323	main_unc	True	0.0	317	0	2.0	2.0	0.0	1	left	1.0	1.0	1.0	0	-0.0582266168296	blockFiles/set_14/main_unc/rightBlue\GB_RB_5.xlsx
324	main_unc	True	0.0	317	0	2.0	2.0	0.0	1	left	1.0	1.0	1.0	0	-0.0455562001094	blockFiles/set_14/main_unc/rightBlue\GB_RB_5.xlsx
325	main_unc	True	0.0	317	0	2.0	2.0	0.0	1	left	1.0	1.0	1.0	0	-0.06367303986100001	blockFiles/set_14/main_unc/rightBlue\GB_RB_5.xlsx
326	main_unc	True	0.0	317	0	2.0	2.0	1.0	1	right	1.0	1.0	0.0	1	0.06702091559769999	blockFiles/set_14/main_unc/rightBlue\GB_RB_5.xlsx
327	main_unc	True	0.0	317	0	2.0	2.0	1.0	1	right	2.0	1.0	1.0	1	0.020500843543599996	blockFiles/set_14/main_unc/rightBlue\GB_RB_5.xlsx
328	main_unc	True	0.0	317	0	2.0	2.0	0.0	0	left	1.0	0.0	0.0	1	0.011657790821	blockFiles/set_14/main_unc/rightBlue\GB_RB_5.xlsx
329	main_unc	True	0.0	317	0	2.0	2.0	1.0	1	right	2.0	1.0	1.0	1	0.026023063454800002	blockFiles/set_14/main_unc/rightBlue\GB_RB_5.xlsx
330	main_unc	True	0.0	317	0	3.0	3.0	1.0	1	right	2.0	0.0	0.0	1	0.0729157394916	blockFiles/set_14/main_unc/leftBlue\GB_LB_5.xlsx
331	main_unc	True	0.0	317	0	3.0	3.0	0.0	1	left	2.0	1.0	1.0	0	-0.0661810979806	blockFiles/set_14/main_unc/leftBlue\GB_LB_5.xlsx
332	main_unc	True	0.0	317	0	3.0	3.0	0.0	1	left	2.0	1.0	1.0	0	-0.0323492795415	blockFiles/set_14/main_unc/leftBlue\GB_LB_5.xlsx
333	main_unc	True	0.0	317	0	3.0	3.0	0.0	1	left	2.0	0.0	1.0	0	-0.0219115560874	blockFiles/set_14/main_unc/leftBlue\GB_LB_5.xlsx
334	main_unc	True	0.0	317	0	3.0	3.0	1.0	1	right	1.0	1.0	1.0	1	0.07033731987700001	blockFiles/set_14/main_unc/leftBlue\GB_LB_5.xlsx
335	main_unc	True	1.0	317	0	3.0	3.0	n/a	0	None	n/a	0.0	n/a	0	-0.014007834084299998	blockFiles/set_14/main_unc/leftBlue\GB_LB_5.xlsx
336	main_unc	True	0.0	317	0	3.0	3.0	0.0	1	left	2.0	0.0	1.0	0	-0.0469492426515	blockFiles/set_14/main_unc/leftBlue\GB_LB_5.xlsx
337	main_unc	True	0.0	317	0	3.0	3.0	0.0	0	left	1.0	1.0	1.0	1	0.035924471914800006	blockFiles/set_14/main_unc/leftBlue\GB_LB_5.xlsx
338	main_unc	True	0.0	317	0	3.0	3.0	0.0	1	left	1.0	0.0	0.0	0	-0.0628884901293	blockFiles/set_14/main_unc/leftBlue\GB_LB_5.xlsx
339	main_unc	True	0.0	317	0	3.0	3.0	0.0	1	left	2.0	1.0	1.0	0	-0.0414534755051	blockFiles/set_14/main_unc/leftBlue\GB_LB_5.xlsx
340	main_unc	True	0.0	317	0	3.0	3.0	0.0	1	left	2.0	1.0	1.0	0	-0.06613865705210001	blockFiles/set_14/main_unc/leftBlue\GB_LB_5.xlsx
341	main_unc	True	0.0	317	0	3.0	3.0	1.0	1	right	1.0	1.0	1.0	1	0.0495930510946	blockFiles/set_14/main_unc/leftBlue\GB_LB_5.xlsx
342	main_unc	True	0.0	317	0	3.0	3.0	1.0	1	right	2.0	0.0	0.0	1	0.043087506461899995	blockFiles/set_14/main_unc/leftBlue\GB_LB_5.xlsx
343	main_unc	True	0.0	317	0	3.0	3.0	0.0	0	left	1.0	1.0	1.0	1	0.0027140854485300002	blockFiles/set_14/main_unc/leftBlue\GB_LB_5.xlsx
344	main_unc	True	1.0	317	0	3.0	3.0	n/a	0	None	n/a	0.0	n/a	0	-0.022179651688799998	blockFiles/set_14/main_unc/leftBlue\GB_LB_5.xlsx
345	main_unc	True	0.0	317	0	3.0	3.0	0.0	1	left	1.0	0.0	0.0	0	-0.034560805782699995	blockFiles/set_14/main_unc/leftBlue\GB_LB_5.xlsx
346	main_unc	True	0.0	317	0	3.0	3.0	0.0	1	left	2.0	1.0	1.0	0	-0.0462598991022	blockFiles/set_14/main_unc/leftBlue\GB_LB_5.xlsx
347	main_unc	True	1.0	317	0	3.0	3.0	n/a	0	None	n/a	0.0	n/a	1	0.0392167427577	blockFiles/set_14/main_unc/leftBlue\GB_LB_5.xlsx
348	main_unc	True	0.0	317	0	3.0	3.0	0.0	1	left	2.0	1.0	1.0	0	-0.012270321510700002	blockFiles/set_14/main_unc/leftBlue\GB_LB_5.xlsx
349	main_unc	True	1.0	317	0	3.0	3.0	n/a	0	None	n/a	0.0	n/a	1	0.0685897452943	blockFiles/set_14/main_unc/leftBlue\GB_LB_5.xlsx
350	main_unc	True	0.0	317	0	3.0	3.0	1.0	1	right	1.0	0.0	1.0	1	0.0412626545876	blockFiles/set_14/main_unc/leftBlue\GB_LB_5.xlsx
351	main_unc	True	0.0	317	0	3.0	3.0	1.0	1	right	1.0	1.0	1.0	1	0.0186813320965	blockFiles/set_14/main_unc/leftBlue\GB_LB_5.xlsx
352	main_unc	True	0.0	317	0	3.0	3.0	0.0	1	left	2.0	1.0	1.0	0	-0.0604461421445	blockFiles/set_14/main_unc/leftBlue\GB_LB_5.xlsx
353	main_unc	True	0.0	317	0	3.0	3.0	1.0	1	right	1.0	0.0	1.0	1	0.0685453778878	blockFiles/set_14/main_unc/leftBlue\GB_LB_5.xlsx
354	main_unc	True	0.0	317	0	3.0	3.0	1.0	1	right	1.0	1.0	1.0	1	0.027214474100599996	blockFiles/set_14/main_unc/leftBlue\GB_LB_5.xlsx
355	main_unc	True	0.0	317	0	3.0	3.0	0.0	1	left	2.0	1.0	1.0	0	-0.014007834084299998	blockFiles/set_14/main_unc/leftBlue\GB_LB_5.xlsx
356	main_unc	True	0.0	317	0	3.0	3.0	0.0	1	left	2.0	1.0	1.0	0	-0.022179651688799998	blockFiles/set_14/main_unc/leftBlue\GB_LB_5.xlsx
357	main_unc	True	0.0	317	0	3.0	3.0	0.0	0	left	1.0	1.0	1.0	1	0.0392167427577	blockFiles/set_14/main_unc/leftBlue\GB_LB_5.xlsx
358	main_unc	True	0.0	317	0	3.0	3.0	1.0	1	right	1.0	1.0	1.0	1	0.0685897452943	blockFiles/set_14/main_unc/leftBlue\GB_LB_5.xlsx
359	main_unc	True	0.0	317	0	4.0	4.0	0.0	1	left	1.0	1.0	1.0	0	-0.0317776804417	blockFiles/set_14/main_unc/rightBlue\GB_RB_6.xlsx
360	main_unc	True	0.0	317	0	4.0	4.0	0.0	1	left	1.0	1.0	1.0	0	-0.0259295894951	blockFiles/set_14/main_unc/rightBlue\GB_RB_6.xlsx
361	main_unc	True	0.0	317	0	4.0	4.0	0.0	0	left	1.0	1.0	0.0	1	0.035945547279	blockFiles/set_14/main_unc/rightBlue\GB_RB_6.xlsx
362	main_unc	True	0.0	317	0	4.0	4.0	0.0	1	left	1.0	0.0	1.0	0	-0.027978533711299998	blockFiles/set_14/main_unc/rightBlue\GB_RB_6.xlsx
363	main_unc	True	0.0	317	0	4.0	4.0	1.0	1	right	2.0	1.0	1.0	1	0.05773057872430001	blockFiles/set_14/main_unc/rightBlue\GB_RB_6.xlsx
364	main_unc	True	0.0	317	0	4.0	4.0	1.0	1	right	1.0	1.0	0.0	1	0.0686877009273	blockFiles/set_14/main_unc/rightBlue\GB_RB_6.xlsx
365	main_unc	True	0.0	317	0	4.0	4.0	0.0	1	left	2.0	0.0	0.0	0	-0.0648976632021	blockFiles/set_14/main_unc/rightBlue\GB_RB_6.xlsx
366	main_unc	True	0.0	317	0	4.0	4.0	1.0	1	right	1.0	0.0	0.0	1	0.00376062776893	blockFiles/set_14/main_unc/rightBlue\GB_RB_6.xlsx
367	main_unc	True	0.0	317	0	4.0	4.0	0.0	1	left	1.0	1.0	1.0	0	-0.0305488808267	blockFiles/set_14/main_unc/rightBlue\GB_RB_6.xlsx
368	main_unc	True	0.0	317	0	4.0	4.0	0.0	1	left	1.0	1.0	1.0	0	-0.028166631292599997	blockFiles/set_14/main_unc/rightBlue\GB_RB_6.xlsx
369	main_unc	True	0.0	317	0	4.0	4.0	1.0	1	right	2.0	1.0	1.0	1	0.060846028979900005	blockFiles/set_14/main_unc/rightBlue\GB_RB_6.xlsx
370	main_unc	True	0.0	317	0	4.0	4.0	0.0	1	left	1.0	1.0	1.0	0	-0.0773503359221	blockFiles/set_14/main_unc/rightBlue\GB_RB_6.xlsx
371	main_unc	True	0.0	317	0	4.0	4.0	0.0	0	left	1.0	0.0	0.0	1	0.0230283997953	blockFiles/set_14/main_unc/rightBlue\GB_RB_6.xlsx
372	main_unc	True	0.0	317	0	4.0	4.0	0.0	1	left	1.0	1.0	1.0	0	-0.0172934994102	blockFiles/set_14/main_unc/rightBlue\GB_RB_6.xlsx
373	main_unc	True	0.0	317	0	4.0	4.0	1.0	1	right	2.0	1.0	1.0	1	0.061499707885099994	blockFiles/set_14/main_unc/rightBlue\GB_RB_6.xlsx
374	main_unc	True	0.0	317	0	4.0	4.0	0.0	1	left	1.0	1.0	1.0	0	-0.060008136760400003	blockFiles/set_14/main_unc/rightBlue\GB_RB_6.xlsx
375	main_unc	True	0.0	317	0	4.0	4.0	0.0	0	left	1.0	1.0	0.0	1	0.026095391009	blockFiles/set_14/main_unc/rightBlue\GB_RB_6.xlsx
376	main_unc	True	0.0	317	0	4.0	4.0	1.0	1	right	2.0	1.0	1.0	1	0.06649324664850001	blockFiles/set_14/main_unc/rightBlue\GB_RB_6.xlsx
377	main_unc	True	0.0	317	0	4.0	4.0	0.0	1	left	1.0	1.0	1.0	0	-0.0307263587415	blockFiles/set_14/main_unc/rightBlue\GB_RB_6.xlsx
378	main_unc	True	0.0	317	0	4.0	4.0	0.0	0	left	1.0	0.0	0.0	1	0.015345607213700001	blockFiles/set_14/main_unc/rightBlue\GB_RB_6.xlsx
379	main_unc	True	0.0	317	0	4.0	4.0	1.0	1	right	2.0	1.0	1.0	1	0.0169809570909	blockFiles/set_14/main_unc/rightBlue\GB_RB_6.xlsx
380	main_unc	True	1.0	317	0	4.0	4.0	0.0	1	left	n/a	0.0	n/a	0	-0.00131553072482	blockFiles/set_14/main_unc/rightBlue\GB_RB_6.xlsx
381	main_unc	True	0.0	317	0	4.0	4.0	0.0	1	left	1.0	1.0	1.0	0	-0.0777033751458	blockFiles/set_14/main_unc/rightBlue\GB_RB_6.xlsx
382	main_unc	True	0.0	317	0	4.0	4.0	0.0	0	left	1.0	0.0	0.0	1	0.049140569232400004	blockFiles/set_14/main_unc/rightBlue\GB_RB_6.xlsx
383	main_unc	True	0.0	317	0	4.0	4.0	1.0	1	right	2.0	1.0	1.0	1	0.07513582436369999	blockFiles/set_14/main_unc/rightBlue\GB_RB_6.xlsx
384	main_unc	True	0.0	317	0	4.0	4.0	0.0	1	left	1.0	0.0	1.0	0	-0.00131553072482	blockFiles/set_14/main_unc/rightBlue\GB_RB_6.xlsx
385	main_unc	True	0.0	317	0	5.0	5.0	0.0	1	left	2.0	1.0	1.0	0	-0.07428290305660001	blockFiles/set_14/main_unc/leftBlue\GB_LB_6.xlsx
386	main_unc	True	0.0	317	0	5.0	5.0	0.0	0	left	2.0	0.0	0.0	1	0.00217239221558	blockFiles/set_14/main_unc/leftBlue\GB_LB_6.xlsx
387	main_unc	True	0.0	317	0	5.0	5.0	0.0	1	left	2.0	1.0	1.0	0	-0.03963418236	blockFiles/set_14/main_unc/leftBlue\GB_LB_6.xlsx
388	main_unc	True	0.0	317	0	5.0	5.0	0.0	0	left	2.0	0.0	0.0	1	0.000154979955405	blockFiles/set_14/main_unc/leftBlue\GB_LB_6.xlsx
389	main_unc	True	0.0	317	0	5.0	5.0	0.0	1	left	2.0	1.0	1.0	0	-0.0575653664209	blockFiles/set_14/main_unc/leftBlue\GB_LB_6.xlsx
390	main_unc	True	0.0	317	0	5.0	5.0	1.0	1	right	1.0	1.0	1.0	1	0.06167708199469999	blockFiles/set_14/main_unc/leftBlue\GB_LB_6.xlsx
391	main_unc	True	0.0	317	0	5.0	5.0	0.0	0	left	1.0	1.0	1.0	1	0.0036632660031300003	blockFiles/set_14/main_unc/leftBlue\GB_LB_6.xlsx
392	main_unc	True	0.0	317	0	5.0	5.0	0.0	1	left	2.0	0.0	1.0	0	-0.056589924637199994	blockFiles/set_14/main_unc/leftBlue\GB_LB_6.xlsx
393	main_unc	True	0.0	317	0	5.0	5.0	1.0	1	right	1.0	1.0	1.0	1	0.0547316308692	blockFiles/set_14/main_unc/leftBlue\GB_LB_6.xlsx
394	main_unc	True	0.0	317	0	5.0	5.0	0.0	1	left	1.0	0.0	0.0	0	-0.048348134495299996	blockFiles/set_14/main_unc/leftBlue\GB_LB_6.xlsx
395	main_unc	True	0.0	317	0	5.0	5.0	0.0	1	left	2.0	1.0	1.0	0	-0.043851704820999995	blockFiles/set_14/main_unc/leftBlue\GB_LB_6.xlsx
396	main_unc	True	0.0	317	0	5.0	5.0	0.0	1	left	2.0	1.0	1.0	0	-0.030391671825200004	blockFiles/set_14/main_unc/leftBlue\GB_LB_6.xlsx
397	main_unc	True	0.0	317	0	5.0	5.0	1.0	1	right	1.0	1.0	1.0	1	0.0706499910541	blockFiles/set_14/main_unc/leftBlue\GB_LB_6.xlsx
398	main_unc	True	0.0	317	0	5.0	5.0	0.0	0	left	2.0	1.0	0.0	1	0.0009560573287310001	blockFiles/set_14/main_unc/leftBlue\GB_LB_6.xlsx
399	main_unc	True	0.0	317	0	5.0	5.0	0.0	1	left	2.0	1.0	1.0	0	-0.0581135966443	blockFiles/set_14/main_unc/leftBlue\GB_LB_6.xlsx
400	main_unc	True	1.0	317	0	5.0	5.0	n/a	0	None	n/a	0.0	n/a	1	0.0637534698285	blockFiles/set_14/main_unc/leftBlue\GB_LB_6.xlsx
401	main_unc	True	1.0	317	0	5.0	5.0	n/a	0	None	n/a	0.0	n/a	1	0.0271553559043	blockFiles/set_14/main_unc/leftBlue\GB_LB_6.xlsx
402	main_unc	True	0.0	317	0	5.0	5.0	1.0	1	right	1.0	1.0	1.0	1	0.04994193246590001	blockFiles/set_14/main_unc/leftBlue\GB_LB_6.xlsx
403	main_unc	True	0.0	317	0	5.0	5.0	0.0	0	left	1.0	1.0	1.0	1	0.0401788273081	blockFiles/set_14/main_unc/leftBlue\GB_LB_6.xlsx
404	main_unc	True	0.0	317	0	5.0	5.0	1.0	1	right	1.0	1.0	1.0	1	0.029127436149900002	blockFiles/set_14/main_unc/leftBlue\GB_LB_6.xlsx
405	main_unc	True	0.0	317	0	5.0	5.0	0.0	1	left	2.0	0.0	1.0	0	-0.0740371482819	blockFiles/set_14/main_unc/leftBlue\GB_LB_6.xlsx
406	main_unc	True	0.0	317	0	5.0	5.0	0.0	0	left	2.0	1.0	0.0	1	0.0111367939785	blockFiles/set_14/main_unc/leftBlue\GB_LB_6.xlsx
407	main_unc	True	0.0	317	0	5.0	5.0	1.0	1	right	1.0	1.0	1.0	1	0.023279547281599998	blockFiles/set_14/main_unc/leftBlue\GB_LB_6.xlsx
408	main_unc	True	0.0	317	0	5.0	5.0	0.0	1	left	2.0	1.0	1.0	0	-0.0724192247353	blockFiles/set_14/main_unc/leftBlue\GB_LB_6.xlsx
409	main_unc	True	0.0	317	0	5.0	5.0	0.0	1	left	2.0	0.0	1.0	0	-0.0780619698763	blockFiles/set_14/main_unc/leftBlue\GB_LB_6.xlsx
410	main_unc	True	0.0	317	0	5.0	5.0	1.0	1	right	1.0	1.0	1.0	1	0.0637534698285	blockFiles/set_14/main_unc/leftBlue\GB_LB_6.xlsx
411	main_unc	True	0.0	317	0	5.0	5.0	1.0	1	right	1.0	0.0	1.0	1	0.0271553559043	blockFiles/set_14/main_unc/leftBlue\GB_LB_6.xlsx
412	main_unc	True	0.0	317	0	6.0	6.0	0.0	1	left	2.0	0.0	0.0	0	-0.0692416711897	blockFiles/set_14/main_unc/rightBlue\GB_RB_1.xlsx
413	main_unc	True	1.0	317	0	6.0	6.0	n/a	0	None	n/a	0.0	n/a	0	-0.0409335459955	blockFiles/set_14/main_unc/rightBlue\GB_RB_1.xlsx
414	main_unc	True	0.0	317	0	6.0	6.0	0.0	1	left	2.0	0.0	0.0	0	-0.0646008372307	blockFiles/set_14/main_unc/rightBlue\GB_RB_1.xlsx
415	main_unc	True	0.0	317	0	6.0	6.0	0.0	1	left	1.0	1.0	1.0	0	-0.0681334353052	blockFiles/set_14/main_unc/rightBlue\GB_RB_1.xlsx
416	main_unc	True	0.0	317	0	6.0	6.0	0.0	0	left	1.0	0.0	0.0	1	0.00020437624305500002	blockFiles/set_14/main_unc/rightBlue\GB_RB_1.xlsx
417	main_unc	True	1.0	317	0	6.0	6.0	n/a	0	None	n/a	0.0	n/a	1	0.039744614344099996	blockFiles/set_14/main_unc/rightBlue\GB_RB_1.xlsx
418	main_unc	True	0.0	317	0	6.0	6.0	0.0	1	left	1.0	1.0	1.0	0	-0.0327569028549	blockFiles/set_14/main_unc/rightBlue\GB_RB_1.xlsx
419	main_unc	True	0.0	317	0	6.0	6.0	0.0	0	left	1.0	0.0	0.0	1	0.00763358913362	blockFiles/set_14/main_unc/rightBlue\GB_RB_1.xlsx
420	main_unc	True	0.0	317	0	6.0	6.0	0.0	1	left	2.0	0.0	0.0	0	-0.015449452102200001	blockFiles/set_14/main_unc/rightBlue\GB_RB_1.xlsx
421	main_unc	True	0.0	317	0	6.0	6.0	1.0	1	right	2.0	1.0	1.0	1	0.054797521382599995	blockFiles/set_14/main_unc/rightBlue\GB_RB_1.xlsx
422	main_unc	True	0.0	317	0	6.0	6.0	1.0	1	right	2.0	0.0	1.0	1	0.073468423821	blockFiles/set_14/main_unc/rightBlue\GB_RB_1.xlsx
423	main_unc	True	0.0	317	0	6.0	6.0	0.0	1	left	1.0	1.0	1.0	0	-0.07552781436589999	blockFiles/set_14/main_unc/rightBlue\GB_RB_1.xlsx
424	main_unc	True	1.0	317	0	6.0	6.0	n/a	0	None	n/a	0.0	n/a	0	-0.023032948188499998	blockFiles/set_14/main_unc/rightBlue\GB_RB_1.xlsx
425	main_unc	True	0.0	317	0	6.0	6.0	0.0	1	left	2.0	0.0	0.0	0	-0.044337486084599996	blockFiles/set_14/main_unc/rightBlue\GB_RB_1.xlsx
426	main_unc	True	1.0	317	0	6.0	6.0	n/a	0	None	n/a	0.0	n/a	0	-0.0240233157948	blockFiles/set_14/main_unc/rightBlue\GB_RB_1.xlsx
427	main_unc	True	0.0	317	0	6.0	6.0	0.0	0	left	2.0	1.0	1.0	1	0.0497522188909	blockFiles/set_14/main_unc/rightBlue\GB_RB_1.xlsx
428	main_unc	True	0.0	317	0	6.0	6.0	0.0	1	left	1.0	1.0	1.0	0	-0.0474271803536	blockFiles/set_14/main_unc/rightBlue\GB_RB_1.xlsx
429	main_unc	True	0.0	317	0	6.0	6.0	0.0	0	left	1.0	0.0	0.0	1	0.0199884271808	blockFiles/set_14/main_unc/rightBlue\GB_RB_1.xlsx
430	main_unc	True	0.0	317	0	6.0	6.0	1.0	1	right	2.0	1.0	1.0	1	0.04266434064130001	blockFiles/set_14/main_unc/rightBlue\GB_RB_1.xlsx
431	main_unc	True	0.0	317	0	6.0	6.0	0.0	0	left	2.0	1.0	1.0	1	0.0208062431961	blockFiles/set_14/main_unc/rightBlue\GB_RB_1.xlsx
432	main_unc	True	1.0	317	0	6.0	6.0	n/a	0	None	n/a	0.0	n/a	1	0.039412088785300003	blockFiles/set_14/main_unc/rightBlue\GB_RB_1.xlsx
433	main_unc	True	0.0	317	0	6.0	6.0	0.0	0	left	1.0	1.0	0.0	1	0.0245032637566	blockFiles/set_14/main_unc/rightBlue\GB_RB_1.xlsx
434	main_unc	True	0.0	317	0	6.0	6.0	0.0	1	left	2.0	0.0	0.0	0	-0.00953362550586	blockFiles/set_14/main_unc/rightBlue\GB_RB_1.xlsx
435	main_unc	True	0.0	317	0	6.0	6.0	0.0	1	left	2.0	0.0	0.0	0	-0.0681045244634	blockFiles/set_14/main_unc/rightBlue\GB_RB_1.xlsx
436	main_unc	True	0.0	317	0	6.0	6.0	0.0	0	left	1.0	0.0	0.0	1	0.0227349665575	blockFiles/set_14/main_unc/rightBlue\GB_RB_1.xlsx
437	main_unc	True	0.0	317	0	6.0	6.0	0.0	1	left	1.0	0.0	1.0	0	-0.0409335459955	blockFiles/set_14/main_unc/rightBlue\GB_RB_1.xlsx
438	main_unc	True	0.0	317	0	6.0	6.0	0.0	0	left	1.0	1.0	0.0	1	0.039744614344099996	blockFiles/set_14/main_unc/rightBlue\GB_RB_1.xlsx
439	main_unc	True	0.0	317	0	6.0	6.0	0.0	1	left	1.0	1.0	1.0	0	-0.023032948188499998	blockFiles/set_14/main_unc/rightBlue\GB_RB_1.xlsx
440	main_unc	True	0.0	317	0	6.0	6.0	0.0	1	left	1.0	1.0	1.0	0	-0.0240233157948	blockFiles/set_14/main_unc/rightBlue\GB_RB_1.xlsx
441	main_unc	True	0.0	317	0	6.0	6.0	0.0	0	left	1.0	0.0	0.0	1	0.039412088785300003	blockFiles/set_14/main_unc/rightBlue\GB_RB_1.xlsx
442	main_unc	True	0.0	317	0	7.0	7.0	0.0	1	left	2.0	1.0	0.0	0	-0.0606864642538	blockFiles/set_14/main_unc/rightBlue\GB_RB_4.xlsx
443	main_unc	True	0.0	317	0	7.0	7.0	0.0	0	left	2.0	1.0	1.0	1	0.000334984846413	blockFiles/set_14/main_unc/rightBlue\GB_RB_4.xlsx
444	main_unc	True	0.0	317	0	7.0	7.0	1.0	1	right	1.0	0.0	0.0	1	0.0571752151102	blockFiles/set_14/main_unc/rightBlue\GB_RB_4.xlsx
445	main_unc	True	0.0	317	0	7.0	7.0	0.0	1	left	2.0	1.0	0.0	0	-0.0313159784488	blockFiles/set_14/main_unc/rightBlue\GB_RB_4.xlsx
446	main_unc	True	0.0	317	0	7.0	7.0	0.0	0	left	2.0	1.0	1.0	1	0.070651903823	blockFiles/set_14/main_unc/rightBlue\GB_RB_4.xlsx
447	main_unc	True	0.0	317	0	7.0	7.0	1.0	1	right	1.0	0.0	0.0	1	0.042965351995099994	blockFiles/set_14/main_unc/rightBlue\GB_RB_4.xlsx
448	main_unc	True	0.0	317	0	7.0	7.0	0.0	1	left	1.0	1.0	1.0	0	-0.0602296913229	blockFiles/set_14/main_unc/rightBlue\GB_RB_4.xlsx
449	main_unc	True	0.0	317	0	7.0	7.0	0.0	1	left	1.0	1.0	1.0	0	-0.0027402037754699995	blockFiles/set_14/main_unc/rightBlue\GB_RB_4.xlsx
450	main_unc	True	1.0	317	0	7.0	7.0	n/a	0	None	n/a	0.0	n/a	1	0.0320252035558	blockFiles/set_14/main_unc/rightBlue\GB_RB_4.xlsx
451	main_unc	True	0.0	317	0	7.0	7.0	0.0	1	left	1.0	1.0	1.0	0	-0.0330491109006	blockFiles/set_14/main_unc/rightBlue\GB_RB_4.xlsx
452	main_unc	True	0.0	317	0	7.0	7.0	1.0	1	right	2.0	1.0	1.0	1	0.029120716750599997	blockFiles/set_14/main_unc/rightBlue\GB_RB_4.xlsx
453	main_unc	True	0.0	317	0	7.0	7.0	0.0	0	left	1.0	1.0	0.0	1	0.0293806572817	blockFiles/set_14/main_unc/rightBlue\GB_RB_4.xlsx
454	main_unc	True	0.0	317	0	7.0	7.0	1.0	1	right	2.0	1.0	1.0	1	0.0326665112749	blockFiles/set_14/main_unc/rightBlue\GB_RB_4.xlsx
455	main_unc	True	0.0	317	0	7.0	7.0	0.0	0	left	1.0	0.0	0.0	1	0.0609322861582	blockFiles/set_14/main_unc/rightBlue\GB_RB_4.xlsx
456	main_unc	True	0.0	317	0	7.0	7.0	0.0	1	left	1.0	1.0	1.0	0	-0.0562872693688	blockFiles/set_14/main_unc/rightBlue\GB_RB_4.xlsx
457	main_unc	True	0.0	317	0	7.0	7.0	0.0	1	left	1.0	0.0	1.0	0	-0.054415733385800004	blockFiles/set_14/main_unc/rightBlue\GB_RB_4.xlsx
458	main_unc	True	0.0	317	0	7.0	7.0	0.0	1	left	1.0	1.0	1.0	0	-0.018083213679500002	blockFiles/set_14/main_unc/rightBlue\GB_RB_4.xlsx
459	main_unc	True	0.0	317	0	7.0	7.0	0.0	1	left	2.0	0.0	0.0	0	-0.0200345253013	blockFiles/set_14/main_unc/rightBlue\GB_RB_4.xlsx
460	main_unc	True	0.0	317	0	7.0	7.0	0.0	0	left	1.0	0.0	0.0	1	0.028471420910200003	blockFiles/set_14/main_unc/rightBlue\GB_RB_4.xlsx
461	main_unc	True	0.0	317	0	7.0	7.0	0.0	1	left	2.0	0.0	0.0	0	-0.0361459828541	blockFiles/set_14/main_unc/rightBlue\GB_RB_4.xlsx
462	main_unc	True	1.0	317	0	7.0	7.0	n/a	0	None	n/a	0.0	n/a	0	-0.0509973694943	blockFiles/set_14/main_unc/rightBlue\GB_RB_4.xlsx
463	main_unc	True	0.0	317	0	7.0	7.0	0.0	1	left	1.0	1.0	1.0	0	-0.073287545722	blockFiles/set_14/main_unc/rightBlue\GB_RB_4.xlsx
464	main_unc	True	1.0	317	0	7.0	7.0	n/a	0	None	n/a	0.0	n/a	1	0.0640197118185	blockFiles/set_14/main_unc/rightBlue\GB_RB_4.xlsx
465	main_unc	True	0.0	317	0	7.0	7.0	0.0	1	left	1.0	1.0	1.0	0	-0.029183320589400003	blockFiles/set_14/main_unc/rightBlue\GB_RB_4.xlsx
466	main_unc	True	0.0	317	0	7.0	7.0	0.0	0	left	1.0	0.0	0.0	1	0.00293411098421	blockFiles/set_14/main_unc/rightBlue\GB_RB_4.xlsx
467	main_unc	True	0.0	317	0	7.0	7.0	0.0	0	left	1.0	0.0	0.0	1	0.0320252035558	blockFiles/set_14/main_unc/rightBlue\GB_RB_4.xlsx
468	main_unc	True	0.0	317	0	7.0	7.0	0.0	1	left	1.0	1.0	1.0	0	-0.0509973694943	blockFiles/set_14/main_unc/rightBlue\GB_RB_4.xlsx
469	main_unc	True	0.0	317	0	7.0	7.0	1.0	1	right	2.0	1.0	1.0	1	0.0640197118185	blockFiles/set_14/main_unc/rightBlue\GB_RB_4.xlsx
470	main_unc	True	0.0	317	0	8.0	8.0	0.0	1	left	2.0	1.0	0.0	0	-0.039812695607500004	blockFiles/set_14/main_unc/rightBlue\GB_RB_3.xlsx
471	main_unc	True	0.0	317	0	8.0	8.0	1.0	1	right	1.0	0.0	0.0	1	0.079793502707	blockFiles/set_14/main_unc/rightBlue\GB_RB_3.xlsx
472	main_unc	True	0.0	317	0	8.0	8.0	0.0	1	left	2.0	0.0	0.0	0	-0.0645589104295	blockFiles/set_14/main_unc/rightBlue\GB_RB_3.xlsx
473	main_unc	True	0.0	317	0	8.0	8.0	1.0	1	right	1.0	0.0	0.0	1	0.015446757506600002	blockFiles/set_14/main_unc/rightBlue\GB_RB_3.xlsx
474	main_unc	True	0.0	317	0	8.0	8.0	0.0	1	left	2.0	0.0	0.0	0	-0.0114758862555	blockFiles/set_14/main_unc/rightBlue\GB_RB_3.xlsx
475	main_unc	True	0.0	317	0	8.0	8.0	0.0	0	left	1.0	0.0	0.0	1	0.00268084805459	blockFiles/set_14/main_unc/rightBlue\GB_RB_3.xlsx
476	main_unc	True	0.0	317	0	8.0	8.0	0.0	0	left	1.0	0.0	0.0	1	0.0100159775652	blockFiles/set_14/main_unc/rightBlue\GB_RB_3.xlsx
477	main_unc	True	0.0	317	0	8.0	8.0	1.0	1	right	1.0	0.0	0.0	1	0.0572115705535	blockFiles/set_14/main_unc/rightBlue\GB_RB_3.xlsx
478	main_unc	True	0.0	317	0	8.0	8.0	0.0	1	left	2.0	1.0	0.0	0	-0.056241389326800006	blockFiles/set_14/main_unc/rightBlue\GB_RB_3.xlsx
479	main_unc	True	1.0	317	0	8.0	8.0	n/a	0	None	n/a	0.0	n/a	1	0.0647059601359	blockFiles/set_14/main_unc/rightBlue\GB_RB_3.xlsx
480	main_unc	True	0.0	317	0	8.0	8.0	0.0	1	left	2.0	0.0	0.0	0	-0.05427970774469999	blockFiles/set_14/main_unc/rightBlue\GB_RB_3.xlsx
481	main_unc	True	0.0	317	0	8.0	8.0	0.0	1	left	2.0	1.0	0.0	0	-0.024591939766000003	blockFiles/set_14/main_unc/rightBlue\GB_RB_3.xlsx
482	main_unc	True	0.0	317	0	8.0	8.0	0.0	1	left	2.0	0.0	0.0	0	-0.00820230951533	blockFiles/set_14/main_unc/rightBlue\GB_RB_3.xlsx
483	main_unc	True	0.0	317	0	8.0	8.0	1.0	1	right	1.0	0.0	0.0	1	0.060165656246199996	blockFiles/set_14/main_unc/rightBlue\GB_RB_3.xlsx
484	main_unc	True	0.0	317	0	8.0	8.0	0.0	1	left	1.0	1.0	1.0	0	-0.040176174361300006	blockFiles/set_14/main_unc/rightBlue\GB_RB_3.xlsx
485	main_unc	True	0.0	317	0	8.0	8.0	1.0	1	right	2.0	1.0	1.0	1	0.04978303110230001	blockFiles/set_14/main_unc/rightBlue\GB_RB_3.xlsx
486	main_unc	True	0.0	317	0	8.0	8.0	0.0	1	left	1.0	0.0	1.0	0	-0.06411169985309999	blockFiles/set_14/main_unc/rightBlue\GB_RB_3.xlsx
487	main_unc	True	0.0	317	0	8.0	8.0	0.0	0	left	2.0	1.0	1.0	1	0.0005717163719240001	blockFiles/set_14/main_unc/rightBlue\GB_RB_3.xlsx
488	main_unc	True	0.0	317	0	8.0	8.0	1.0	1	right	1.0	0.0	0.0	1	0.0417573230714	blockFiles/set_14/main_unc/rightBlue\GB_RB_3.xlsx
489	main_unc	True	0.0	317	0	8.0	8.0	0.0	1	left	2.0	0.0	0.0	0	-0.047450195048	blockFiles/set_14/main_unc/rightBlue\GB_RB_3.xlsx
490	main_unc	True	0.0	317	0	8.0	8.0	1.0	1	right	1.0	0.0	0.0	1	0.0795878444426	blockFiles/set_14/main_unc/rightBlue\GB_RB_3.xlsx
491	main_unc	True	0.0	317	0	8.0	8.0	1.0	1	right	1.0	1.0	0.0	1	0.0647273090668	blockFiles/set_14/main_unc/rightBlue\GB_RB_3.xlsx
492	main_unc	True	0.0	317	0	8.0	8.0	0.0	1	left	2.0	1.0	0.0	0	-0.0471661538631	blockFiles/set_14/main_unc/rightBlue\GB_RB_3.xlsx
493	main_unc	True	0.0	317	0	8.0	8.0	0.0	1	left	2.0	0.0	0.0	0	-0.04402924614030001	blockFiles/set_14/main_unc/rightBlue\GB_RB_3.xlsx
494	main_unc	True	0.0	317	0	8.0	8.0	0.0	0	left	1.0	0.0	0.0	1	0.00991030536592	blockFiles/set_14/main_unc/rightBlue\GB_RB_3.xlsx
495	main_unc	True	0.0	317	0	8.0	8.0	1.0	1	right	1.0	0.0	0.0	1	0.0647059601359	blockFiles/set_14/main_unc/rightBlue\GB_RB_3.xlsx
496	main_unc	True	0.0	317	0	9.0	9.0	0.0	1	left	2.0	1.0	0.0	0	-0.00108053460717	blockFiles/set_14/main_unc/rightBlue\GB_RB_2.xlsx
497	main_unc	True	0.0	317	0	9.0	9.0	1.0	1	right	1.0	0.0	0.0	1	0.0795053023472	blockFiles/set_14/main_unc/rightBlue\GB_RB_2.xlsx
498	main_unc	True	0.0	317	0	9.0	9.0	0.0	1	left	2.0	0.0	0.0	0	-0.05000557463619999	blockFiles/set_14/main_unc/rightBlue\GB_RB_2.xlsx
499	main_unc	True	0.0	317	0	9.0	9.0	0.0	1	left	1.0	0.0	1.0	0	-0.0237696016207	blockFiles/set_14/main_unc/rightBlue\GB_RB_2.xlsx
500	main_unc	True	0.0	317	0	9.0	9.0	1.0	1	right	1.0	0.0	0.0	1	0.0539113683999	blockFiles/set_14/main_unc/rightBlue\GB_RB_2.xlsx
501	main_unc	True	0.0	317	0	9.0	9.0	1.0	1	right	2.0	1.0	1.0	1	0.0571188131161	blockFiles/set_14/main_unc/rightBlue\GB_RB_2.xlsx
502	main_unc	True	0.0	317	0	9.0	9.0	1.0	1	right	2.0	1.0	1.0	1	0.0333846317232	blockFiles/set_14/main_unc/rightBlue\GB_RB_2.xlsx
503	main_unc	True	0.0	317	0	9.0	9.0	0.0	1	left	2.0	0.0	0.0	0	-0.026989640481799998	blockFiles/set_14/main_unc/rightBlue\GB_RB_2.xlsx
504	main_unc	True	0.0	317	0	9.0	9.0	1.0	1	right	2.0	1.0	1.0	1	0.04295886693519999	blockFiles/set_14/main_unc/rightBlue\GB_RB_2.xlsx
505	main_unc	True	0.0	317	0	9.0	9.0	1.0	1	right	2.0	1.0	1.0	1	0.0653056761622	blockFiles/set_14/main_unc/rightBlue\GB_RB_2.xlsx
506	main_unc	True	0.0	317	0	9.0	9.0	0.0	1	left	1.0	1.0	1.0	0	-0.00244479006156	blockFiles/set_14/main_unc/rightBlue\GB_RB_2.xlsx
507	main_unc	True	0.0	317	0	9.0	9.0	0.0	1	left	1.0	0.0	1.0	0	-0.0746603176184	blockFiles/set_14/main_unc/rightBlue\GB_RB_2.xlsx
508	main_unc	True	0.0	317	0	9.0	9.0	0.0	1	left	1.0	1.0	1.0	0	-0.0296011766233	blockFiles/set_14/main_unc/rightBlue\GB_RB_2.xlsx
509	main_unc	True	0.0	317	0	9.0	9.0	0.0	1	left	1.0	1.0	1.0	0	-0.048163140416099995	blockFiles/set_14/main_unc/rightBlue\GB_RB_2.xlsx
510	main_unc	True	0.0	317	0	9.0	9.0	1.0	1	right	2.0	1.0	1.0	1	0.0447702166438	blockFiles/set_14/main_unc/rightBlue\GB_RB_2.xlsx
511	main_unc	True	0.0	317	0	9.0	9.0	0.0	1	left	1.0	1.0	1.0	0	-0.0658286105096	blockFiles/set_14/main_unc/rightBlue\GB_RB_2.xlsx
512	main_unc	True	0.0	317	0	9.0	9.0	0.0	0	left	2.0	1.0	1.0	1	0.0396153875254	blockFiles/set_14/main_unc/rightBlue\GB_RB_2.xlsx
513	main_unc	True	0.0	317	0	9.0	9.0	1.0	1	right	1.0	0.0	0.0	1	0.0212437192723	blockFiles/set_14/main_unc/rightBlue\GB_RB_2.xlsx
514	main_unc	True	0.0	317	0	9.0	9.0	1.0	1	right	1.0	1.0	0.0	1	0.058683660794	blockFiles/set_14/main_unc/rightBlue\GB_RB_2.xlsx
515	main_unc	True	0.0	317	0	9.0	9.0	0.0	1	left	1.0	1.0	1.0	0	-0.030358296129900004	blockFiles/set_14/main_unc/rightBlue\GB_RB_2.xlsx
516	main_unc	True	0.0	317	0	9.0	9.0	1.0	1	right	2.0	0.0	1.0	1	0.059083606638000004	blockFiles/set_14/main_unc/rightBlue\GB_RB_2.xlsx
517	main_unc	True	0.0	317	0	9.0	9.0	0.0	0	left	1.0	1.0	0.0	1	0.005903729349370001	blockFiles/set_14/main_unc/rightBlue\GB_RB_2.xlsx
518	main_unc	True	0.0	317	0	9.0	9.0	0.0	0	left	1.0	0.0	0.0	1	0.0323385391943	blockFiles/set_14/main_unc/rightBlue\GB_RB_2.xlsx
519	main_unc	True	0.0	317	0	9.0	9.0	0.0	1	left	1.0	1.0	1.0	0	-0.06838437205180001	blockFiles/set_14/main_unc/rightBlue\GB_RB_2.xlsx
520	main_unc	True	0.0	317	0	9.0	9.0	1.0	1	right	2.0	1.0	1.0	1	0.009655736666170001	blockFiles/set_14/main_unc/rightBlue\GB_RB_2.xlsx
521	main_unc	True	0.0	317	0	10.0	10.0	1.0	1	right	1.0	1.0	1.0	1	0.0766076332517	blockFiles/set_14/main_unc/leftBlue\GB_LB_4.xlsx
522	main_unc	True	0.0	317	0	10.0	10.0	0.0	1	left	2.0	1.0	1.0	0	-0.00285963594913	blockFiles/set_14/main_unc/leftBlue\GB_LB_4.xlsx
523	main_unc	True	0.0	317	0	10.0	10.0	1.0	1	right	1.0	1.0	1.0	1	0.0324181542732	blockFiles/set_14/main_unc/leftBlue\GB_LB_4.xlsx
524	main_unc	True	0.0	317	0	10.0	10.0	0.0	1	left	2.0	1.0	1.0	0	-0.0337964472547	blockFiles/set_14/main_unc/leftBlue\GB_LB_4.xlsx
525	main_unc	True	0.0	317	0	10.0	10.0	0.0	1	left	2.0	1.0	1.0	0	-0.0348504048213	blockFiles/set_14/main_unc/leftBlue\GB_LB_4.xlsx
526	main_unc	True	0.0	317	0	10.0	10.0	1.0	1	right	1.0	0.0	1.0	1	0.0485714425892	blockFiles/set_14/main_unc/leftBlue\GB_LB_4.xlsx
527	main_unc	True	0.0	317	0	10.0	10.0	0.0	0	left	2.0	0.0	0.0	1	0.00377806633711	blockFiles/set_14/main_unc/leftBlue\GB_LB_4.xlsx
528	main_unc	True	0.0	317	0	10.0	10.0	0.0	1	left	2.0	0.0	1.0	0	-0.0722843388841	blockFiles/set_14/main_unc/leftBlue\GB_LB_4.xlsx
529	main_unc	True	0.0	317	0	10.0	10.0	0.0	1	left	2.0	1.0	1.0	0	-0.0131767151691	blockFiles/set_14/main_unc/leftBlue\GB_LB_4.xlsx
530	main_unc	True	0.0	317	0	10.0	10.0	1.0	1	right	2.0	0.0	0.0	1	0.0300836484693	blockFiles/set_14/main_unc/leftBlue\GB_LB_4.xlsx
531	main_unc	True	0.0	317	0	10.0	10.0	0.0	1	left	2.0	0.0	1.0	0	-0.0729093543068	blockFiles/set_14/main_unc/leftBlue\GB_LB_4.xlsx
532	main_unc	True	0.0	317	0	10.0	10.0	0.0	1	left	2.0	0.0	1.0	0	-0.0282532678731	blockFiles/set_14/main_unc/leftBlue\GB_LB_4.xlsx
533	main_unc	True	0.0	317	0	10.0	10.0	1.0	1	right	1.0	1.0	1.0	1	0.06189705196769999	blockFiles/set_14/main_unc/leftBlue\GB_LB_4.xlsx
534	main_unc	True	0.0	317	0	10.0	10.0	0.0	1	left	2.0	1.0	1.0	0	-0.07554994050410001	blockFiles/set_14/main_unc/leftBlue\GB_LB_4.xlsx
535	main_unc	True	0.0	317	0	10.0	10.0	1.0	1	right	1.0	0.0	1.0	1	0.039849062822800006	blockFiles/set_14/main_unc/leftBlue\GB_LB_4.xlsx
536	main_unc	True	0.0	317	0	10.0	10.0	1.0	1	right	1.0	1.0	1.0	1	0.0654412793927	blockFiles/set_14/main_unc/leftBlue\GB_LB_4.xlsx
537	main_unc	True	0.0	317	0	10.0	10.0	0.0	1	left	2.0	1.0	1.0	0	-0.0210787722096	blockFiles/set_14/main_unc/leftBlue\GB_LB_4.xlsx
538	main_unc	True	0.0	317	0	10.0	10.0	0.0	0	left	2.0	0.0	0.0	1	0.025773959793199998	blockFiles/set_14/main_unc/leftBlue\GB_LB_4.xlsx
539	main_unc	True	0.0	317	0	10.0	10.0	1.0	1	right	1.0	1.0	1.0	1	0.041347112413499996	blockFiles/set_14/main_unc/leftBlue\GB_LB_4.xlsx
540	main_unc	True	0.0	317	0	10.0	10.0	0.0	1	left	2.0	1.0	1.0	0	-0.026658434327700004	blockFiles/set_14/main_unc/leftBlue\GB_LB_4.xlsx
541	main_unc	True	0.0	317	0	10.0	10.0	0.0	1	left	2.0	1.0	1.0	0	-0.0465768679976	blockFiles/set_14/main_unc/leftBlue\GB_LB_4.xlsx
542	main_unc	True	0.0	317	0	10.0	10.0	1.0	1	right	1.0	1.0	1.0	1	0.0173298213445	blockFiles/set_14/main_unc/leftBlue\GB_LB_4.xlsx
543	main_unc	True	0.0	317	0	10.0	10.0	0.0	1	left	2.0	1.0	1.0	0	-0.0217996748723	blockFiles/set_14/main_unc/leftBlue\GB_LB_4.xlsx
544	main_unc	True	0.0	317	0	10.0	10.0	1.0	1	right	1.0	1.0	1.0	1	0.061641642376800004	blockFiles/set_14/main_unc/leftBlue\GB_LB_4.xlsx
545	main_unc	True	0.0	317	0	10.0	10.0	1.0	1	right	1.0	1.0	1.0	1	0.0519030561671	blockFiles/set_14/main_unc/leftBlue\GB_LB_4.xlsx
546	main_unc	True	0.0	317	0	11.0	11.0	1.0	1	right	2.0	0.0	0.0	1	0.0492712319456	blockFiles/set_14/main_unc/leftBlue\GB_LB_1.xlsx
547	main_unc	True	0.0	317	0	11.0	11.0	0.0	0	left	1.0	1.0	1.0	1	0.0032325933128600002	blockFiles/set_14/main_unc/leftBlue\GB_LB_1.xlsx
548	main_unc	True	0.0	317	0	11.0	11.0	0.0	1	left	1.0	0.0	0.0	0	-0.024081388898200003	blockFiles/set_14/main_unc/leftBlue\GB_LB_1.xlsx
549	main_unc	True	0.0	317	0	11.0	11.0	0.0	1	left	1.0	0.0	0.0	0	-0.010888625998	blockFiles/set_14/main_unc/leftBlue\GB_LB_1.xlsx
550	main_unc	True	0.0	317	0	11.0	11.0	0.0	1	left	1.0	1.0	0.0	0	-0.00858387222514	blockFiles/set_14/main_unc/leftBlue\GB_LB_1.xlsx
551	main_unc	True	0.0	317	0	11.0	11.0	0.0	1	left	1.0	1.0	0.0	0	-0.061255394741900004	blockFiles/set_14/main_unc/leftBlue\GB_LB_1.xlsx
552	main_unc	True	0.0	317	0	11.0	11.0	0.0	1	left	1.0	0.0	0.0	0	-0.0553197108395	blockFiles/set_14/main_unc/leftBlue\GB_LB_1.xlsx
553	main_unc	True	0.0	317	0	11.0	11.0	1.0	1	right	2.0	0.0	0.0	1	0.0488508036546	blockFiles/set_14/main_unc/leftBlue\GB_LB_1.xlsx
554	main_unc	True	0.0	317	0	11.0	11.0	0.0	1	left	1.0	1.0	0.0	0	-0.0285084250011	blockFiles/set_14/main_unc/leftBlue\GB_LB_1.xlsx
555	main_unc	True	0.0	317	0	11.0	11.0	1.0	1	right	2.0	0.0	0.0	1	0.037365496438	blockFiles/set_14/main_unc/leftBlue\GB_LB_1.xlsx
556	main_unc	True	0.0	317	0	11.0	11.0	0.0	1	left	1.0	1.0	0.0	0	-0.0636467465013	blockFiles/set_14/main_unc/leftBlue\GB_LB_1.xlsx
557	main_unc	True	0.0	317	0	11.0	11.0	0.0	1	left	1.0	0.0	0.0	0	-0.038575651235899996	blockFiles/set_14/main_unc/leftBlue\GB_LB_1.xlsx
558	main_unc	True	0.0	317	0	11.0	11.0	0.0	1	left	1.0	0.0	0.0	0	-0.05780824037269999	blockFiles/set_14/main_unc/leftBlue\GB_LB_1.xlsx
559	main_unc	True	0.0	317	0	11.0	11.0	1.0	1	right	1.0	1.0	1.0	1	0.039030403718400004	blockFiles/set_14/main_unc/leftBlue\GB_LB_1.xlsx
560	main_unc	True	0.0	317	0	11.0	11.0	1.0	1	right	1.0	1.0	1.0	1	0.0120479518175	blockFiles/set_14/main_unc/leftBlue\GB_LB_1.xlsx
561	main_unc	True	0.0	317	0	11.0	11.0	1.0	1	right	1.0	0.0	1.0	1	0.04327763201669999	blockFiles/set_14/main_unc/leftBlue\GB_LB_1.xlsx
562	main_unc	True	0.0	317	0	11.0	11.0	1.0	0	right	2.0	1.0	1.0	0	-0.0135362912528	blockFiles/set_14/main_unc/leftBlue\GB_LB_1.xlsx
563	main_unc	True	0.0	317	0	11.0	11.0	1.0	1	right	1.0	1.0	1.0	1	0.0567233908363	blockFiles/set_14/main_unc/leftBlue\GB_LB_1.xlsx
564	main_unc	True	0.0	317	0	11.0	11.0	1.0	1	right	2.0	0.0	0.0	1	0.0335319786519	blockFiles/set_14/main_unc/leftBlue\GB_LB_1.xlsx
565	main_unc	True	0.0	317	0	11.0	11.0	0.0	1	left	2.0	1.0	1.0	0	-0.05134941346940001	blockFiles/set_14/main_unc/leftBlue\GB_LB_1.xlsx
566	main_unc	True	0.0	317	0	11.0	11.0	0.0	0	left	2.0	1.0	0.0	1	0.031502870656499996	blockFiles/set_14/main_unc/leftBlue\GB_LB_1.xlsx
567	main_unc	True	0.0	317	0	11.0	11.0	0.0	1	left	2.0	1.0	1.0	0	-0.0751625495031	blockFiles/set_14/main_unc/leftBlue\GB_LB_1.xlsx
568	main_unc	True	0.0	317	0	11.0	11.0	0.0	0	left	2.0	0.0	0.0	1	0.000691809169948	blockFiles/set_14/main_unc/leftBlue\GB_LB_1.xlsx
569	main_unc	True	0.0	317	0	11.0	11.0	0.0	1	left	2.0	1.0	1.0	0	-0.000866458471864	blockFiles/set_14/main_unc/leftBlue\GB_LB_1.xlsx
570	main_unc	True	0.0	317	0	11.0	11.0	0.0	0	left	2.0	0.0	0.0	1	0.045561532638999994	blockFiles/set_14/main_unc/leftBlue\GB_LB_1.xlsx
