	trial_type	complete	missIndex	participant	id	blockNumber	b_t	d_t	decision1.corr	decision1.keys	a_t	r_t	decision2.corr	s_t	u_t	block_file
0	main_safe	True	0.0	284	0	0.0	0.0	1.0	1	right	2.0	0.0	0.0	1	0.08	blockFiles/set_3/main_safe/leftBlue\GB_LB_3.xlsx
1	main_safe	True	0.0	284	0	0.0	0.0	1.0	1	right	2.0	0.0	0.0	1	0.08	blockFiles/set_3/main_safe/leftBlue\GB_LB_3.xlsx
2	main_safe	True	0.0	284	0	0.0	0.0	1.0	1	right	2.0	1.0	0.0	1	0.08	blockFiles/set_3/main_safe/leftBlue\GB_LB_3.xlsx
3	main_safe	True	0.0	284	0	0.0	0.0	0.0	1	left	1.0	1.0	0.0	0	-0.08	blockFiles/set_3/main_safe/leftBlue\GB_LB_3.xlsx
4	main_safe	True	0.0	284	0	0.0	0.0	1.0	1	right	2.0	0.0	0.0	1	0.08	blockFiles/set_3/main_safe/leftBlue\GB_LB_3.xlsx
5	main_safe	True	0.0	284	0	0.0	0.0	1.0	1	right	2.0	0.0	0.0	1	0.08	blockFiles/set_3/main_safe/leftBlue\GB_LB_3.xlsx
6	main_safe	True	0.0	284	0	0.0	0.0	0.0	1	left	2.0	1.0	1.0	0	-0.08	blockFiles/set_3/main_safe/leftBlue\GB_LB_3.xlsx
7	main_safe	True	0.0	284	0	0.0	0.0	0.0	1	left	2.0	1.0	1.0	0	-0.08	blockFiles/set_3/main_safe/leftBlue\GB_LB_3.xlsx
8	main_safe	True	0.0	284	0	0.0	0.0	1.0	1	right	1.0	1.0	1.0	1	0.08	blockFiles/set_3/main_safe/leftBlue\GB_LB_3.xlsx
9	main_safe	True	0.0	284	0	0.0	0.0	0.0	1	left	2.0	1.0	1.0	0	-0.08	blockFiles/set_3/main_safe/leftBlue\GB_LB_3.xlsx
10	main_safe	True	0.0	284	0	0.0	0.0	1.0	1	right	1.0	0.0	1.0	1	0.08	blockFiles/set_3/main_safe/leftBlue\GB_LB_3.xlsx
11	main_safe	True	0.0	284	0	0.0	0.0	1.0	1	right	1.0	1.0	1.0	1	0.08	blockFiles/set_3/main_safe/leftBlue\GB_LB_3.xlsx
12	main_safe	True	0.0	284	0	0.0	0.0	0.0	1	left	2.0	1.0	1.0	0	-0.08	blockFiles/set_3/main_safe/leftBlue\GB_LB_3.xlsx
13	main_safe	True	0.0	284	0	0.0	0.0	0.0	1	left	2.0	1.0	1.0	0	-0.08	blockFiles/set_3/main_safe/leftBlue\GB_LB_3.xlsx
14	main_safe	True	0.0	284	0	0.0	0.0	0.0	1	left	2.0	0.0	1.0	0	-0.08	blockFiles/set_3/main_safe/leftBlue\GB_LB_3.xlsx
15	main_safe	True	0.0	284	0	0.0	0.0	0.0	1	left	2.0	1.0	1.0	0	-0.08	blockFiles/set_3/main_safe/leftBlue\GB_LB_3.xlsx
16	main_safe	True	0.0	284	0	0.0	0.0	1.0	1	right	1.0	1.0	1.0	1	0.08	blockFiles/set_3/main_safe/leftBlue\GB_LB_3.xlsx
17	main_safe	True	0.0	284	0	0.0	0.0	0.0	1	left	2.0	1.0	1.0	0	-0.08	blockFiles/set_3/main_safe/leftBlue\GB_LB_3.xlsx
18	main_safe	True	0.0	284	0	0.0	0.0	0.0	1	left	1.0	0.0	0.0	0	-0.08	blockFiles/set_3/main_safe/leftBlue\GB_LB_3.xlsx
19	main_safe	True	0.0	284	0	0.0	0.0	1.0	1	right	1.0	1.0	1.0	1	0.08	blockFiles/set_3/main_safe/leftBlue\GB_LB_3.xlsx
20	main_safe	True	0.0	284	0	0.0	0.0	0.0	1	left	2.0	0.0	1.0	0	-0.08	blockFiles/set_3/main_safe/leftBlue\GB_LB_3.xlsx
21	main_safe	True	0.0	284	0	0.0	0.0	1.0	1	right	1.0	1.0	1.0	1	0.08	blockFiles/set_3/main_safe/leftBlue\GB_LB_3.xlsx
22	main_safe	True	0.0	284	0	0.0	0.0	0.0	1	left	2.0	1.0	1.0	0	-0.08	blockFiles/set_3/main_safe/leftBlue\GB_LB_3.xlsx
23	main_safe	True	0.0	284	0	0.0	0.0	1.0	1	right	1.0	1.0	1.0	1	0.08	blockFiles/set_3/main_safe/leftBlue\GB_LB_3.xlsx
24	main_safe	True	0.0	284	0	0.0	0.0	1.0	1	right	1.0	1.0	1.0	1	0.08	blockFiles/set_3/main_safe/leftBlue\GB_LB_3.xlsx
25	main_safe	True	0.0	284	0	1.0	1.0	1.0	1	right	1.0	0.0	0.0	1	0.08	blockFiles/set_3/main_safe/rightBlue\GB_RB_3.xlsx
26	main_safe	True	0.0	284	0	1.0	1.0	0.0	1	left	2.0	0.0	0.0	0	-0.08	blockFiles/set_3/main_safe/rightBlue\GB_RB_3.xlsx
27	main_safe	True	0.0	284	0	1.0	1.0	1.0	1	right	1.0	0.0	0.0	1	0.08	blockFiles/set_3/main_safe/rightBlue\GB_RB_3.xlsx
28	main_safe	True	0.0	284	0	1.0	1.0	0.0	1	left	1.0	1.0	1.0	0	-0.08	blockFiles/set_3/main_safe/rightBlue\GB_RB_3.xlsx
29	main_safe	True	0.0	284	0	1.0	1.0	1.0	1	right	2.0	0.0	1.0	1	0.08	blockFiles/set_3/main_safe/rightBlue\GB_RB_3.xlsx
30	main_safe	True	0.0	284	0	1.0	1.0	0.0	1	left	1.0	0.0	1.0	0	-0.08	blockFiles/set_3/main_safe/rightBlue\GB_RB_3.xlsx
31	main_safe	True	0.0	284	0	1.0	1.0	0.0	1	left	1.0	1.0	1.0	0	-0.08	blockFiles/set_3/main_safe/rightBlue\GB_RB_3.xlsx
32	main_safe	True	0.0	284	0	1.0	1.0	0.0	1	left	1.0	1.0	1.0	0	-0.08	blockFiles/set_3/main_safe/rightBlue\GB_RB_3.xlsx
33	main_safe	True	0.0	284	0	1.0	1.0	0.0	1	left	1.0	1.0	1.0	0	-0.08	blockFiles/set_3/main_safe/rightBlue\GB_RB_3.xlsx
34	main_safe	True	0.0	284	0	1.0	1.0	1.0	1	right	2.0	0.0	1.0	1	0.08	blockFiles/set_3/main_safe/rightBlue\GB_RB_3.xlsx
35	main_safe	True	0.0	284	0	1.0	1.0	1.0	0	right	2.0	0.0	0.0	0	-0.08	blockFiles/set_3/main_safe/rightBlue\GB_RB_3.xlsx
36	main_safe	True	0.0	284	0	1.0	1.0	1.0	1	right	2.0	1.0	1.0	1	0.08	blockFiles/set_3/main_safe/rightBlue\GB_RB_3.xlsx
37	main_safe	True	0.0	284	0	1.0	1.0	0.0	1	left	1.0	1.0	1.0	0	-0.08	blockFiles/set_3/main_safe/rightBlue\GB_RB_3.xlsx
38	main_safe	True	0.0	284	0	1.0	1.0	0.0	1	left	2.0	0.0	0.0	0	-0.08	blockFiles/set_3/main_safe/rightBlue\GB_RB_3.xlsx
39	main_safe	True	0.0	284	0	1.0	1.0	1.0	1	right	2.0	1.0	1.0	1	0.08	blockFiles/set_3/main_safe/rightBlue\GB_RB_3.xlsx
40	main_safe	True	0.0	284	0	1.0	1.0	1.0	1	right	2.0	1.0	1.0	1	0.08	blockFiles/set_3/main_safe/rightBlue\GB_RB_3.xlsx
41	main_safe	True	0.0	284	0	1.0	1.0	1.0	1	right	2.0	0.0	1.0	1	0.08	blockFiles/set_3/main_safe/rightBlue\GB_RB_3.xlsx
42	main_safe	True	0.0	284	0	1.0	1.0	1.0	1	right	2.0	1.0	1.0	1	0.08	blockFiles/set_3/main_safe/rightBlue\GB_RB_3.xlsx
43	main_safe	True	0.0	284	0	1.0	1.0	1.0	1	right	2.0	1.0	1.0	1	0.08	blockFiles/set_3/main_safe/rightBlue\GB_RB_3.xlsx
44	main_safe	True	0.0	284	0	1.0	1.0	1.0	1	right	2.0	1.0	1.0	1	0.08	blockFiles/set_3/main_safe/rightBlue\GB_RB_3.xlsx
45	main_safe	True	0.0	284	0	1.0	1.0	0.0	1	left	1.0	1.0	1.0	0	-0.08	blockFiles/set_3/main_safe/rightBlue\GB_RB_3.xlsx
46	main_safe	True	0.0	284	0	1.0	1.0	0.0	1	left	1.0	0.0	1.0	0	-0.08	blockFiles/set_3/main_safe/rightBlue\GB_RB_3.xlsx
47	main_safe	True	0.0	284	0	1.0	1.0	1.0	1	right	2.0	1.0	1.0	1	0.08	blockFiles/set_3/main_safe/rightBlue\GB_RB_3.xlsx
48	main_safe	True	0.0	284	0	1.0	1.0	0.0	1	left	1.0	0.0	1.0	0	-0.08	blockFiles/set_3/main_safe/rightBlue\GB_RB_3.xlsx
49	main_safe	True	0.0	284	0	1.0	1.0	0.0	1	left	1.0	1.0	1.0	0	-0.08	blockFiles/set_3/main_safe/rightBlue\GB_RB_3.xlsx
50	main_safe	True	0.0	284	0	2.0	2.0	0.0	1	left	1.0	0.0	1.0	0	-0.08	blockFiles/set_3/main_safe/rightBlue\GB_RB_2.xlsx
51	main_safe	True	0.0	284	0	2.0	2.0	0.0	1	left	1.0	1.0	1.0	0	-0.08	blockFiles/set_3/main_safe/rightBlue\GB_RB_2.xlsx
52	main_safe	True	0.0	284	0	2.0	2.0	0.0	1	left	1.0	1.0	1.0	0	-0.08	blockFiles/set_3/main_safe/rightBlue\GB_RB_2.xlsx
53	main_safe	True	0.0	284	0	2.0	2.0	1.0	1	right	2.0	1.0	1.0	1	0.08	blockFiles/set_3/main_safe/rightBlue\GB_RB_2.xlsx
54	main_safe	True	0.0	284	0	2.0	2.0	1.0	1	right	2.0	1.0	1.0	1	0.08	blockFiles/set_3/main_safe/rightBlue\GB_RB_2.xlsx
55	main_safe	True	0.0	284	0	2.0	2.0	0.0	1	left	1.0	1.0	1.0	0	-0.08	blockFiles/set_3/main_safe/rightBlue\GB_RB_2.xlsx
56	main_safe	True	0.0	284	0	2.0	2.0	1.0	1	right	2.0	1.0	1.0	1	0.08	blockFiles/set_3/main_safe/rightBlue\GB_RB_2.xlsx
57	main_safe	True	0.0	284	0	2.0	2.0	0.0	1	left	1.0	1.0	1.0	0	-0.08	blockFiles/set_3/main_safe/rightBlue\GB_RB_2.xlsx
58	main_safe	True	0.0	284	0	2.0	2.0	1.0	1	right	2.0	1.0	1.0	1	0.08	blockFiles/set_3/main_safe/rightBlue\GB_RB_2.xlsx
59	main_safe	True	0.0	284	0	2.0	2.0	1.0	1	right	2.0	1.0	1.0	1	0.08	blockFiles/set_3/main_safe/rightBlue\GB_RB_2.xlsx
60	main_safe	True	0.0	284	0	2.0	2.0	0.0	1	left	1.0	1.0	1.0	0	-0.08	blockFiles/set_3/main_safe/rightBlue\GB_RB_2.xlsx
61	main_safe	True	0.0	284	0	2.0	2.0	1.0	1	right	2.0	1.0	1.0	1	0.08	blockFiles/set_3/main_safe/rightBlue\GB_RB_2.xlsx
62	main_safe	True	0.0	284	0	2.0	2.0	1.0	1	right	2.0	1.0	1.0	1	0.08	blockFiles/set_3/main_safe/rightBlue\GB_RB_2.xlsx
63	main_safe	True	0.0	284	0	2.0	2.0	1.0	1	right	2.0	1.0	1.0	1	0.08	blockFiles/set_3/main_safe/rightBlue\GB_RB_2.xlsx
64	main_safe	True	0.0	284	0	2.0	2.0	0.0	1	left	1.0	1.0	1.0	0	-0.08	blockFiles/set_3/main_safe/rightBlue\GB_RB_2.xlsx
65	main_safe	True	0.0	284	0	2.0	2.0	1.0	1	right	2.0	1.0	1.0	1	0.08	blockFiles/set_3/main_safe/rightBlue\GB_RB_2.xlsx
66	main_safe	True	0.0	284	0	2.0	2.0	0.0	1	left	1.0	0.0	1.0	0	-0.08	blockFiles/set_3/main_safe/rightBlue\GB_RB_2.xlsx
67	main_safe	True	0.0	284	0	2.0	2.0	1.0	1	right	2.0	1.0	1.0	1	0.08	blockFiles/set_3/main_safe/rightBlue\GB_RB_2.xlsx
68	main_safe	True	0.0	284	0	2.0	2.0	1.0	1	right	2.0	0.0	1.0	1	0.08	blockFiles/set_3/main_safe/rightBlue\GB_RB_2.xlsx
69	main_safe	True	0.0	284	0	2.0	2.0	0.0	1	left	1.0	1.0	1.0	0	-0.08	blockFiles/set_3/main_safe/rightBlue\GB_RB_2.xlsx
70	main_safe	True	0.0	284	0	2.0	2.0	0.0	1	left	1.0	1.0	1.0	0	-0.08	blockFiles/set_3/main_safe/rightBlue\GB_RB_2.xlsx
71	main_safe	True	0.0	284	0	2.0	2.0	0.0	1	left	1.0	0.0	1.0	0	-0.08	blockFiles/set_3/main_safe/rightBlue\GB_RB_2.xlsx
72	main_safe	True	0.0	284	0	2.0	2.0	0.0	1	left	1.0	0.0	1.0	0	-0.08	blockFiles/set_3/main_safe/rightBlue\GB_RB_2.xlsx
73	main_safe	True	0.0	284	0	2.0	2.0	1.0	1	right	2.0	1.0	1.0	1	0.08	blockFiles/set_3/main_safe/rightBlue\GB_RB_2.xlsx
74	main_safe	True	0.0	284	0	2.0	2.0	0.0	1	left	1.0	1.0	1.0	0	-0.08	blockFiles/set_3/main_safe/rightBlue\GB_RB_2.xlsx
75	main_safe	True	0.0	284	0	3.0	3.0	0.0	1	left	2.0	1.0	0.0	0	-0.08	blockFiles/set_3/main_safe/rightBlue\GB_RB_1.xlsx
76	main_safe	True	1.0	284	0	3.0	3.0	1.0	1	right	n/a	0.0	n/a	1	0.08	blockFiles/set_3/main_safe/rightBlue\GB_RB_1.xlsx
77	main_safe	True	0.0	284	0	3.0	3.0	0.0	1	left	2.0	0.0	0.0	0	-0.08	blockFiles/set_3/main_safe/rightBlue\GB_RB_1.xlsx
78	main_safe	True	0.0	284	0	3.0	3.0	0.0	1	left	2.0	0.0	0.0	0	-0.08	blockFiles/set_3/main_safe/rightBlue\GB_RB_1.xlsx
79	main_safe	True	0.0	284	0	3.0	3.0	0.0	1	left	2.0	1.0	0.0	0	-0.08	blockFiles/set_3/main_safe/rightBlue\GB_RB_1.xlsx
80	main_safe	True	0.0	284	0	3.0	3.0	1.0	1	right	1.0	0.0	0.0	1	0.08	blockFiles/set_3/main_safe/rightBlue\GB_RB_1.xlsx
81	main_safe	True	0.0	284	0	3.0	3.0	0.0	0	left	2.0	1.0	1.0	1	0.08	blockFiles/set_3/main_safe/rightBlue\GB_RB_1.xlsx
82	main_safe	True	0.0	284	0	3.0	3.0	1.0	1	right	1.0	1.0	0.0	1	0.08	blockFiles/set_3/main_safe/rightBlue\GB_RB_1.xlsx
83	main_safe	True	0.0	284	0	3.0	3.0	1.0	1	right	1.0	0.0	0.0	1	0.08	blockFiles/set_3/main_safe/rightBlue\GB_RB_1.xlsx
84	main_safe	True	0.0	284	0	3.0	3.0	0.0	1	left	2.0	0.0	0.0	0	-0.08	blockFiles/set_3/main_safe/rightBlue\GB_RB_1.xlsx
85	main_safe	True	0.0	284	0	3.0	3.0	0.0	1	left	2.0	0.0	0.0	0	-0.08	blockFiles/set_3/main_safe/rightBlue\GB_RB_1.xlsx
86	main_safe	True	0.0	284	0	3.0	3.0	1.0	1	right	1.0	0.0	0.0	1	0.08	blockFiles/set_3/main_safe/rightBlue\GB_RB_1.xlsx
87	main_safe	True	0.0	284	0	3.0	3.0	1.0	1	right	1.0	0.0	0.0	1	0.08	blockFiles/set_3/main_safe/rightBlue\GB_RB_1.xlsx
88	main_safe	True	0.0	284	0	3.0	3.0	0.0	1	left	1.0	1.0	1.0	0	-0.08	blockFiles/set_3/main_safe/rightBlue\GB_RB_1.xlsx
89	main_safe	True	0.0	284	0	3.0	3.0	1.0	1	right	2.0	0.0	1.0	1	0.08	blockFiles/set_3/main_safe/rightBlue\GB_RB_1.xlsx
90	main_safe	True	0.0	284	0	3.0	3.0	0.0	1	left	1.0	1.0	1.0	0	-0.08	blockFiles/set_3/main_safe/rightBlue\GB_RB_1.xlsx
91	main_safe	True	0.0	284	0	3.0	3.0	0.0	1	left	1.0	1.0	1.0	0	-0.08	blockFiles/set_3/main_safe/rightBlue\GB_RB_1.xlsx
92	main_safe	True	0.0	284	0	3.0	3.0	0.0	1	left	1.0	0.0	1.0	0	-0.08	blockFiles/set_3/main_safe/rightBlue\GB_RB_1.xlsx
93	main_safe	True	0.0	284	0	3.0	3.0	1.0	1	right	2.0	1.0	1.0	1	0.08	blockFiles/set_3/main_safe/rightBlue\GB_RB_1.xlsx
94	main_safe	True	0.0	284	0	3.0	3.0	0.0	1	left	1.0	1.0	1.0	0	-0.08	blockFiles/set_3/main_safe/rightBlue\GB_RB_1.xlsx
95	main_safe	True	0.0	284	0	3.0	3.0	0.0	1	left	1.0	1.0	1.0	0	-0.08	blockFiles/set_3/main_safe/rightBlue\GB_RB_1.xlsx
96	main_safe	True	0.0	284	0	3.0	3.0	1.0	1	right	1.0	0.0	0.0	1	0.08	blockFiles/set_3/main_safe/rightBlue\GB_RB_1.xlsx
97	main_safe	True	0.0	284	0	3.0	3.0	1.0	1	right	2.0	1.0	1.0	1	0.08	blockFiles/set_3/main_safe/rightBlue\GB_RB_1.xlsx
98	main_safe	True	0.0	284	0	3.0	3.0	1.0	1	right	1.0	0.0	0.0	1	0.08	blockFiles/set_3/main_safe/rightBlue\GB_RB_1.xlsx
99	main_safe	True	0.0	284	0	3.0	3.0	1.0	1	right	2.0	1.0	1.0	1	0.08	blockFiles/set_3/main_safe/rightBlue\GB_RB_1.xlsx
100	main_safe	True	0.0	284	0	3.0	3.0	1.0	1	right	2.0	1.0	1.0	1	0.08	blockFiles/set_3/main_safe/rightBlue\GB_RB_1.xlsx
101	main_safe	True	0.0	284	0	4.0	4.0	0.0	1	left	1.0	0.0	0.0	0	-0.08	blockFiles/set_3/main_safe/leftBlue\GB_LB_2.xlsx
102	main_safe	True	0.0	284	0	4.0	4.0	0.0	1	left	1.0	0.0	0.0	0	-0.08	blockFiles/set_3/main_safe/leftBlue\GB_LB_2.xlsx
103	main_safe	True	0.0	284	0	4.0	4.0	0.0	0	left	1.0	1.0	1.0	1	0.08	blockFiles/set_3/main_safe/leftBlue\GB_LB_2.xlsx
104	main_safe	True	0.0	284	0	4.0	4.0	0.0	1	left	1.0	1.0	0.0	0	-0.08	blockFiles/set_3/main_safe/leftBlue\GB_LB_2.xlsx
105	main_safe	True	0.0	284	0	4.0	4.0	0.0	1	left	1.0	1.0	0.0	0	-0.08	blockFiles/set_3/main_safe/leftBlue\GB_LB_2.xlsx
106	main_safe	True	0.0	284	0	4.0	4.0	1.0	1	right	2.0	0.0	0.0	1	0.08	blockFiles/set_3/main_safe/leftBlue\GB_LB_2.xlsx
107	main_safe	True	0.0	284	0	4.0	4.0	0.0	1	left	1.0	0.0	0.0	0	-0.08	blockFiles/set_3/main_safe/leftBlue\GB_LB_2.xlsx
108	main_safe	True	0.0	284	0	4.0	4.0	1.0	1	right	2.0	0.0	0.0	1	0.08	blockFiles/set_3/main_safe/leftBlue\GB_LB_2.xlsx
109	main_safe	True	0.0	284	0	4.0	4.0	1.0	1	right	1.0	1.0	1.0	1	0.08	blockFiles/set_3/main_safe/leftBlue\GB_LB_2.xlsx
110	main_safe	True	0.0	284	0	4.0	4.0	0.0	0	left	2.0	0.0	0.0	1	0.08	blockFiles/set_3/main_safe/leftBlue\GB_LB_2.xlsx
111	main_safe	True	0.0	284	0	4.0	4.0	1.0	1	right	1.0	1.0	1.0	1	0.08	blockFiles/set_3/main_safe/leftBlue\GB_LB_2.xlsx
112	main_safe	True	0.0	284	0	4.0	4.0	0.0	1	left	2.0	1.0	1.0	0	-0.08	blockFiles/set_3/main_safe/leftBlue\GB_LB_2.xlsx
113	main_safe	True	0.0	284	0	4.0	4.0	1.0	1	right	1.0	1.0	1.0	1	0.08	blockFiles/set_3/main_safe/leftBlue\GB_LB_2.xlsx
114	main_safe	True	0.0	284	0	4.0	4.0	1.0	1	right	1.0	0.0	1.0	1	0.08	blockFiles/set_3/main_safe/leftBlue\GB_LB_2.xlsx
115	main_safe	True	0.0	284	0	4.0	4.0	1.0	1	right	1.0	1.0	1.0	1	0.08	blockFiles/set_3/main_safe/leftBlue\GB_LB_2.xlsx
116	main_safe	True	0.0	284	0	4.0	4.0	1.0	1	right	1.0	1.0	1.0	1	0.08	blockFiles/set_3/main_safe/leftBlue\GB_LB_2.xlsx
117	main_safe	True	0.0	284	0	4.0	4.0	0.0	1	left	2.0	1.0	1.0	0	-0.08	blockFiles/set_3/main_safe/leftBlue\GB_LB_2.xlsx
118	main_safe	True	0.0	284	0	4.0	4.0	0.0	1	left	2.0	1.0	1.0	0	-0.08	blockFiles/set_3/main_safe/leftBlue\GB_LB_2.xlsx
119	main_safe	True	0.0	284	0	4.0	4.0	0.0	1	left	2.0	1.0	1.0	0	-0.08	blockFiles/set_3/main_safe/leftBlue\GB_LB_2.xlsx
120	main_safe	True	0.0	284	0	4.0	4.0	0.0	1	left	2.0	1.0	1.0	0	-0.08	blockFiles/set_3/main_safe/leftBlue\GB_LB_2.xlsx
121	main_safe	True	0.0	284	0	4.0	4.0	0.0	1	left	2.0	1.0	1.0	0	-0.08	blockFiles/set_3/main_safe/leftBlue\GB_LB_2.xlsx
122	main_safe	True	0.0	284	0	4.0	4.0	1.0	1	right	1.0	0.0	1.0	1	0.08	blockFiles/set_3/main_safe/leftBlue\GB_LB_2.xlsx
123	main_safe	True	0.0	284	0	4.0	4.0	1.0	1	right	2.0	0.0	0.0	1	0.08	blockFiles/set_3/main_safe/leftBlue\GB_LB_2.xlsx
124	main_safe	True	0.0	284	0	4.0	4.0	1.0	1	right	1.0	0.0	1.0	1	0.08	blockFiles/set_3/main_safe/leftBlue\GB_LB_2.xlsx
125	main_safe	True	0.0	284	0	4.0	4.0	0.0	1	left	2.0	1.0	1.0	0	-0.08	blockFiles/set_3/main_safe/leftBlue\GB_LB_2.xlsx
126	main_safe	True	0.0	284	0	5.0	5.0	0.0	1	left	1.0	0.0	0.0	0	-0.08	blockFiles/set_3/main_safe/leftBlue\GB_LB_1.xlsx
127	main_safe	True	0.0	284	0	5.0	5.0	0.0	1	left	1.0	1.0	0.0	0	-0.08	blockFiles/set_3/main_safe/leftBlue\GB_LB_1.xlsx
128	main_safe	True	0.0	284	0	5.0	5.0	1.0	1	right	2.0	0.0	0.0	1	0.08	blockFiles/set_3/main_safe/leftBlue\GB_LB_1.xlsx
129	main_safe	True	0.0	284	0	5.0	5.0	1.0	1	right	2.0	0.0	0.0	1	0.08	blockFiles/set_3/main_safe/leftBlue\GB_LB_1.xlsx
130	main_safe	True	0.0	284	0	5.0	5.0	0.0	1	left	2.0	1.0	1.0	0	-0.08	blockFiles/set_3/main_safe/leftBlue\GB_LB_1.xlsx
131	main_safe	True	0.0	284	0	5.0	5.0	1.0	1	right	1.0	1.0	1.0	1	0.08	blockFiles/set_3/main_safe/leftBlue\GB_LB_1.xlsx
132	main_safe	True	0.0	284	0	5.0	5.0	1.0	1	right	1.0	1.0	1.0	1	0.08	blockFiles/set_3/main_safe/leftBlue\GB_LB_1.xlsx
133	main_safe	True	0.0	284	0	5.0	5.0	1.0	1	right	1.0	1.0	1.0	1	0.08	blockFiles/set_3/main_safe/leftBlue\GB_LB_1.xlsx
134	main_safe	True	0.0	284	0	5.0	5.0	1.0	1	right	1.0	1.0	1.0	1	0.08	blockFiles/set_3/main_safe/leftBlue\GB_LB_1.xlsx
135	main_safe	True	0.0	284	0	5.0	5.0	1.0	1	right	1.0	0.0	1.0	1	0.08	blockFiles/set_3/main_safe/leftBlue\GB_LB_1.xlsx
136	main_safe	True	0.0	284	0	5.0	5.0	1.0	0	right	1.0	0.0	0.0	0	-0.08	blockFiles/set_3/main_safe/leftBlue\GB_LB_1.xlsx
137	main_safe	True	0.0	284	0	5.0	5.0	0.0	1	left	2.0	0.0	1.0	0	-0.08	blockFiles/set_3/main_safe/leftBlue\GB_LB_1.xlsx
138	main_safe	True	0.0	284	0	5.0	5.0	0.0	1	left	2.0	1.0	1.0	0	-0.08	blockFiles/set_3/main_safe/leftBlue\GB_LB_1.xlsx
139	main_safe	True	0.0	284	0	5.0	5.0	0.0	1	left	2.0	1.0	1.0	0	-0.08	blockFiles/set_3/main_safe/leftBlue\GB_LB_1.xlsx
140	main_safe	True	0.0	284	0	5.0	5.0	0.0	1	left	2.0	1.0	1.0	0	-0.08	blockFiles/set_3/main_safe/leftBlue\GB_LB_1.xlsx
141	main_safe	True	0.0	284	0	5.0	5.0	1.0	1	right	1.0	0.0	1.0	1	0.08	blockFiles/set_3/main_safe/leftBlue\GB_LB_1.xlsx
142	main_safe	True	0.0	284	0	5.0	5.0	0.0	1	left	1.0	0.0	0.0	0	-0.08	blockFiles/set_3/main_safe/leftBlue\GB_LB_1.xlsx
143	main_safe	True	0.0	284	0	5.0	5.0	1.0	1	right	1.0	1.0	1.0	1	0.08	blockFiles/set_3/main_safe/leftBlue\GB_LB_1.xlsx
144	main_safe	True	0.0	284	0	5.0	5.0	0.0	1	left	2.0	1.0	1.0	0	-0.08	blockFiles/set_3/main_safe/leftBlue\GB_LB_1.xlsx
145	main_safe	True	0.0	284	0	5.0	5.0	0.0	1	left	2.0	1.0	1.0	0	-0.08	blockFiles/set_3/main_safe/leftBlue\GB_LB_1.xlsx
146	main_safe	True	0.0	284	0	5.0	5.0	0.0	1	left	2.0	1.0	1.0	0	-0.08	blockFiles/set_3/main_safe/leftBlue\GB_LB_1.xlsx
147	main_safe	True	0.0	284	0	5.0	5.0	1.0	1	right	1.0	0.0	1.0	1	0.08	blockFiles/set_3/main_safe/leftBlue\GB_LB_1.xlsx
148	main_safe	True	0.0	284	0	5.0	5.0	1.0	1	right	1.0	0.0	1.0	1	0.08	blockFiles/set_3/main_safe/leftBlue\GB_LB_1.xlsx
149	main_safe	True	0.0	284	0	5.0	5.0	1.0	1	right	1.0	1.0	1.0	1	0.08	blockFiles/set_3/main_safe/leftBlue\GB_LB_1.xlsx
150	main_safe	True	0.0	284	0	5.0	5.0	0.0	1	left	2.0	1.0	1.0	0	-0.08	blockFiles/set_3/main_safe/leftBlue\GB_LB_1.xlsx
151	patches	True	n/a	284	0	n/a	n/a	0.0	0	left	n/a	n/a	n/a	1	0.0148069404066	blockFiles/set_3/main_PD/GB_runPatches1.xlsx
152	patches	True	n/a	284	0	n/a	n/a	1.0	1	right	n/a	n/a	n/a	1	0.0797333609313	blockFiles/set_3/main_PD/GB_runPatches1.xlsx
153	patches	True	n/a	284	0	n/a	n/a	1.0	1	right	n/a	n/a	n/a	1	0.012426622118799998	blockFiles/set_3/main_PD/GB_runPatches1.xlsx
154	patches	True	n/a	284	0	n/a	n/a	0.0	0	left	n/a	n/a	n/a	1	0.0144656579755	blockFiles/set_3/main_PD/GB_runPatches1.xlsx
155	patches	True	n/a	284	0	n/a	n/a	0.0	0	left	n/a	n/a	n/a	1	0.025178986135900003	blockFiles/set_3/main_PD/GB_runPatches1.xlsx
156	patches	True	n/a	284	0	n/a	n/a	1.0	1	right	n/a	n/a	n/a	1	0.0628147815168	blockFiles/set_3/main_PD/GB_runPatches1.xlsx
157	patches	True	n/a	284	0	n/a	n/a	0.0	1	left	n/a	n/a	n/a	0	-0.014286816790700001	blockFiles/set_3/main_PD/GB_runPatches1.xlsx
158	patches	True	n/a	284	0	n/a	n/a	0.0	1	left	n/a	n/a	n/a	0	-0.039541036952300004	blockFiles/set_3/main_PD/GB_runPatches1.xlsx
159	patches	True	n/a	284	0	n/a	n/a	1.0	1	right	n/a	n/a	n/a	1	0.0735353618115	blockFiles/set_3/main_PD/GB_runPatches1.xlsx
160	patches	True	n/a	284	0	n/a	n/a	0.0	1	left	n/a	n/a	n/a	0	-0.0664335948788	blockFiles/set_3/main_PD/GB_runPatches1.xlsx
161	patches	True	n/a	284	0	n/a	n/a	0.0	1	left	n/a	n/a	n/a	0	-0.059157077092699996	blockFiles/set_3/main_PD/GB_runPatches1.xlsx
162	patches	True	n/a	284	0	n/a	n/a	0.0	1	left	n/a	n/a	n/a	0	-0.055235728696	blockFiles/set_3/main_PD/GB_runPatches1.xlsx
163	patches	True	n/a	284	0	n/a	n/a	1.0	1	right	n/a	n/a	n/a	1	0.0114826996997	blockFiles/set_3/main_PD/GB_runPatches1.xlsx
164	patches	True	n/a	284	0	n/a	n/a	1.0	1	right	n/a	n/a	n/a	1	0.0224419216439	blockFiles/set_3/main_PD/GB_runPatches1.xlsx
165	patches	True	n/a	284	0	n/a	n/a	1.0	1	right	n/a	n/a	n/a	1	0.0513549161702	blockFiles/set_3/main_PD/GB_runPatches1.xlsx
166	patches	True	n/a	284	0	n/a	n/a	0.0	1	left	n/a	n/a	n/a	0	-0.0163857673854	blockFiles/set_3/main_PD/GB_runPatches1.xlsx
167	patches	True	n/a	284	0	n/a	n/a	0.0	1	left	n/a	n/a	n/a	0	-0.0553862178326	blockFiles/set_3/main_PD/GB_runPatches1.xlsx
168	patches	True	n/a	284	0	n/a	n/a	1.0	1	right	n/a	n/a	n/a	1	0.034482733644500004	blockFiles/set_3/main_PD/GB_runPatches1.xlsx
169	patches	True	n/a	284	0	n/a	n/a	0.0	0	left	n/a	n/a	n/a	1	0.0537808858976	blockFiles/set_3/main_PD/GB_runPatches1.xlsx
170	patches	True	n/a	284	0	n/a	n/a	1.0	1	right	n/a	n/a	n/a	1	0.0752988993376	blockFiles/set_3/main_PD/GB_runPatches1.xlsx
171	patches	True	n/a	284	0	n/a	n/a	1.0	1	right	n/a	n/a	n/a	1	0.0355616560951	blockFiles/set_3/main_PD/GB_runPatches1.xlsx
172	patches	True	n/a	284	0	n/a	n/a	0.0	1	left	n/a	n/a	n/a	0	-0.020516426172099998	blockFiles/set_3/main_PD/GB_runPatches1.xlsx
173	patches	True	n/a	284	0	n/a	n/a	1.0	1	right	n/a	n/a	n/a	1	0.07044688470660002	blockFiles/set_3/main_PD/GB_runPatches1.xlsx
174	patches	True	n/a	284	0	n/a	n/a	1.0	1	right	n/a	n/a	n/a	1	0.0466543944553	blockFiles/set_3/main_PD/GB_runPatches1.xlsx
175	patches	True	n/a	284	0	n/a	n/a	0.0	1	left	n/a	n/a	n/a	0	-0.040572377163900004	blockFiles/set_3/main_PD/GB_runPatches1.xlsx
176	patches	True	n/a	284	0	n/a	n/a	0.0	1	left	n/a	n/a	n/a	0	-0.004869678672399999	blockFiles/set_3/main_PD/GB_runPatches1.xlsx
177	patches	True	n/a	284	0	n/a	n/a	1.0	1	right	n/a	n/a	n/a	1	0.0517566664889	blockFiles/set_3/main_PD/GB_runPatches1.xlsx
178	patches	True	n/a	284	0	n/a	n/a	0.0	1	left	n/a	n/a	n/a	0	-0.0682755110413	blockFiles/set_3/main_PD/GB_runPatches1.xlsx
179	patches	True	n/a	284	0	n/a	n/a	0.0	1	left	n/a	n/a	n/a	0	-0.0371810737625	blockFiles/set_3/main_PD/GB_runPatches1.xlsx
180	patches	True	n/a	284	0	n/a	n/a	0.0	1	left	n/a	n/a	n/a	0	-0.062035201266400004	blockFiles/set_3/main_PD/GB_runPatches1.xlsx
181	patches	True	n/a	284	0	n/a	n/a	1.0	0	right	n/a	n/a	n/a	0	-0.04568896790969999	blockFiles/set_3/main_PD/GB_runPatches1.xlsx
182	patches	True	n/a	284	0	n/a	n/a	0.0	1	left	n/a	n/a	n/a	0	-0.0308389131352	blockFiles/set_3/main_PD/GB_runPatches1.xlsx
183	patches	True	n/a	284	0	n/a	n/a	0.0	0	left	n/a	n/a	n/a	1	0.0009716600552200001	blockFiles/set_3/main_PD/GB_runPatches1.xlsx
184	patches	True	n/a	284	0	n/a	n/a	0.0	1	left	n/a	n/a	n/a	0	-0.0645997075737	blockFiles/set_3/main_PD/GB_runPatches1.xlsx
185	patches	True	n/a	284	0	n/a	n/a	1.0	1	right	n/a	n/a	n/a	1	0.07992017406969999	blockFiles/set_3/main_PD/GB_runPatches1.xlsx
186	patches	True	n/a	284	0	n/a	n/a	0.0	1	left	n/a	n/a	n/a	0	-0.011117364205399998	blockFiles/set_3/main_PD/GB_runPatches1.xlsx
187	patches	True	n/a	284	0	n/a	n/a	1.0	1	right	n/a	n/a	n/a	1	0.0208676494658	blockFiles/set_3/main_PD/GB_runPatches1.xlsx
188	patches	True	n/a	284	0	n/a	n/a	1.0	1	right	n/a	n/a	n/a	1	0.0429478938505	blockFiles/set_3/main_PD/GB_runPatches1.xlsx
189	patches	True	n/a	284	0	n/a	n/a	1.0	1	right	n/a	n/a	n/a	1	0.050347886849199996	blockFiles/set_3/main_PD/GB_runPatches1.xlsx
190	patches	True	n/a	284	0	n/a	n/a	0.0	1	left	n/a	n/a	n/a	0	-0.045473835244800004	blockFiles/set_3/main_PD/GB_runPatches1.xlsx
191	patches	True	n/a	284	0	n/a	n/a	0.0	1	left	n/a	n/a	n/a	0	-0.0459806335159	blockFiles/set_3/main_PD/GB_runPatches1.xlsx
192	patches	True	n/a	284	0	n/a	n/a	1.0	1	right	n/a	n/a	n/a	1	0.033544109761700004	blockFiles/set_3/main_PD/GB_runPatches1.xlsx
193	patches	True	n/a	284	0	n/a	n/a	0.0	1	left	n/a	n/a	n/a	0	-0.008275263290850002	blockFiles/set_3/main_PD/GB_runPatches1.xlsx
194	patches	True	n/a	284	0	n/a	n/a	0.0	1	left	n/a	n/a	n/a	0	-0.0596215175465	blockFiles/set_3/main_PD/GB_runPatches1.xlsx
195	patches	True	n/a	284	0	n/a	n/a	1.0	1	right	n/a	n/a	n/a	1	0.029354119021400005	blockFiles/set_3/main_PD/GB_runPatches1.xlsx
196	patches	True	n/a	284	0	n/a	n/a	1.0	1	right	n/a	n/a	n/a	1	0.034243890028400004	blockFiles/set_3/main_PD/GB_runPatches1.xlsx
197	patches	True	n/a	284	0	n/a	n/a	1.0	1	right	n/a	n/a	n/a	1	0.0406452874467	blockFiles/set_3/main_PD/GB_runPatches1.xlsx
198	patches	True	n/a	284	0	n/a	n/a	0.0	1	left	n/a	n/a	n/a	0	-0.0486478947848	blockFiles/set_3/main_PD/GB_runPatches1.xlsx
199	patches	True	n/a	284	0	n/a	n/a	0.0	1	left	n/a	n/a	n/a	0	-0.0490037515759	blockFiles/set_3/main_PD/GB_runPatches1.xlsx
200	patches	True	n/a	284	0	n/a	n/a	1.0	1	right	n/a	n/a	n/a	1	0.00670559724793	blockFiles/set_3/main_PD/GB_runPatches1.xlsx
201	patches	True	n/a	284	0	n/a	n/a	0.0	1	left	n/a	n/a	n/a	0	-0.0243099212274	blockFiles/set_3/main_PD/GB_runPatches1.xlsx
202	patches	True	n/a	284	0	n/a	n/a	1.0	1	right	n/a	n/a	n/a	1	0.07979449315	blockFiles/set_3/main_PD/GB_runPatches1.xlsx
203	patches	True	n/a	284	0	n/a	n/a	1.0	1	right	n/a	n/a	n/a	1	0.0227501242235	blockFiles/set_3/main_PD/GB_runPatches1.xlsx
204	patches	True	n/a	284	0	n/a	n/a	1.0	1	right	n/a	n/a	n/a	1	0.040410958603	blockFiles/set_3/main_PD/GB_runPatches1.xlsx
205	patches	True	n/a	284	0	n/a	n/a	0.0	1	left	n/a	n/a	n/a	0	-0.0430358573236	blockFiles/set_3/main_PD/GB_runPatches1.xlsx
206	patches	True	n/a	284	0	n/a	n/a	0.0	1	left	n/a	n/a	n/a	0	-0.0423023090139	blockFiles/set_3/main_PD/GB_runPatches1.xlsx
207	patches	True	n/a	284	0	n/a	n/a	n/a	0	None	n/a	n/a	n/a	0	-0.0015366213582500001	blockFiles/set_3/main_PD/GB_runPatches1.xlsx
208	patches	True	n/a	284	0	n/a	n/a	1.0	1	right	n/a	n/a	n/a	1	0.0531806327403	blockFiles/set_3/main_PD/GB_runPatches1.xlsx
209	patches	True	n/a	284	0	n/a	n/a	1.0	1	right	n/a	n/a	n/a	1	0.0406207627244	blockFiles/set_3/main_PD/GB_runPatches1.xlsx
210	patches	True	n/a	284	0	n/a	n/a	0.0	1	left	n/a	n/a	n/a	0	-0.05368441684169999	blockFiles/set_3/main_PD/GB_runPatches1.xlsx
211	patches	True	n/a	284	0	n/a	n/a	1.0	1	right	n/a	n/a	n/a	1	0.0486120369099	blockFiles/set_3/main_PD/GB_runPatches1.xlsx
212	patches	True	n/a	284	0	n/a	n/a	0.0	1	left	n/a	n/a	n/a	0	-0.0402168802544	blockFiles/set_3/main_PD/GB_runPatches1.xlsx
213	patches	True	n/a	284	0	n/a	n/a	0.0	1	left	n/a	n/a	n/a	0	-0.07393669148910001	blockFiles/set_3/main_PD/GB_runPatches1.xlsx
214	patches	True	n/a	284	0	n/a	n/a	0.0	1	left	n/a	n/a	n/a	0	-0.0503800631128	blockFiles/set_3/main_PD/GB_runPatches1.xlsx
215	patches	True	n/a	284	0	n/a	n/a	1.0	1	right	n/a	n/a	n/a	1	0.0113017223217	blockFiles/set_3/main_PD/GB_runPatches1.xlsx
216	patches	True	n/a	284	0	n/a	n/a	0.0	1	left	n/a	n/a	n/a	0	-0.0255139986612	blockFiles/set_3/main_PD/GB_runPatches1.xlsx
217	patches	True	n/a	284	0	n/a	n/a	1.0	1	right	n/a	n/a	n/a	1	0.0454108902253	blockFiles/set_3/main_PD/GB_runPatches1.xlsx
218	patches	True	n/a	284	0	n/a	n/a	1.0	0	right	n/a	n/a	n/a	0	-0.00793099630624	blockFiles/set_3/main_PD/GB_runPatches1.xlsx
219	patches	True	n/a	284	0	n/a	n/a	1.0	0	right	n/a	n/a	n/a	0	-0.0040684747882199996	blockFiles/set_3/main_PD/GB_runPatches1.xlsx
220	patches	True	n/a	284	0	n/a	n/a	1.0	1	right	n/a	n/a	n/a	1	0.0672414186597	blockFiles/set_3/main_PD/GB_runPatches1.xlsx
221	patches	True	n/a	284	0	n/a	n/a	0.0	1	left	n/a	n/a	n/a	0	-0.0785487092845	blockFiles/set_3/main_PD/GB_runPatches1.xlsx
222	patches	True	n/a	284	0	n/a	n/a	0.0	1	left	n/a	n/a	n/a	0	-0.0500225524977	blockFiles/set_3/main_PD/GB_runPatches1.xlsx
223	patches	True	n/a	284	0	n/a	n/a	0.0	1	left	n/a	n/a	n/a	0	-0.07871449789030001	blockFiles/set_3/main_PD/GB_runPatches1.xlsx
224	patches	True	n/a	284	0	n/a	n/a	1.0	0	right	n/a	n/a	n/a	0	-0.0149308875948	blockFiles/set_3/main_PD/GB_runPatches1.xlsx
225	patches	True	n/a	284	0	n/a	n/a	0.0	0	left	n/a	n/a	n/a	1	0.021776073854400002	blockFiles/set_3/main_PD/GB_runPatches1.xlsx
226	patches	True	n/a	284	0	n/a	n/a	0.0	0	left	n/a	n/a	n/a	1	0.024884746111900002	blockFiles/set_3/main_PD/GB_runPatches1.xlsx
227	patches	True	n/a	284	0	n/a	n/a	0.0	1	left	n/a	n/a	n/a	0	-0.060100010708	blockFiles/set_3/main_PD/GB_runPatches1.xlsx
228	patches	True	n/a	284	0	n/a	n/a	1.0	1	right	n/a	n/a	n/a	1	0.0560024303943	blockFiles/set_3/main_PD/GB_runPatches1.xlsx
229	patches	True	n/a	284	0	n/a	n/a	0.0	1	left	n/a	n/a	n/a	0	-0.0790073258057	blockFiles/set_3/main_PD/GB_runPatches1.xlsx
230	patches	True	n/a	284	0	n/a	n/a	0.0	0	left	n/a	n/a	n/a	1	0.00010969616472700001	blockFiles/set_3/main_PD/GB_runPatches1.xlsx
231	patches	True	n/a	284	0	n/a	n/a	1.0	1	right	n/a	n/a	n/a	1	0.07300393570210001	blockFiles/set_3/main_PD/GB_runPatches1.xlsx
232	patches	True	n/a	284	0	n/a	n/a	0.0	1	left	n/a	n/a	n/a	0	-0.028758129775499998	blockFiles/set_3/main_PD/GB_runPatches1.xlsx
233	patches	True	n/a	284	0	n/a	n/a	1.0	1	right	n/a	n/a	n/a	1	0.0362648808025	blockFiles/set_3/main_PD/GB_runPatches1.xlsx
234	patches	True	n/a	284	0	n/a	n/a	0.0	1	left	n/a	n/a	n/a	0	-0.060148172117800006	blockFiles/set_3/main_PD/GB_runPatches1.xlsx
235	patches	True	n/a	284	0	n/a	n/a	1.0	1	right	n/a	n/a	n/a	1	0.054120900724099995	blockFiles/set_3/main_PD/GB_runPatches1.xlsx
236	patches	True	n/a	284	0	n/a	n/a	0.0	0	left	n/a	n/a	n/a	1	0.05346422689040001	blockFiles/set_3/main_PD/GB_runPatches1.xlsx
237	patches	True	n/a	284	0	n/a	n/a	1.0	1	right	n/a	n/a	n/a	1	0.0301176390797	blockFiles/set_3/main_PD/GB_runPatches1.xlsx
238	patches	True	n/a	284	0	n/a	n/a	1.0	1	right	n/a	n/a	n/a	1	0.05241611540319999	blockFiles/set_3/main_PD/GB_runPatches1.xlsx
239	patches	True	n/a	284	0	n/a	n/a	1.0	1	right	n/a	n/a	n/a	1	0.0400114336796	blockFiles/set_3/main_PD/GB_runPatches1.xlsx
240	patches	True	n/a	284	0	n/a	n/a	0.0	1	left	n/a	n/a	n/a	0	-0.0202084327303	blockFiles/set_3/main_PD/GB_runPatches1.xlsx
241	patches	True	n/a	284	0	n/a	n/a	1.0	0	right	n/a	n/a	n/a	0	-0.0482895162702	blockFiles/set_3/main_PD/GB_runPatches1.xlsx
242	patches	True	n/a	284	0	n/a	n/a	1.0	0	right	n/a	n/a	n/a	0	-0.00607016088441	blockFiles/set_3/main_PD/GB_runPatches1.xlsx
243	patches	True	n/a	284	0	n/a	n/a	1.0	1	right	n/a	n/a	n/a	1	0.0367939403653	blockFiles/set_3/main_PD/GB_runPatches1.xlsx
244	patches	True	n/a	284	0	n/a	n/a	1.0	1	right	n/a	n/a	n/a	1	0.0288114047237	blockFiles/set_3/main_PD/GB_runPatches1.xlsx
245	patches	True	n/a	284	0	n/a	n/a	1.0	1	right	n/a	n/a	n/a	1	0.05364757195119999	blockFiles/set_3/main_PD/GB_runPatches1.xlsx
246	patches	True	n/a	284	0	n/a	n/a	0.0	1	left	n/a	n/a	n/a	0	-0.0388490575179	blockFiles/set_3/main_PD/GB_runPatches1.xlsx
247	patches	True	n/a	284	0	n/a	n/a	0.0	1	left	n/a	n/a	n/a	0	-0.0792136146687	blockFiles/set_3/main_PD/GB_runPatches1.xlsx
248	patches	True	n/a	284	0	n/a	n/a	1.0	0	right	n/a	n/a	n/a	0	-0.018577752877	blockFiles/set_3/main_PD/GB_runPatches1.xlsx
249	patches	True	n/a	284	0	n/a	n/a	0.0	1	left	n/a	n/a	n/a	0	-0.019571634046700002	blockFiles/set_3/main_PD/GB_runPatches1.xlsx
250	patches	True	n/a	284	0	n/a	n/a	0.0	1	left	n/a	n/a	n/a	0	-0.0670442119427	blockFiles/set_3/main_PD/GB_runPatches1.xlsx
251	main_unc	True	0.0	284	0	0.0	0.0	0.0	1	left	1.0	1.0	1.0	0	-0.0564851563796	blockFiles/set_3/main_unc/rightBlue\GB_RB_6.xlsx
252	main_unc	True	0.0	284	0	0.0	0.0	0.0	1	left	1.0	1.0	1.0	0	-0.021652818042799997	blockFiles/set_3/main_unc/rightBlue\GB_RB_6.xlsx
253	main_unc	True	0.0	284	0	0.0	0.0	1.0	1	right	2.0	1.0	1.0	1	0.0291540827975	blockFiles/set_3/main_unc/rightBlue\GB_RB_6.xlsx
254	main_unc	True	0.0	284	0	0.0	0.0	0.0	1	left	1.0	1.0	1.0	0	-0.045538970511400004	blockFiles/set_3/main_unc/rightBlue\GB_RB_6.xlsx
255	main_unc	True	0.0	284	0	0.0	0.0	0.0	0	left	1.0	0.0	0.0	1	0.0782807937264	blockFiles/set_3/main_unc/rightBlue\GB_RB_6.xlsx
256	main_unc	True	0.0	284	0	0.0	0.0	1.0	0	right	2.0	1.0	0.0	0	-0.0180225371197	blockFiles/set_3/main_unc/rightBlue\GB_RB_6.xlsx
257	main_unc	True	0.0	284	0	0.0	0.0	1.0	1	right	2.0	0.0	1.0	1	0.015506667848700001	blockFiles/set_3/main_unc/rightBlue\GB_RB_6.xlsx
258	main_unc	True	0.0	284	0	0.0	0.0	0.0	1	left	1.0	1.0	1.0	0	-0.0758825608343	blockFiles/set_3/main_unc/rightBlue\GB_RB_6.xlsx
259	main_unc	True	0.0	284	0	0.0	0.0	1.0	0	right	2.0	0.0	0.0	0	-0.0017974001355499998	blockFiles/set_3/main_unc/rightBlue\GB_RB_6.xlsx
260	main_unc	True	0.0	284	0	0.0	0.0	1.0	1	right	2.0	1.0	1.0	1	0.052751793507500006	blockFiles/set_3/main_unc/rightBlue\GB_RB_6.xlsx
261	main_unc	True	0.0	284	0	0.0	0.0	0.0	0	left	1.0	0.0	0.0	1	0.0165593021736	blockFiles/set_3/main_unc/rightBlue\GB_RB_6.xlsx
262	main_unc	True	1.0	284	0	0.0	0.0	0.0	1	left	n/a	0.0	n/a	0	-0.022686686907	blockFiles/set_3/main_unc/rightBlue\GB_RB_6.xlsx
263	main_unc	True	0.0	284	0	0.0	0.0	1.0	1	right	2.0	1.0	1.0	1	0.0498012563027	blockFiles/set_3/main_unc/rightBlue\GB_RB_6.xlsx
264	main_unc	True	0.0	284	0	0.0	0.0	1.0	1	right	2.0	1.0	1.0	1	0.0380647904053	blockFiles/set_3/main_unc/rightBlue\GB_RB_6.xlsx
265	main_unc	True	0.0	284	0	0.0	0.0	1.0	0	right	2.0	1.0	0.0	0	-0.0344395129569	blockFiles/set_3/main_unc/rightBlue\GB_RB_6.xlsx
266	main_unc	True	0.0	284	0	0.0	0.0	0.0	1	left	1.0	1.0	1.0	0	-0.048067800775199995	blockFiles/set_3/main_unc/rightBlue\GB_RB_6.xlsx
267	main_unc	True	0.0	284	0	0.0	0.0	1.0	0	right	1.0	0.0	1.0	0	-0.011960729621399999	blockFiles/set_3/main_unc/rightBlue\GB_RB_6.xlsx
268	main_unc	True	0.0	284	0	0.0	0.0	0.0	1	left	1.0	1.0	1.0	0	-0.0799744429253	blockFiles/set_3/main_unc/rightBlue\GB_RB_6.xlsx
269	main_unc	True	0.0	284	0	0.0	0.0	0.0	0	left	1.0	0.0	0.0	1	0.0514010286704	blockFiles/set_3/main_unc/rightBlue\GB_RB_6.xlsx
270	main_unc	True	0.0	284	0	0.0	0.0	1.0	1	right	2.0	1.0	1.0	1	0.052471768092400006	blockFiles/set_3/main_unc/rightBlue\GB_RB_6.xlsx
271	main_unc	True	0.0	284	0	0.0	0.0	0.0	1	left	2.0	0.0	0.0	0	-0.0330111312307	blockFiles/set_3/main_unc/rightBlue\GB_RB_6.xlsx
272	main_unc	True	0.0	284	0	0.0	0.0	0.0	1	left	2.0	1.0	0.0	0	-0.0443780122511	blockFiles/set_3/main_unc/rightBlue\GB_RB_6.xlsx
273	main_unc	True	0.0	284	0	0.0	0.0	1.0	1	right	2.0	1.0	1.0	1	0.0772985898703	blockFiles/set_3/main_unc/rightBlue\GB_RB_6.xlsx
274	main_unc	True	0.0	284	0	0.0	0.0	1.0	1	right	2.0	1.0	1.0	1	0.00150839172304	blockFiles/set_3/main_unc/rightBlue\GB_RB_6.xlsx
275	main_unc	True	0.0	284	0	0.0	0.0	1.0	1	right	2.0	0.0	1.0	1	0.05479745069519999	blockFiles/set_3/main_unc/rightBlue\GB_RB_6.xlsx
276	main_unc	True	0.0	284	0	0.0	0.0	1.0	0	right	2.0	0.0	0.0	0	-0.022686686907	blockFiles/set_3/main_unc/rightBlue\GB_RB_6.xlsx
277	main_unc	True	0.0	284	0	1.0	1.0	1.0	1	right	2.0	1.0	1.0	1	0.0521833129972	blockFiles/set_3/main_unc/rightBlue\GB_RB_4.xlsx
278	main_unc	True	0.0	284	0	1.0	1.0	0.0	1	left	2.0	0.0	0.0	0	-0.017640846408900002	blockFiles/set_3/main_unc/rightBlue\GB_RB_4.xlsx
279	main_unc	True	0.0	284	0	1.0	1.0	0.0	1	left	1.0	0.0	1.0	0	-0.0758580059558	blockFiles/set_3/main_unc/rightBlue\GB_RB_4.xlsx
280	main_unc	True	0.0	284	0	1.0	1.0	0.0	1	left	1.0	1.0	1.0	0	-0.00983732966706	blockFiles/set_3/main_unc/rightBlue\GB_RB_4.xlsx
281	main_unc	True	0.0	284	0	1.0	1.0	0.0	1	left	1.0	1.0	1.0	0	-0.0576511058584	blockFiles/set_3/main_unc/rightBlue\GB_RB_4.xlsx
282	main_unc	True	0.0	284	0	1.0	1.0	0.0	1	left	1.0	1.0	1.0	0	-0.0286292595789	blockFiles/set_3/main_unc/rightBlue\GB_RB_4.xlsx
283	main_unc	True	0.0	284	0	1.0	1.0	0.0	1	left	1.0	1.0	1.0	0	-0.0293707663007	blockFiles/set_3/main_unc/rightBlue\GB_RB_4.xlsx
284	main_unc	True	0.0	284	0	1.0	1.0	1.0	1	right	2.0	0.0	1.0	1	0.0619733057916	blockFiles/set_3/main_unc/rightBlue\GB_RB_4.xlsx
285	main_unc	True	0.0	284	0	1.0	1.0	0.0	1	left	1.0	1.0	1.0	0	-0.0437205066718	blockFiles/set_3/main_unc/rightBlue\GB_RB_4.xlsx
286	main_unc	True	0.0	284	0	1.0	1.0	1.0	0	right	2.0	0.0	0.0	0	-0.0678748225234	blockFiles/set_3/main_unc/rightBlue\GB_RB_4.xlsx
287	main_unc	True	0.0	284	0	1.0	1.0	0.0	0	left	1.0	0.0	0.0	1	0.037910181265300005	blockFiles/set_3/main_unc/rightBlue\GB_RB_4.xlsx
288	main_unc	True	0.0	284	0	1.0	1.0	1.0	1	right	2.0	1.0	1.0	1	0.053532720916	blockFiles/set_3/main_unc/rightBlue\GB_RB_4.xlsx
289	main_unc	True	0.0	284	0	1.0	1.0	1.0	1	right	2.0	1.0	1.0	1	0.035682181809099996	blockFiles/set_3/main_unc/rightBlue\GB_RB_4.xlsx
290	main_unc	True	0.0	284	0	1.0	1.0	1.0	1	right	2.0	1.0	1.0	1	0.05446079691869999	blockFiles/set_3/main_unc/rightBlue\GB_RB_4.xlsx
291	main_unc	True	0.0	284	0	1.0	1.0	1.0	1	right	2.0	0.0	1.0	1	0.0329804117233	blockFiles/set_3/main_unc/rightBlue\GB_RB_4.xlsx
292	main_unc	True	0.0	284	0	1.0	1.0	0.0	1	left	1.0	1.0	1.0	0	-0.054099411480099995	blockFiles/set_3/main_unc/rightBlue\GB_RB_4.xlsx
293	main_unc	True	0.0	284	0	1.0	1.0	0.0	1	left	1.0	1.0	1.0	0	-6.07179291546e-05	blockFiles/set_3/main_unc/rightBlue\GB_RB_4.xlsx
294	main_unc	True	0.0	284	0	1.0	1.0	0.0	1	left	1.0	1.0	1.0	0	-0.0662184912153	blockFiles/set_3/main_unc/rightBlue\GB_RB_4.xlsx
295	main_unc	True	0.0	284	0	1.0	1.0	0.0	1	left	1.0	1.0	1.0	0	-0.0692029902898	blockFiles/set_3/main_unc/rightBlue\GB_RB_4.xlsx
296	main_unc	True	0.0	284	0	1.0	1.0	1.0	1	right	2.0	1.0	1.0	1	0.0503946483321	blockFiles/set_3/main_unc/rightBlue\GB_RB_4.xlsx
297	main_unc	True	0.0	284	0	1.0	1.0	1.0	1	right	2.0	0.0	1.0	1	0.027929316386599998	blockFiles/set_3/main_unc/rightBlue\GB_RB_4.xlsx
298	main_unc	True	0.0	284	0	1.0	1.0	1.0	1	right	2.0	1.0	1.0	1	0.052841719985	blockFiles/set_3/main_unc/rightBlue\GB_RB_4.xlsx
299	main_unc	True	0.0	284	0	1.0	1.0	1.0	1	right	2.0	1.0	1.0	1	0.0129203348234	blockFiles/set_3/main_unc/rightBlue\GB_RB_4.xlsx
300	main_unc	True	0.0	284	0	1.0	1.0	0.0	1	left	1.0	1.0	1.0	0	-0.0740102845058	blockFiles/set_3/main_unc/rightBlue\GB_RB_4.xlsx
301	main_unc	True	0.0	284	0	1.0	1.0	0.0	1	left	1.0	1.0	1.0	0	-0.026425647046400002	blockFiles/set_3/main_unc/rightBlue\GB_RB_4.xlsx
302	main_unc	True	0.0	284	0	2.0	2.0	1.0	1	right	2.0	0.0	0.0	1	0.0561329929158	blockFiles/set_3/main_unc/leftBlue\GB_LB_6.xlsx
303	main_unc	True	0.0	284	0	2.0	2.0	1.0	1	right	2.0	1.0	0.0	1	0.056074786484199994	blockFiles/set_3/main_unc/leftBlue\GB_LB_6.xlsx
304	main_unc	True	0.0	284	0	2.0	2.0	1.0	1	right	2.0	0.0	0.0	1	0.00157502863556	blockFiles/set_3/main_unc/leftBlue\GB_LB_6.xlsx
305	main_unc	True	0.0	284	0	2.0	2.0	1.0	0	right	2.0	1.0	1.0	0	-0.046493531987100004	blockFiles/set_3/main_unc/leftBlue\GB_LB_6.xlsx
306	main_unc	True	0.0	284	0	2.0	2.0	0.0	1	left	1.0	0.0	0.0	0	-0.034150294084099996	blockFiles/set_3/main_unc/leftBlue\GB_LB_6.xlsx
307	main_unc	True	0.0	284	0	2.0	2.0	1.0	1	right	2.0	0.0	0.0	1	0.0439581483416	blockFiles/set_3/main_unc/leftBlue\GB_LB_6.xlsx
308	main_unc	True	0.0	284	0	2.0	2.0	0.0	1	left	1.0	0.0	0.0	0	-0.050339919738499994	blockFiles/set_3/main_unc/leftBlue\GB_LB_6.xlsx
309	main_unc	True	0.0	284	0	2.0	2.0	1.0	0	right	1.0	0.0	0.0	0	-0.013894328437700002	blockFiles/set_3/main_unc/leftBlue\GB_LB_6.xlsx
310	main_unc	True	0.0	284	0	2.0	2.0	0.0	1	left	2.0	1.0	1.0	0	-0.0699202334322	blockFiles/set_3/main_unc/leftBlue\GB_LB_6.xlsx
311	main_unc	True	0.0	284	0	2.0	2.0	1.0	1	right	1.0	1.0	1.0	1	0.054726391974800004	blockFiles/set_3/main_unc/leftBlue\GB_LB_6.xlsx
312	main_unc	True	0.0	284	0	2.0	2.0	1.0	1	right	1.0	1.0	1.0	1	0.037952168639699996	blockFiles/set_3/main_unc/leftBlue\GB_LB_6.xlsx
313	main_unc	True	0.0	284	0	2.0	2.0	1.0	1	right	1.0	1.0	1.0	1	0.038694377075900004	blockFiles/set_3/main_unc/leftBlue\GB_LB_6.xlsx
314	main_unc	True	0.0	284	0	2.0	2.0	1.0	1	right	1.0	1.0	1.0	1	0.0172866925783	blockFiles/set_3/main_unc/leftBlue\GB_LB_6.xlsx
315	main_unc	True	0.0	284	0	2.0	2.0	0.0	1	left	2.0	0.0	1.0	0	-0.0476645003259	blockFiles/set_3/main_unc/leftBlue\GB_LB_6.xlsx
316	main_unc	True	0.0	284	0	2.0	2.0	1.0	1	right	1.0	1.0	1.0	1	0.0639233106561	blockFiles/set_3/main_unc/leftBlue\GB_LB_6.xlsx
317	main_unc	True	0.0	284	0	2.0	2.0	1.0	0	right	1.0	0.0	0.0	0	-0.0565761348419	blockFiles/set_3/main_unc/leftBlue\GB_LB_6.xlsx
318	main_unc	True	0.0	284	0	2.0	2.0	0.0	1	left	2.0	0.0	1.0	0	-0.0129616481811	blockFiles/set_3/main_unc/leftBlue\GB_LB_6.xlsx
319	main_unc	True	0.0	284	0	2.0	2.0	1.0	0	right	1.0	0.0	0.0	0	-0.06036072710530001	blockFiles/set_3/main_unc/leftBlue\GB_LB_6.xlsx
320	main_unc	True	0.0	284	0	2.0	2.0	1.0	1	right	1.0	1.0	1.0	1	0.037818345539300004	blockFiles/set_3/main_unc/leftBlue\GB_LB_6.xlsx
321	main_unc	True	0.0	284	0	2.0	2.0	1.0	0	right	1.0	0.0	0.0	0	-0.006818369831890001	blockFiles/set_3/main_unc/leftBlue\GB_LB_6.xlsx
322	main_unc	True	0.0	284	0	2.0	2.0	1.0	1	right	1.0	1.0	1.0	1	0.020176701583	blockFiles/set_3/main_unc/leftBlue\GB_LB_6.xlsx
323	main_unc	True	0.0	284	0	2.0	2.0	1.0	0	right	1.0	1.0	0.0	0	-0.0602294119075	blockFiles/set_3/main_unc/leftBlue\GB_LB_6.xlsx
324	main_unc	True	0.0	284	0	2.0	2.0	1.0	0	right	1.0	0.0	0.0	0	-0.0130032336153	blockFiles/set_3/main_unc/leftBlue\GB_LB_6.xlsx
325	main_unc	True	0.0	284	0	2.0	2.0	0.0	1	left	1.0	0.0	0.0	0	-0.07702803643419999	blockFiles/set_3/main_unc/leftBlue\GB_LB_6.xlsx
326	main_unc	True	0.0	284	0	2.0	2.0	0.0	1	left	1.0	0.0	0.0	0	-0.022767689842699997	blockFiles/set_3/main_unc/leftBlue\GB_LB_6.xlsx
327	main_unc	True	0.0	284	0	3.0	3.0	1.0	1	right	2.0	1.0	0.0	1	0.0263148199581	blockFiles/set_3/main_unc/leftBlue\GB_LB_3.xlsx
328	main_unc	True	0.0	284	0	3.0	3.0	1.0	1	right	2.0	0.0	0.0	1	0.06068253520880001	blockFiles/set_3/main_unc/leftBlue\GB_LB_3.xlsx
329	main_unc	True	0.0	284	0	3.0	3.0	1.0	1	right	2.0	0.0	0.0	1	0.07666237391530001	blockFiles/set_3/main_unc/leftBlue\GB_LB_3.xlsx
330	main_unc	True	0.0	284	0	3.0	3.0	1.0	1	right	2.0	0.0	0.0	1	0.00586590329185	blockFiles/set_3/main_unc/leftBlue\GB_LB_3.xlsx
331	main_unc	True	0.0	284	0	3.0	3.0	0.0	1	left	1.0	0.0	0.0	0	-0.0114681565948	blockFiles/set_3/main_unc/leftBlue\GB_LB_3.xlsx
332	main_unc	True	0.0	284	0	3.0	3.0	1.0	1	right	1.0	1.0	1.0	1	0.0783841628395	blockFiles/set_3/main_unc/leftBlue\GB_LB_3.xlsx
333	main_unc	True	0.0	284	0	3.0	3.0	0.0	1	left	2.0	1.0	1.0	0	-0.043819349166	blockFiles/set_3/main_unc/leftBlue\GB_LB_3.xlsx
334	main_unc	True	0.0	284	0	3.0	3.0	0.0	1	left	2.0	0.0	1.0	0	-0.0151366866007	blockFiles/set_3/main_unc/leftBlue\GB_LB_3.xlsx
335	main_unc	True	0.0	284	0	3.0	3.0	0.0	1	left	2.0	1.0	1.0	0	-0.030215380545700003	blockFiles/set_3/main_unc/leftBlue\GB_LB_3.xlsx
336	main_unc	True	0.0	284	0	3.0	3.0	0.0	1	left	2.0	1.0	1.0	0	-0.048666509296699995	blockFiles/set_3/main_unc/leftBlue\GB_LB_3.xlsx
337	main_unc	True	0.0	284	0	3.0	3.0	1.0	1	right	1.0	0.0	1.0	1	0.0764155451395	blockFiles/set_3/main_unc/leftBlue\GB_LB_3.xlsx
338	main_unc	True	0.0	284	0	3.0	3.0	0.0	0	left	1.0	1.0	1.0	1	0.0066915156506	blockFiles/set_3/main_unc/leftBlue\GB_LB_3.xlsx
339	main_unc	True	0.0	284	0	3.0	3.0	0.0	1	left	1.0	1.0	0.0	0	-0.04558552576230001	blockFiles/set_3/main_unc/leftBlue\GB_LB_3.xlsx
340	main_unc	True	0.0	284	0	3.0	3.0	0.0	1	left	1.0	0.0	0.0	0	-0.0498850914836	blockFiles/set_3/main_unc/leftBlue\GB_LB_3.xlsx
341	main_unc	True	0.0	284	0	3.0	3.0	0.0	1	left	1.0	0.0	0.0	0	-0.0770738760196	blockFiles/set_3/main_unc/leftBlue\GB_LB_3.xlsx
342	main_unc	True	0.0	284	0	3.0	3.0	0.0	1	left	1.0	0.0	0.0	0	-0.0187753514573	blockFiles/set_3/main_unc/leftBlue\GB_LB_3.xlsx
343	main_unc	True	0.0	284	0	3.0	3.0	1.0	1	right	2.0	0.0	0.0	1	0.0346724446118	blockFiles/set_3/main_unc/leftBlue\GB_LB_3.xlsx
344	main_unc	True	0.0	284	0	3.0	3.0	1.0	1	right	2.0	0.0	0.0	1	0.0220960519649	blockFiles/set_3/main_unc/leftBlue\GB_LB_3.xlsx
345	main_unc	True	0.0	284	0	3.0	3.0	1.0	0	right	1.0	0.0	0.0	0	-0.0019492073357099998	blockFiles/set_3/main_unc/leftBlue\GB_LB_3.xlsx
346	main_unc	True	0.0	284	0	3.0	3.0	0.0	1	left	2.0	1.0	1.0	0	-0.06147015353659999	blockFiles/set_3/main_unc/leftBlue\GB_LB_3.xlsx
347	main_unc	True	0.0	284	0	3.0	3.0	1.0	0	right	1.0	0.0	0.0	0	-0.0226650148816	blockFiles/set_3/main_unc/leftBlue\GB_LB_3.xlsx
348	main_unc	True	0.0	284	0	3.0	3.0	1.0	1	right	1.0	1.0	1.0	1	0.052558807861099996	blockFiles/set_3/main_unc/leftBlue\GB_LB_3.xlsx
349	main_unc	True	0.0	284	0	3.0	3.0	1.0	1	right	1.0	0.0	1.0	1	0.045813458804	blockFiles/set_3/main_unc/leftBlue\GB_LB_3.xlsx
350	main_unc	True	0.0	284	0	3.0	3.0	1.0	1	right	1.0	1.0	1.0	1	0.041059794221099996	blockFiles/set_3/main_unc/leftBlue\GB_LB_3.xlsx
351	main_unc	True	0.0	284	0	3.0	3.0	1.0	1	right	1.0	1.0	1.0	1	0.00931616339833	blockFiles/set_3/main_unc/leftBlue\GB_LB_3.xlsx
352	main_unc	True	0.0	284	0	4.0	4.0	1.0	0	right	1.0	0.0	0.0	0	-0.000564749408513	blockFiles/set_3/main_unc/leftBlue\GB_LB_2.xlsx
353	main_unc	True	0.0	284	0	4.0	4.0	0.0	1	left	2.0	1.0	1.0	0	-0.0737102455832	blockFiles/set_3/main_unc/leftBlue\GB_LB_2.xlsx
354	main_unc	True	0.0	284	0	4.0	4.0	1.0	1	right	1.0	1.0	1.0	1	0.00894273806363	blockFiles/set_3/main_unc/leftBlue\GB_LB_2.xlsx
355	main_unc	True	0.0	284	0	4.0	4.0	1.0	0	right	1.0	0.0	0.0	0	-0.073745783437	blockFiles/set_3/main_unc/leftBlue\GB_LB_2.xlsx
356	main_unc	True	0.0	284	0	4.0	4.0	0.0	1	left	2.0	1.0	1.0	0	-0.028246878199299996	blockFiles/set_3/main_unc/leftBlue\GB_LB_2.xlsx
357	main_unc	True	0.0	284	0	4.0	4.0	1.0	1	right	1.0	0.0	1.0	1	0.00388443140313	blockFiles/set_3/main_unc/leftBlue\GB_LB_2.xlsx
358	main_unc	True	0.0	284	0	4.0	4.0	1.0	0	right	1.0	0.0	0.0	0	-0.038121054843099994	blockFiles/set_3/main_unc/leftBlue\GB_LB_2.xlsx
359	main_unc	True	0.0	284	0	4.0	4.0	1.0	0	right	1.0	0.0	0.0	0	-0.06206979690119999	blockFiles/set_3/main_unc/leftBlue\GB_LB_2.xlsx
360	main_unc	True	0.0	284	0	4.0	4.0	0.0	1	left	1.0	0.0	0.0	0	-0.07331309624019999	blockFiles/set_3/main_unc/leftBlue\GB_LB_2.xlsx
361	main_unc	True	0.0	284	0	4.0	4.0	1.0	0	right	2.0	1.0	1.0	0	-0.00444354280829	blockFiles/set_3/main_unc/leftBlue\GB_LB_2.xlsx
362	main_unc	True	0.0	284	0	4.0	4.0	0.0	1	left	1.0	1.0	0.0	0	-0.0671692297794	blockFiles/set_3/main_unc/leftBlue\GB_LB_2.xlsx
363	main_unc	True	0.0	284	0	4.0	4.0	1.0	1	right	2.0	0.0	0.0	1	0.017432950995900004	blockFiles/set_3/main_unc/leftBlue\GB_LB_2.xlsx
364	main_unc	True	0.0	284	0	4.0	4.0	1.0	1	right	2.0	0.0	0.0	1	0.0589379373379	blockFiles/set_3/main_unc/leftBlue\GB_LB_2.xlsx
365	main_unc	True	0.0	284	0	4.0	4.0	0.0	1	left	2.0	0.0	1.0	0	-0.040666539073	blockFiles/set_3/main_unc/leftBlue\GB_LB_2.xlsx
366	main_unc	True	0.0	284	0	4.0	4.0	1.0	1	right	2.0	0.0	0.0	1	0.02303546682	blockFiles/set_3/main_unc/leftBlue\GB_LB_2.xlsx
367	main_unc	True	0.0	284	0	4.0	4.0	1.0	1	right	2.0	0.0	0.0	1	0.054169321451300004	blockFiles/set_3/main_unc/leftBlue\GB_LB_2.xlsx
368	main_unc	True	0.0	284	0	4.0	4.0	1.0	0	right	2.0	1.0	1.0	0	-0.013281870652	blockFiles/set_3/main_unc/leftBlue\GB_LB_2.xlsx
369	main_unc	True	0.0	284	0	4.0	4.0	0.0	1	left	2.0	0.0	1.0	0	-0.0184389492311	blockFiles/set_3/main_unc/leftBlue\GB_LB_2.xlsx
370	main_unc	True	0.0	284	0	4.0	4.0	0.0	1	left	1.0	1.0	0.0	0	-0.06534361612049999	blockFiles/set_3/main_unc/leftBlue\GB_LB_2.xlsx
371	main_unc	True	0.0	284	0	4.0	4.0	0.0	1	left	1.0	0.0	0.0	0	-0.0346593813226	blockFiles/set_3/main_unc/leftBlue\GB_LB_2.xlsx
372	main_unc	True	0.0	284	0	4.0	4.0	1.0	1	right	2.0	0.0	0.0	1	0.06423238370569999	blockFiles/set_3/main_unc/leftBlue\GB_LB_2.xlsx
373	main_unc	True	0.0	284	0	4.0	4.0	1.0	1	right	2.0	0.0	0.0	1	0.01054384619	blockFiles/set_3/main_unc/leftBlue\GB_LB_2.xlsx
374	main_unc	True	0.0	284	0	4.0	4.0	0.0	0	left	1.0	1.0	1.0	1	0.028406424261599998	blockFiles/set_3/main_unc/leftBlue\GB_LB_2.xlsx
375	main_unc	True	0.0	284	0	4.0	4.0	1.0	1	right	2.0	0.0	0.0	1	0.057938274778399995	blockFiles/set_3/main_unc/leftBlue\GB_LB_2.xlsx
376	main_unc	True	0.0	284	0	4.0	4.0	1.0	1	right	2.0	0.0	0.0	1	0.0162434958667	blockFiles/set_3/main_unc/leftBlue\GB_LB_2.xlsx
377	main_unc	True	0.0	284	0	5.0	5.0	0.0	1	left	2.0	0.0	0.0	0	-0.0675484950282	blockFiles/set_3/main_unc/rightBlue\GB_RB_2.xlsx
378	main_unc	True	0.0	284	0	5.0	5.0	0.0	1	left	2.0	0.0	0.0	0	-0.0347246629186	blockFiles/set_3/main_unc/rightBlue\GB_RB_2.xlsx
379	main_unc	True	0.0	284	0	5.0	5.0	1.0	1	right	2.0	1.0	1.0	1	0.07003388131039999	blockFiles/set_3/main_unc/rightBlue\GB_RB_2.xlsx
380	main_unc	True	0.0	284	0	5.0	5.0	0.0	0	left	1.0	0.0	0.0	1	0.0247336380742	blockFiles/set_3/main_unc/rightBlue\GB_RB_2.xlsx
381	main_unc	True	0.0	284	0	5.0	5.0	0.0	1	left	1.0	1.0	1.0	0	-0.0400097379275	blockFiles/set_3/main_unc/rightBlue\GB_RB_2.xlsx
382	main_unc	True	0.0	284	0	5.0	5.0	1.0	1	right	2.0	0.0	1.0	1	0.00225455449894	blockFiles/set_3/main_unc/rightBlue\GB_RB_2.xlsx
383	main_unc	True	0.0	284	0	5.0	5.0	0.0	1	left	1.0	1.0	1.0	0	-0.0239414913766	blockFiles/set_3/main_unc/rightBlue\GB_RB_2.xlsx
384	main_unc	True	0.0	284	0	5.0	5.0	0.0	1	left	1.0	1.0	1.0	0	-0.0672023991495	blockFiles/set_3/main_unc/rightBlue\GB_RB_2.xlsx
385	main_unc	True	0.0	284	0	5.0	5.0	1.0	0	right	2.0	0.0	0.0	0	-0.0137223013677	blockFiles/set_3/main_unc/rightBlue\GB_RB_2.xlsx
386	main_unc	True	0.0	284	0	5.0	5.0	0.0	1	left	1.0	1.0	1.0	0	-0.050630678590400005	blockFiles/set_3/main_unc/rightBlue\GB_RB_2.xlsx
387	main_unc	True	0.0	284	0	5.0	5.0	0.0	1	left	1.0	1.0	1.0	0	-0.0511132720113	blockFiles/set_3/main_unc/rightBlue\GB_RB_2.xlsx
388	main_unc	True	0.0	284	0	5.0	5.0	1.0	1	right	2.0	0.0	1.0	1	0.044543370120199995	blockFiles/set_3/main_unc/rightBlue\GB_RB_2.xlsx
389	main_unc	True	0.0	284	0	5.0	5.0	0.0	1	left	1.0	1.0	1.0	0	-0.0618918283656	blockFiles/set_3/main_unc/rightBlue\GB_RB_2.xlsx
390	main_unc	True	0.0	284	0	5.0	5.0	0.0	1	left	1.0	1.0	1.0	0	-0.0125366316922	blockFiles/set_3/main_unc/rightBlue\GB_RB_2.xlsx
391	main_unc	True	0.0	284	0	5.0	5.0	1.0	1	right	2.0	1.0	1.0	1	0.00688046760857	blockFiles/set_3/main_unc/rightBlue\GB_RB_2.xlsx
392	main_unc	True	0.0	284	0	5.0	5.0	1.0	1	right	2.0	0.0	1.0	1	0.064358822275	blockFiles/set_3/main_unc/rightBlue\GB_RB_2.xlsx
393	main_unc	True	0.0	284	0	5.0	5.0	1.0	1	right	2.0	1.0	1.0	1	0.0378777761199	blockFiles/set_3/main_unc/rightBlue\GB_RB_2.xlsx
394	main_unc	True	0.0	284	0	5.0	5.0	1.0	1	right	2.0	0.0	1.0	1	0.0371828997135	blockFiles/set_3/main_unc/rightBlue\GB_RB_2.xlsx
395	main_unc	True	0.0	284	0	5.0	5.0	1.0	0	right	2.0	0.0	0.0	0	-0.0479345111921	blockFiles/set_3/main_unc/rightBlue\GB_RB_2.xlsx
396	main_unc	True	0.0	284	0	5.0	5.0	0.0	1	left	1.0	1.0	1.0	0	-0.0309153210931	blockFiles/set_3/main_unc/rightBlue\GB_RB_2.xlsx
397	main_unc	True	0.0	284	0	5.0	5.0	0.0	0	left	1.0	0.0	0.0	1	0.011368822176000002	blockFiles/set_3/main_unc/rightBlue\GB_RB_2.xlsx
398	main_unc	True	0.0	284	0	5.0	5.0	1.0	1	right	2.0	1.0	1.0	1	0.011370107550200001	blockFiles/set_3/main_unc/rightBlue\GB_RB_2.xlsx
399	main_unc	True	0.0	284	0	5.0	5.0	0.0	1	left	1.0	1.0	1.0	0	-0.0690969505347	blockFiles/set_3/main_unc/rightBlue\GB_RB_2.xlsx
400	main_unc	True	0.0	284	0	5.0	5.0	1.0	1	right	2.0	1.0	1.0	1	0.020538997165900002	blockFiles/set_3/main_unc/rightBlue\GB_RB_2.xlsx
401	main_unc	True	0.0	284	0	5.0	5.0	1.0	1	right	2.0	1.0	1.0	1	0.0545218606479	blockFiles/set_3/main_unc/rightBlue\GB_RB_2.xlsx
402	main_unc	True	0.0	284	0	6.0	6.0	1.0	1	right	1.0	0.0	1.0	1	0.0715256906115	blockFiles/set_3/main_unc/leftBlue\GB_LB_1.xlsx
403	main_unc	True	0.0	284	0	6.0	6.0	1.0	1	right	1.0	1.0	1.0	1	0.0211188643426	blockFiles/set_3/main_unc/leftBlue\GB_LB_1.xlsx
404	main_unc	True	0.0	284	0	6.0	6.0	0.0	1	left	2.0	0.0	1.0	0	-0.0660695320927	blockFiles/set_3/main_unc/leftBlue\GB_LB_1.xlsx
405	main_unc	True	0.0	284	0	6.0	6.0	1.0	1	right	1.0	1.0	1.0	1	0.0704637124576	blockFiles/set_3/main_unc/leftBlue\GB_LB_1.xlsx
406	main_unc	True	0.0	284	0	6.0	6.0	1.0	0	right	1.0	0.0	0.0	0	-0.0009147572331129999	blockFiles/set_3/main_unc/leftBlue\GB_LB_1.xlsx
407	main_unc	True	0.0	284	0	6.0	6.0	0.0	1	left	2.0	1.0	1.0	0	-0.0525936879218	blockFiles/set_3/main_unc/leftBlue\GB_LB_1.xlsx
408	main_unc	True	0.0	284	0	6.0	6.0	1.0	1	right	1.0	1.0	1.0	1	0.0583468287624	blockFiles/set_3/main_unc/leftBlue\GB_LB_1.xlsx
409	main_unc	True	0.0	284	0	6.0	6.0	0.0	1	left	2.0	0.0	1.0	0	-0.0406399561465	blockFiles/set_3/main_unc/leftBlue\GB_LB_1.xlsx
410	main_unc	True	0.0	284	0	6.0	6.0	1.0	1	right	1.0	1.0	1.0	1	0.0382532047667	blockFiles/set_3/main_unc/leftBlue\GB_LB_1.xlsx
411	main_unc	True	0.0	284	0	6.0	6.0	0.0	0	left	2.0	0.0	0.0	1	0.0298621050268	blockFiles/set_3/main_unc/leftBlue\GB_LB_1.xlsx
412	main_unc	True	0.0	284	0	6.0	6.0	0.0	0	left	2.0	0.0	0.0	1	0.00334284015	blockFiles/set_3/main_unc/leftBlue\GB_LB_1.xlsx
413	main_unc	True	0.0	284	0	6.0	6.0	1.0	1	right	1.0	0.0	1.0	1	0.041337509360199996	blockFiles/set_3/main_unc/leftBlue\GB_LB_1.xlsx
414	main_unc	True	0.0	284	0	6.0	6.0	0.0	1	left	1.0	0.0	0.0	0	-0.016388404686	blockFiles/set_3/main_unc/leftBlue\GB_LB_1.xlsx
415	main_unc	True	0.0	284	0	6.0	6.0	0.0	1	left	2.0	1.0	1.0	0	-0.019774527009599998	blockFiles/set_3/main_unc/leftBlue\GB_LB_1.xlsx
416	main_unc	True	1.0	284	0	6.0	6.0	0.0	1	left	n/a	0.0	n/a	0	-0.0730289462022	blockFiles/set_3/main_unc/leftBlue\GB_LB_1.xlsx
417	main_unc	True	0.0	284	0	6.0	6.0	0.0	1	left	2.0	1.0	1.0	0	-0.053528989944599994	blockFiles/set_3/main_unc/leftBlue\GB_LB_1.xlsx
418	main_unc	True	0.0	284	0	6.0	6.0	1.0	1	right	1.0	1.0	1.0	1	0.019326312653700002	blockFiles/set_3/main_unc/leftBlue\GB_LB_1.xlsx
419	main_unc	True	0.0	284	0	6.0	6.0	1.0	1	right	1.0	1.0	1.0	1	0.0287628343701	blockFiles/set_3/main_unc/leftBlue\GB_LB_1.xlsx
420	main_unc	True	0.0	284	0	6.0	6.0	1.0	1	right	1.0	1.0	1.0	1	0.0268897392601	blockFiles/set_3/main_unc/leftBlue\GB_LB_1.xlsx
421	main_unc	True	0.0	284	0	6.0	6.0	0.0	1	left	2.0	1.0	1.0	0	-0.033689920418	blockFiles/set_3/main_unc/leftBlue\GB_LB_1.xlsx
422	main_unc	True	0.0	284	0	6.0	6.0	1.0	1	right	1.0	1.0	1.0	1	0.021397478524599996	blockFiles/set_3/main_unc/leftBlue\GB_LB_1.xlsx
423	main_unc	True	0.0	284	0	6.0	6.0	1.0	0	right	1.0	0.0	0.0	0	-0.0245134657063	blockFiles/set_3/main_unc/leftBlue\GB_LB_1.xlsx
424	main_unc	True	0.0	284	0	6.0	6.0	0.0	1	left	2.0	1.0	1.0	0	-0.0648065424897	blockFiles/set_3/main_unc/leftBlue\GB_LB_1.xlsx
425	main_unc	True	0.0	284	0	6.0	6.0	1.0	1	right	1.0	1.0	1.0	1	0.0578033091314	blockFiles/set_3/main_unc/leftBlue\GB_LB_1.xlsx
426	main_unc	True	0.0	284	0	6.0	6.0	0.0	1	left	2.0	1.0	1.0	0	-0.0079726572521	blockFiles/set_3/main_unc/leftBlue\GB_LB_1.xlsx
427	main_unc	True	0.0	284	0	6.0	6.0	0.0	1	left	1.0	0.0	0.0	0	-0.0730289462022	blockFiles/set_3/main_unc/leftBlue\GB_LB_1.xlsx
428	main_unc	True	0.0	284	0	7.0	7.0	0.0	1	left	1.0	0.0	0.0	0	-0.026379560176300002	blockFiles/set_3/main_unc/leftBlue\GB_LB_5.xlsx
429	main_unc	True	0.0	284	0	7.0	7.0	1.0	1	right	2.0	0.0	0.0	1	0.0115107497759	blockFiles/set_3/main_unc/leftBlue\GB_LB_5.xlsx
430	main_unc	True	0.0	284	0	7.0	7.0	1.0	1	right	2.0	1.0	0.0	1	0.0299936858565	blockFiles/set_3/main_unc/leftBlue\GB_LB_5.xlsx
431	main_unc	True	0.0	284	0	7.0	7.0	0.0	1	left	1.0	0.0	0.0	0	-0.00791383564472	blockFiles/set_3/main_unc/leftBlue\GB_LB_5.xlsx
432	main_unc	True	0.0	284	0	7.0	7.0	0.0	1	left	1.0	0.0	0.0	0	-0.0449562979117	blockFiles/set_3/main_unc/leftBlue\GB_LB_5.xlsx
433	main_unc	True	0.0	284	0	7.0	7.0	1.0	1	right	1.0	1.0	1.0	1	0.0573963536881	blockFiles/set_3/main_unc/leftBlue\GB_LB_5.xlsx
434	main_unc	True	0.0	284	0	7.0	7.0	1.0	1	right	1.0	1.0	1.0	1	0.053407705538	blockFiles/set_3/main_unc/leftBlue\GB_LB_5.xlsx
435	main_unc	True	0.0	284	0	7.0	7.0	1.0	1	right	1.0	1.0	1.0	1	0.043485089018900004	blockFiles/set_3/main_unc/leftBlue\GB_LB_5.xlsx
436	main_unc	True	0.0	284	0	7.0	7.0	0.0	1	left	2.0	1.0	1.0	0	-0.0151708654128	blockFiles/set_3/main_unc/leftBlue\GB_LB_5.xlsx
437	main_unc	True	0.0	284	0	7.0	7.0	0.0	1	left	2.0	1.0	1.0	0	-0.00576336450875	blockFiles/set_3/main_unc/leftBlue\GB_LB_5.xlsx
438	main_unc	True	0.0	284	0	7.0	7.0	1.0	1	right	1.0	1.0	1.0	1	0.030749428477099997	blockFiles/set_3/main_unc/leftBlue\GB_LB_5.xlsx
439	main_unc	True	0.0	284	0	7.0	7.0	0.0	1	left	1.0	0.0	0.0	0	-0.06893908014519999	blockFiles/set_3/main_unc/leftBlue\GB_LB_5.xlsx
440	main_unc	True	0.0	284	0	7.0	7.0	1.0	1	right	1.0	0.0	1.0	1	0.0603401555866	blockFiles/set_3/main_unc/leftBlue\GB_LB_5.xlsx
441	main_unc	True	0.0	284	0	7.0	7.0	0.0	0	left	2.0	0.0	0.0	1	0.0663945642114	blockFiles/set_3/main_unc/leftBlue\GB_LB_5.xlsx
442	main_unc	True	0.0	284	0	7.0	7.0	0.0	0	left	2.0	0.0	0.0	1	0.0042169384658299995	blockFiles/set_3/main_unc/leftBlue\GB_LB_5.xlsx
443	main_unc	True	0.0	284	0	7.0	7.0	0.0	1	left	2.0	1.0	1.0	0	-0.0353242925182	blockFiles/set_3/main_unc/leftBlue\GB_LB_5.xlsx
444	main_unc	True	0.0	284	0	7.0	7.0	1.0	0	right	1.0	0.0	0.0	0	-0.0201364241727	blockFiles/set_3/main_unc/leftBlue\GB_LB_5.xlsx
445	main_unc	True	0.0	284	0	7.0	7.0	1.0	1	right	1.0	1.0	1.0	1	0.07072917481879999	blockFiles/set_3/main_unc/leftBlue\GB_LB_5.xlsx
446	main_unc	True	0.0	284	0	7.0	7.0	1.0	0	right	1.0	0.0	0.0	0	-0.0239495175704	blockFiles/set_3/main_unc/leftBlue\GB_LB_5.xlsx
447	main_unc	True	0.0	284	0	7.0	7.0	0.0	1	left	2.0	0.0	1.0	0	-0.0253317673691	blockFiles/set_3/main_unc/leftBlue\GB_LB_5.xlsx
448	main_unc	True	0.0	284	0	7.0	7.0	0.0	1	left	2.0	1.0	1.0	0	-0.0799605029076	blockFiles/set_3/main_unc/leftBlue\GB_LB_5.xlsx
449	main_unc	True	0.0	284	0	7.0	7.0	1.0	1	right	1.0	1.0	1.0	1	0.03878234699369999	blockFiles/set_3/main_unc/leftBlue\GB_LB_5.xlsx
450	main_unc	True	0.0	284	0	7.0	7.0	1.0	1	right	1.0	1.0	1.0	1	0.07011024929580001	blockFiles/set_3/main_unc/leftBlue\GB_LB_5.xlsx
451	main_unc	True	0.0	284	0	7.0	7.0	0.0	1	left	2.0	1.0	1.0	0	-0.028236814346199998	blockFiles/set_3/main_unc/leftBlue\GB_LB_5.xlsx
452	main_unc	True	0.0	284	0	7.0	7.0	0.0	1	left	2.0	1.0	1.0	0	-0.051448291372499996	blockFiles/set_3/main_unc/leftBlue\GB_LB_5.xlsx
453	main_unc	True	0.0	284	0	8.0	8.0	0.0	0	left	2.0	0.0	0.0	1	0.057833861689999995	blockFiles/set_3/main_unc/leftBlue\GB_LB_4.xlsx
454	main_unc	True	0.0	284	0	8.0	8.0	1.0	1	right	1.0	1.0	1.0	1	0.0435419652238	blockFiles/set_3/main_unc/leftBlue\GB_LB_4.xlsx
455	main_unc	True	0.0	284	0	8.0	8.0	0.0	1	left	2.0	0.0	1.0	0	-0.044640008807199996	blockFiles/set_3/main_unc/leftBlue\GB_LB_4.xlsx
456	main_unc	True	0.0	284	0	8.0	8.0	0.0	1	left	2.0	1.0	1.0	0	-0.0094224688597	blockFiles/set_3/main_unc/leftBlue\GB_LB_4.xlsx
457	main_unc	True	0.0	284	0	8.0	8.0	0.0	1	left	1.0	0.0	0.0	0	-0.0475711945817	blockFiles/set_3/main_unc/leftBlue\GB_LB_4.xlsx
458	main_unc	True	0.0	284	0	8.0	8.0	1.0	1	right	1.0	1.0	1.0	1	0.033891440350599995	blockFiles/set_3/main_unc/leftBlue\GB_LB_4.xlsx
459	main_unc	True	0.0	284	0	8.0	8.0	1.0	0	right	1.0	1.0	0.0	0	-0.0026805078797	blockFiles/set_3/main_unc/leftBlue\GB_LB_4.xlsx
460	main_unc	True	0.0	284	0	8.0	8.0	1.0	1	right	1.0	1.0	1.0	1	0.049982584659000004	blockFiles/set_3/main_unc/leftBlue\GB_LB_4.xlsx
461	main_unc	True	0.0	284	0	8.0	8.0	0.0	0	left	2.0	1.0	0.0	1	0.055021991599399994	blockFiles/set_3/main_unc/leftBlue\GB_LB_4.xlsx
462	main_unc	True	0.0	284	0	8.0	8.0	0.0	1	left	2.0	0.0	1.0	0	-0.0786622588895	blockFiles/set_3/main_unc/leftBlue\GB_LB_4.xlsx
463	main_unc	True	0.0	284	0	8.0	8.0	1.0	1	right	1.0	1.0	1.0	1	0.027045165784700002	blockFiles/set_3/main_unc/leftBlue\GB_LB_4.xlsx
464	main_unc	True	0.0	284	0	8.0	8.0	0.0	1	left	2.0	1.0	1.0	0	-0.0203756275587	blockFiles/set_3/main_unc/leftBlue\GB_LB_4.xlsx
465	main_unc	True	0.0	284	0	8.0	8.0	0.0	0	left	2.0	1.0	0.0	1	0.0130307091959	blockFiles/set_3/main_unc/leftBlue\GB_LB_4.xlsx
466	main_unc	True	0.0	284	0	8.0	8.0	0.0	0	left	2.0	0.0	0.0	1	0.0595899355225	blockFiles/set_3/main_unc/leftBlue\GB_LB_4.xlsx
467	main_unc	True	0.0	284	0	8.0	8.0	1.0	1	right	1.0	1.0	1.0	1	0.0436769719236	blockFiles/set_3/main_unc/leftBlue\GB_LB_4.xlsx
468	main_unc	True	0.0	284	0	8.0	8.0	0.0	1	left	2.0	1.0	1.0	0	-0.07105061324310001	blockFiles/set_3/main_unc/leftBlue\GB_LB_4.xlsx
469	main_unc	True	0.0	284	0	8.0	8.0	1.0	1	right	1.0	1.0	1.0	1	0.00819592788815	blockFiles/set_3/main_unc/leftBlue\GB_LB_4.xlsx
470	main_unc	True	0.0	284	0	8.0	8.0	0.0	1	left	2.0	0.0	1.0	0	-0.0120661421865	blockFiles/set_3/main_unc/leftBlue\GB_LB_4.xlsx
471	main_unc	True	0.0	284	0	8.0	8.0	1.0	1	right	1.0	1.0	1.0	1	0.05521925820040001	blockFiles/set_3/main_unc/leftBlue\GB_LB_4.xlsx
472	main_unc	True	0.0	284	0	8.0	8.0	0.0	1	left	2.0	1.0	1.0	0	-0.0462003243528	blockFiles/set_3/main_unc/leftBlue\GB_LB_4.xlsx
473	main_unc	True	0.0	284	0	8.0	8.0	0.0	0	left	2.0	0.0	0.0	1	0.0439649546891	blockFiles/set_3/main_unc/leftBlue\GB_LB_4.xlsx
474	main_unc	True	0.0	284	0	8.0	8.0	0.0	1	left	2.0	1.0	1.0	0	-0.0020065987855200002	blockFiles/set_3/main_unc/leftBlue\GB_LB_4.xlsx
475	main_unc	True	0.0	284	0	8.0	8.0	0.0	1	left	2.0	1.0	1.0	0	-0.04905269056559999	blockFiles/set_3/main_unc/leftBlue\GB_LB_4.xlsx
476	main_unc	True	0.0	284	0	8.0	8.0	0.0	1	left	2.0	1.0	1.0	0	-0.0512651407346	blockFiles/set_3/main_unc/leftBlue\GB_LB_4.xlsx
477	main_unc	True	0.0	284	0	8.0	8.0	0.0	1	left	2.0	1.0	1.0	0	-0.0406967222132	blockFiles/set_3/main_unc/leftBlue\GB_LB_4.xlsx
478	main_unc	True	0.0	284	0	9.0	9.0	0.0	0	left	2.0	0.0	1.0	1	0.0185527659953	blockFiles/set_3/main_unc/rightBlue\GB_RB_3.xlsx
479	main_unc	True	0.0	284	0	9.0	9.0	1.0	1	right	2.0	1.0	1.0	1	0.023944220636	blockFiles/set_3/main_unc/rightBlue\GB_RB_3.xlsx
480	main_unc	True	0.0	284	0	9.0	9.0	0.0	1	left	1.0	1.0	1.0	0	-0.021464732903999997	blockFiles/set_3/main_unc/rightBlue\GB_RB_3.xlsx
481	main_unc	True	0.0	284	0	9.0	9.0	0.0	1	left	1.0	1.0	1.0	0	-0.0675727101229	blockFiles/set_3/main_unc/rightBlue\GB_RB_3.xlsx
482	main_unc	True	0.0	284	0	9.0	9.0	0.0	1	left	1.0	1.0	1.0	0	-0.0333099409938	blockFiles/set_3/main_unc/rightBlue\GB_RB_3.xlsx
483	main_unc	True	0.0	284	0	9.0	9.0	1.0	1	right	2.0	1.0	1.0	1	0.06610494630409999	blockFiles/set_3/main_unc/rightBlue\GB_RB_3.xlsx
484	main_unc	True	0.0	284	0	9.0	9.0	1.0	1	right	2.0	1.0	1.0	1	0.061917403228599996	blockFiles/set_3/main_unc/rightBlue\GB_RB_3.xlsx
485	main_unc	True	0.0	284	0	9.0	9.0	0.0	0	left	1.0	0.0	0.0	1	0.0131816367619	blockFiles/set_3/main_unc/rightBlue\GB_RB_3.xlsx
486	main_unc	True	0.0	284	0	9.0	9.0	1.0	1	right	2.0	0.0	1.0	1	0.026488955225800002	blockFiles/set_3/main_unc/rightBlue\GB_RB_3.xlsx
487	main_unc	True	0.0	284	0	9.0	9.0	1.0	0	right	2.0	0.0	0.0	0	-0.000940450895578	blockFiles/set_3/main_unc/rightBlue\GB_RB_3.xlsx
488	main_unc	True	0.0	284	0	9.0	9.0	0.0	1	left	1.0	0.0	1.0	0	-0.0442928083241	blockFiles/set_3/main_unc/rightBlue\GB_RB_3.xlsx
489	main_unc	True	0.0	284	0	9.0	9.0	1.0	0	right	2.0	0.0	0.0	0	-0.0144028149731	blockFiles/set_3/main_unc/rightBlue\GB_RB_3.xlsx
490	main_unc	True	0.0	284	0	9.0	9.0	0.0	1	left	2.0	0.0	0.0	0	-0.0568087788299	blockFiles/set_3/main_unc/rightBlue\GB_RB_3.xlsx
491	main_unc	True	0.0	284	0	9.0	9.0	0.0	1	left	2.0	1.0	0.0	0	-0.061793124266	blockFiles/set_3/main_unc/rightBlue\GB_RB_3.xlsx
492	main_unc	True	0.0	284	0	9.0	9.0	1.0	1	right	1.0	0.0	0.0	1	0.0327691892534	blockFiles/set_3/main_unc/rightBlue\GB_RB_3.xlsx
493	main_unc	True	0.0	284	0	9.0	9.0	1.0	0	right	1.0	1.0	1.0	0	-0.0179845905118	blockFiles/set_3/main_unc/rightBlue\GB_RB_3.xlsx
494	main_unc	True	0.0	284	0	9.0	9.0	1.0	1	right	1.0	1.0	0.0	1	0.0384745693952	blockFiles/set_3/main_unc/rightBlue\GB_RB_3.xlsx
495	main_unc	True	0.0	284	0	9.0	9.0	1.0	0	right	1.0	1.0	1.0	0	-0.0787899480015	blockFiles/set_3/main_unc/rightBlue\GB_RB_3.xlsx
496	main_unc	True	0.0	284	0	9.0	9.0	0.0	0	left	2.0	1.0	1.0	1	0.014190212972500001	blockFiles/set_3/main_unc/rightBlue\GB_RB_3.xlsx
497	main_unc	True	0.0	284	0	9.0	9.0	1.0	0	right	2.0	0.0	0.0	0	-0.0025575367733800002	blockFiles/set_3/main_unc/rightBlue\GB_RB_3.xlsx
498	main_unc	True	0.0	284	0	9.0	9.0	0.0	0	left	2.0	1.0	1.0	1	0.0360001342744	blockFiles/set_3/main_unc/rightBlue\GB_RB_3.xlsx
499	main_unc	True	0.0	284	0	9.0	9.0	0.0	1	left	2.0	0.0	0.0	0	-0.0544265878946	blockFiles/set_3/main_unc/rightBlue\GB_RB_3.xlsx
500	main_unc	True	0.0	284	0	9.0	9.0	1.0	1	right	1.0	0.0	0.0	1	0.022897757198700002	blockFiles/set_3/main_unc/rightBlue\GB_RB_3.xlsx
501	main_unc	True	0.0	284	0	9.0	9.0	1.0	0	right	1.0	1.0	1.0	0	-0.006996424607930001	blockFiles/set_3/main_unc/rightBlue\GB_RB_3.xlsx
502	main_unc	True	0.0	284	0	9.0	9.0	0.0	1	left	2.0	0.0	0.0	0	-0.052009132355500004	blockFiles/set_3/main_unc/rightBlue\GB_RB_3.xlsx
503	main_unc	True	0.0	284	0	10.0	10.0	0.0	0	left	1.0	0.0	0.0	1	0.009360469151290001	blockFiles/set_3/main_unc/rightBlue\GB_RB_5.xlsx
504	main_unc	True	0.0	284	0	10.0	10.0	0.0	1	left	1.0	1.0	1.0	0	-0.03819274332369999	blockFiles/set_3/main_unc/rightBlue\GB_RB_5.xlsx
505	main_unc	True	0.0	284	0	10.0	10.0	0.0	0	left	1.0	1.0	0.0	1	3.36393527687e-05	blockFiles/set_3/main_unc/rightBlue\GB_RB_5.xlsx
506	main_unc	True	0.0	284	0	10.0	10.0	1.0	1	right	2.0	0.0	1.0	1	0.0717255887575	blockFiles/set_3/main_unc/rightBlue\GB_RB_5.xlsx
507	main_unc	True	0.0	284	0	10.0	10.0	1.0	1	right	2.0	1.0	1.0	1	0.015682171192	blockFiles/set_3/main_unc/rightBlue\GB_RB_5.xlsx
508	main_unc	True	0.0	284	0	10.0	10.0	0.0	1	left	1.0	1.0	1.0	0	-0.0189210109971	blockFiles/set_3/main_unc/rightBlue\GB_RB_5.xlsx
509	main_unc	True	0.0	284	0	10.0	10.0	0.0	1	left	1.0	0.0	1.0	0	-0.0724957219139	blockFiles/set_3/main_unc/rightBlue\GB_RB_5.xlsx
510	main_unc	True	0.0	284	0	10.0	10.0	0.0	1	left	1.0	1.0	1.0	0	-0.0584623315372	blockFiles/set_3/main_unc/rightBlue\GB_RB_5.xlsx
511	main_unc	True	0.0	284	0	10.0	10.0	1.0	1	right	2.0	1.0	1.0	1	0.0259240158275	blockFiles/set_3/main_unc/rightBlue\GB_RB_5.xlsx
512	main_unc	True	0.0	284	0	10.0	10.0	0.0	1	left	1.0	1.0	1.0	0	-0.0255100616626	blockFiles/set_3/main_unc/rightBlue\GB_RB_5.xlsx
513	main_unc	True	0.0	284	0	10.0	10.0	0.0	1	left	1.0	1.0	1.0	0	-0.06296152280640001	blockFiles/set_3/main_unc/rightBlue\GB_RB_5.xlsx
514	main_unc	True	0.0	284	0	10.0	10.0	1.0	1	right	2.0	1.0	1.0	1	0.0151312310807	blockFiles/set_3/main_unc/rightBlue\GB_RB_5.xlsx
515	main_unc	True	0.0	284	0	10.0	10.0	0.0	0	left	1.0	0.0	0.0	1	0.0237637676112	blockFiles/set_3/main_unc/rightBlue\GB_RB_5.xlsx
516	main_unc	True	0.0	284	0	10.0	10.0	0.0	1	left	1.0	0.0	1.0	0	-0.0794432264008	blockFiles/set_3/main_unc/rightBlue\GB_RB_5.xlsx
517	main_unc	True	0.0	284	0	10.0	10.0	1.0	0	right	2.0	0.0	0.0	0	-0.028743317984	blockFiles/set_3/main_unc/rightBlue\GB_RB_5.xlsx
518	main_unc	True	0.0	284	0	10.0	10.0	0.0	1	left	1.0	0.0	1.0	0	-0.0394495533407	blockFiles/set_3/main_unc/rightBlue\GB_RB_5.xlsx
519	main_unc	True	0.0	284	0	10.0	10.0	0.0	1	left	1.0	1.0	1.0	0	-0.052827391531300005	blockFiles/set_3/main_unc/rightBlue\GB_RB_5.xlsx
520	main_unc	True	0.0	284	0	10.0	10.0	1.0	1	right	2.0	1.0	1.0	1	0.014383662622400002	blockFiles/set_3/main_unc/rightBlue\GB_RB_5.xlsx
521	main_unc	True	0.0	284	0	10.0	10.0	0.0	1	left	1.0	1.0	1.0	0	-0.0780218719319	blockFiles/set_3/main_unc/rightBlue\GB_RB_5.xlsx
522	main_unc	True	0.0	284	0	10.0	10.0	1.0	1	right	2.0	1.0	1.0	1	0.022663482297200003	blockFiles/set_3/main_unc/rightBlue\GB_RB_5.xlsx
523	main_unc	True	0.0	284	0	10.0	10.0	1.0	1	right	2.0	1.0	1.0	1	0.052547696270000006	blockFiles/set_3/main_unc/rightBlue\GB_RB_5.xlsx
524	main_unc	True	0.0	284	0	10.0	10.0	1.0	1	right	2.0	1.0	1.0	1	0.047125673499	blockFiles/set_3/main_unc/rightBlue\GB_RB_5.xlsx
525	main_unc	True	0.0	284	0	10.0	10.0	1.0	1	right	2.0	1.0	1.0	1	0.0288246916421	blockFiles/set_3/main_unc/rightBlue\GB_RB_5.xlsx
526	main_unc	True	0.0	284	0	10.0	10.0	0.0	1	left	1.0	1.0	1.0	0	-0.045591630339599995	blockFiles/set_3/main_unc/rightBlue\GB_RB_5.xlsx
527	main_unc	True	0.0	284	0	10.0	10.0	0.0	1	left	1.0	1.0	1.0	0	-0.048089385014	blockFiles/set_3/main_unc/rightBlue\GB_RB_5.xlsx
528	main_unc	True	0.0	284	0	11.0	11.0	1.0	1	right	2.0	1.0	1.0	1	0.0243285583891	blockFiles/set_3/main_unc/rightBlue\GB_RB_1.xlsx
529	main_unc	True	0.0	284	0	11.0	11.0	1.0	1	right	2.0	1.0	1.0	1	0.00804821727797	blockFiles/set_3/main_unc/rightBlue\GB_RB_1.xlsx
530	main_unc	True	0.0	284	0	11.0	11.0	1.0	1	right	2.0	1.0	1.0	1	0.056345700491199996	blockFiles/set_3/main_unc/rightBlue\GB_RB_1.xlsx
531	main_unc	True	0.0	284	0	11.0	11.0	1.0	1	right	1.0	0.0	0.0	1	0.0318101500161	blockFiles/set_3/main_unc/rightBlue\GB_RB_1.xlsx
532	main_unc	True	0.0	284	0	11.0	11.0	0.0	1	left	1.0	1.0	1.0	0	-0.0064479696750600005	blockFiles/set_3/main_unc/rightBlue\GB_RB_1.xlsx
533	main_unc	True	0.0	284	0	11.0	11.0	1.0	1	right	2.0	1.0	1.0	1	0.0678181916103	blockFiles/set_3/main_unc/rightBlue\GB_RB_1.xlsx
534	main_unc	True	0.0	284	0	11.0	11.0	1.0	1	right	2.0	1.0	1.0	1	0.0179442514293	blockFiles/set_3/main_unc/rightBlue\GB_RB_1.xlsx
535	main_unc	True	0.0	284	0	11.0	11.0	0.0	1	left	1.0	0.0	1.0	0	-0.060799063574500004	blockFiles/set_3/main_unc/rightBlue\GB_RB_1.xlsx
536	main_unc	True	0.0	284	0	11.0	11.0	1.0	1	right	2.0	0.0	1.0	1	0.046867155451300005	blockFiles/set_3/main_unc/rightBlue\GB_RB_1.xlsx
537	main_unc	True	0.0	284	0	11.0	11.0	0.0	1	left	1.0	1.0	1.0	0	-0.079260313157	blockFiles/set_3/main_unc/rightBlue\GB_RB_1.xlsx
538	main_unc	True	0.0	284	0	11.0	11.0	1.0	0	right	2.0	0.0	0.0	0	-0.00544928781688	blockFiles/set_3/main_unc/rightBlue\GB_RB_1.xlsx
539	main_unc	True	0.0	284	0	11.0	11.0	0.0	1	left	1.0	1.0	1.0	0	-0.006528669148680001	blockFiles/set_3/main_unc/rightBlue\GB_RB_1.xlsx
540	main_unc	True	0.0	284	0	11.0	11.0	0.0	1	left	1.0	1.0	1.0	0	-0.024440066069400003	blockFiles/set_3/main_unc/rightBlue\GB_RB_1.xlsx
541	main_unc	True	0.0	284	0	11.0	11.0	0.0	1	left	1.0	1.0	1.0	0	-0.06645062599330001	blockFiles/set_3/main_unc/rightBlue\GB_RB_1.xlsx
542	main_unc	True	0.0	284	0	11.0	11.0	0.0	1	left	1.0	1.0	1.0	0	-0.06855030598119999	blockFiles/set_3/main_unc/rightBlue\GB_RB_1.xlsx
543	main_unc	True	0.0	284	0	11.0	11.0	0.0	1	left	1.0	0.0	1.0	0	-0.0378868626617	blockFiles/set_3/main_unc/rightBlue\GB_RB_1.xlsx
544	main_unc	True	0.0	284	0	11.0	11.0	0.0	1	left	2.0	0.0	0.0	0	-0.036454437933900005	blockFiles/set_3/main_unc/rightBlue\GB_RB_1.xlsx
545	main_unc	True	0.0	284	0	11.0	11.0	1.0	1	right	2.0	0.0	1.0	1	0.05385800728569999	blockFiles/set_3/main_unc/rightBlue\GB_RB_1.xlsx
546	main_unc	True	0.0	284	0	11.0	11.0	0.0	1	left	1.0	1.0	1.0	0	-0.06912909660489999	blockFiles/set_3/main_unc/rightBlue\GB_RB_1.xlsx
547	main_unc	True	0.0	284	0	11.0	11.0	1.0	1	right	2.0	1.0	1.0	1	0.038855671882599994	blockFiles/set_3/main_unc/rightBlue\GB_RB_1.xlsx
548	main_unc	True	0.0	284	0	11.0	11.0	1.0	1	right	2.0	1.0	1.0	1	0.01992538305	blockFiles/set_3/main_unc/rightBlue\GB_RB_1.xlsx
549	main_unc	True	0.0	284	0	11.0	11.0	1.0	1	right	2.0	1.0	1.0	1	0.0257819091342	blockFiles/set_3/main_unc/rightBlue\GB_RB_1.xlsx
550	main_unc	True	0.0	284	0	11.0	11.0	1.0	1	right	2.0	1.0	1.0	1	0.0262305702269	blockFiles/set_3/main_unc/rightBlue\GB_RB_1.xlsx
551	main_unc	True	0.0	284	0	11.0	11.0	1.0	1	right	2.0	1.0	1.0	1	0.016311365459100002	blockFiles/set_3/main_unc/rightBlue\GB_RB_1.xlsx
552	main_unc	True	0.0	284	0	11.0	11.0	1.0	0	right	1.0	1.0	1.0	0	-0.0657951145992	blockFiles/set_3/main_unc/rightBlue\GB_RB_1.xlsx
