	trial_type	complete	missIndex	participant	id	blockNumber	b_t	d_t	decision1.corr	decision1.keys	a_t	r_t	decision2.corr	s_t	u_t	block_file
0	main_safe	True	1.0	632	0	0.0	0.0	1.0	1	right	n/a	0.0	n/a	1	0.08	blockFiles/set_54/main_safe/leftBlue\GB_LB_3.xlsx
1	main_safe	True	0.0	632	0	0.0	0.0	1.0	1	right	2.0	0.0	0.0	1	0.08	blockFiles/set_54/main_safe/leftBlue\GB_LB_3.xlsx
2	main_safe	True	0.0	632	0	0.0	0.0	0.0	1	left	2.0	1.0	1.0	0	-0.08	blockFiles/set_54/main_safe/leftBlue\GB_LB_3.xlsx
3	main_safe	True	0.0	632	0	0.0	0.0	1.0	1	right	1.0	0.0	1.0	1	0.08	blockFiles/set_54/main_safe/leftBlue\GB_LB_3.xlsx
4	main_safe	True	0.0	632	0	0.0	0.0	1.0	1	right	1.0	1.0	1.0	1	0.08	blockFiles/set_54/main_safe/leftBlue\GB_LB_3.xlsx
5	main_safe	True	0.0	632	0	0.0	0.0	1.0	1	right	1.0	1.0	1.0	1	0.08	blockFiles/set_54/main_safe/leftBlue\GB_LB_3.xlsx
6	main_safe	True	0.0	632	0	0.0	0.0	0.0	1	left	2.0	1.0	1.0	0	-0.08	blockFiles/set_54/main_safe/leftBlue\GB_LB_3.xlsx
7	main_safe	True	0.0	632	0	0.0	0.0	0.0	1	left	2.0	1.0	1.0	0	-0.08	blockFiles/set_54/main_safe/leftBlue\GB_LB_3.xlsx
8	main_safe	True	0.0	632	0	0.0	0.0	0.0	1	left	2.0	1.0	1.0	0	-0.08	blockFiles/set_54/main_safe/leftBlue\GB_LB_3.xlsx
9	main_safe	True	0.0	632	0	0.0	0.0	1.0	1	right	1.0	1.0	1.0	1	0.08	blockFiles/set_54/main_safe/leftBlue\GB_LB_3.xlsx
10	main_safe	True	0.0	632	0	0.0	0.0	1.0	1	right	1.0	0.0	1.0	1	0.08	blockFiles/set_54/main_safe/leftBlue\GB_LB_3.xlsx
11	main_safe	True	0.0	632	0	0.0	0.0	1.0	1	right	1.0	1.0	1.0	1	0.08	blockFiles/set_54/main_safe/leftBlue\GB_LB_3.xlsx
12	main_safe	True	0.0	632	0	0.0	0.0	0.0	1	left	2.0	1.0	1.0	0	-0.08	blockFiles/set_54/main_safe/leftBlue\GB_LB_3.xlsx
13	main_safe	True	0.0	632	0	0.0	0.0	0.0	1	left	2.0	1.0	1.0	0	-0.08	blockFiles/set_54/main_safe/leftBlue\GB_LB_3.xlsx
14	main_safe	True	0.0	632	0	0.0	0.0	1.0	1	right	1.0	1.0	1.0	1	0.08	blockFiles/set_54/main_safe/leftBlue\GB_LB_3.xlsx
15	main_safe	True	0.0	632	0	0.0	0.0	0.0	1	left	2.0	1.0	1.0	0	-0.08	blockFiles/set_54/main_safe/leftBlue\GB_LB_3.xlsx
16	main_safe	True	0.0	632	0	0.0	0.0	0.0	1	left	2.0	1.0	1.0	0	-0.08	blockFiles/set_54/main_safe/leftBlue\GB_LB_3.xlsx
17	main_safe	True	0.0	632	0	0.0	0.0	0.0	1	left	2.0	1.0	1.0	0	-0.08	blockFiles/set_54/main_safe/leftBlue\GB_LB_3.xlsx
18	main_safe	True	0.0	632	0	0.0	0.0	0.0	1	left	2.0	0.0	1.0	0	-0.08	blockFiles/set_54/main_safe/leftBlue\GB_LB_3.xlsx
19	main_safe	True	0.0	632	0	0.0	0.0	1.0	1	right	1.0	1.0	1.0	1	0.08	blockFiles/set_54/main_safe/leftBlue\GB_LB_3.xlsx
20	main_safe	True	0.0	632	0	0.0	0.0	1.0	1	right	1.0	1.0	1.0	1	0.08	blockFiles/set_54/main_safe/leftBlue\GB_LB_3.xlsx
21	main_safe	True	0.0	632	0	0.0	0.0	0.0	1	left	2.0	0.0	1.0	0	-0.08	blockFiles/set_54/main_safe/leftBlue\GB_LB_3.xlsx
22	main_safe	True	0.0	632	0	0.0	0.0	0.0	1	left	2.0	0.0	1.0	0	-0.08	blockFiles/set_54/main_safe/leftBlue\GB_LB_3.xlsx
23	main_safe	True	0.0	632	0	0.0	0.0	1.0	1	right	1.0	1.0	1.0	1	0.08	blockFiles/set_54/main_safe/leftBlue\GB_LB_3.xlsx
24	main_safe	True	0.0	632	0	0.0	0.0	1.0	1	right	1.0	1.0	1.0	1	0.08	blockFiles/set_54/main_safe/leftBlue\GB_LB_3.xlsx
25	main_safe	True	0.0	632	0	0.0	0.0	1.0	1	right	1.0	1.0	1.0	1	0.08	blockFiles/set_54/main_safe/leftBlue\GB_LB_3.xlsx
26	main_safe	True	0.0	632	0	1.0	1.0	1.0	1	right	1.0	1.0	1.0	1	0.08	blockFiles/set_54/main_safe/leftBlue\GB_LB_2.xlsx
27	main_safe	True	0.0	632	0	1.0	1.0	1.0	1	right	1.0	1.0	1.0	1	0.08	blockFiles/set_54/main_safe/leftBlue\GB_LB_2.xlsx
28	main_safe	True	0.0	632	0	1.0	1.0	1.0	1	right	1.0	1.0	1.0	1	0.08	blockFiles/set_54/main_safe/leftBlue\GB_LB_2.xlsx
29	main_safe	True	0.0	632	0	1.0	1.0	0.0	1	left	2.0	0.0	1.0	0	-0.08	blockFiles/set_54/main_safe/leftBlue\GB_LB_2.xlsx
30	main_safe	True	0.0	632	0	1.0	1.0	1.0	1	right	1.0	1.0	1.0	1	0.08	blockFiles/set_54/main_safe/leftBlue\GB_LB_2.xlsx
31	main_safe	True	0.0	632	0	1.0	1.0	0.0	1	left	2.0	1.0	1.0	0	-0.08	blockFiles/set_54/main_safe/leftBlue\GB_LB_2.xlsx
32	main_safe	True	0.0	632	0	1.0	1.0	0.0	1	left	2.0	1.0	1.0	0	-0.08	blockFiles/set_54/main_safe/leftBlue\GB_LB_2.xlsx
33	main_safe	True	0.0	632	0	1.0	1.0	1.0	1	right	1.0	1.0	1.0	1	0.08	blockFiles/set_54/main_safe/leftBlue\GB_LB_2.xlsx
34	main_safe	True	0.0	632	0	1.0	1.0	0.0	1	left	2.0	1.0	1.0	0	-0.08	blockFiles/set_54/main_safe/leftBlue\GB_LB_2.xlsx
35	main_safe	True	0.0	632	0	1.0	1.0	0.0	1	left	2.0	1.0	1.0	0	-0.08	blockFiles/set_54/main_safe/leftBlue\GB_LB_2.xlsx
36	main_safe	True	0.0	632	0	1.0	1.0	0.0	1	left	2.0	1.0	1.0	0	-0.08	blockFiles/set_54/main_safe/leftBlue\GB_LB_2.xlsx
37	main_safe	True	0.0	632	0	1.0	1.0	0.0	1	left	2.0	0.0	1.0	0	-0.08	blockFiles/set_54/main_safe/leftBlue\GB_LB_2.xlsx
38	main_safe	True	0.0	632	0	1.0	1.0	0.0	1	left	2.0	1.0	1.0	0	-0.08	blockFiles/set_54/main_safe/leftBlue\GB_LB_2.xlsx
39	main_safe	True	0.0	632	0	1.0	1.0	0.0	1	left	2.0	1.0	1.0	0	-0.08	blockFiles/set_54/main_safe/leftBlue\GB_LB_2.xlsx
40	main_safe	True	0.0	632	0	1.0	1.0	1.0	1	right	1.0	1.0	1.0	1	0.08	blockFiles/set_54/main_safe/leftBlue\GB_LB_2.xlsx
41	main_safe	True	0.0	632	0	1.0	1.0	1.0	1	right	1.0	1.0	1.0	1	0.08	blockFiles/set_54/main_safe/leftBlue\GB_LB_2.xlsx
42	main_safe	True	0.0	632	0	1.0	1.0	1.0	1	right	1.0	1.0	1.0	1	0.08	blockFiles/set_54/main_safe/leftBlue\GB_LB_2.xlsx
43	main_safe	True	0.0	632	0	1.0	1.0	0.0	1	left	2.0	1.0	1.0	0	-0.08	blockFiles/set_54/main_safe/leftBlue\GB_LB_2.xlsx
44	main_safe	True	0.0	632	0	1.0	1.0	0.0	1	left	2.0	1.0	1.0	0	-0.08	blockFiles/set_54/main_safe/leftBlue\GB_LB_2.xlsx
45	main_safe	True	0.0	632	0	1.0	1.0	1.0	1	right	1.0	1.0	1.0	1	0.08	blockFiles/set_54/main_safe/leftBlue\GB_LB_2.xlsx
46	main_safe	True	0.0	632	0	1.0	1.0	1.0	1	right	1.0	0.0	1.0	1	0.08	blockFiles/set_54/main_safe/leftBlue\GB_LB_2.xlsx
47	main_safe	True	0.0	632	0	1.0	1.0	1.0	1	right	1.0	1.0	1.0	1	0.08	blockFiles/set_54/main_safe/leftBlue\GB_LB_2.xlsx
48	main_safe	True	0.0	632	0	1.0	1.0	1.0	1	right	1.0	1.0	1.0	1	0.08	blockFiles/set_54/main_safe/leftBlue\GB_LB_2.xlsx
49	main_safe	True	0.0	632	0	1.0	1.0	1.0	1	right	1.0	1.0	1.0	1	0.08	blockFiles/set_54/main_safe/leftBlue\GB_LB_2.xlsx
50	main_safe	True	0.0	632	0	1.0	1.0	0.0	1	left	2.0	0.0	1.0	0	-0.08	blockFiles/set_54/main_safe/leftBlue\GB_LB_2.xlsx
51	main_safe	True	0.0	632	0	2.0	2.0	1.0	1	right	2.0	1.0	1.0	1	0.08	blockFiles/set_54/main_safe/rightBlue\GB_RB_1.xlsx
52	main_safe	True	0.0	632	0	2.0	2.0	0.0	1	left	2.0	0.0	0.0	0	-0.08	blockFiles/set_54/main_safe/rightBlue\GB_RB_1.xlsx
53	main_safe	True	0.0	632	0	2.0	2.0	1.0	1	right	2.0	0.0	1.0	1	0.08	blockFiles/set_54/main_safe/rightBlue\GB_RB_1.xlsx
54	main_safe	True	0.0	632	0	2.0	2.0	0.0	1	left	2.0	0.0	0.0	0	-0.08	blockFiles/set_54/main_safe/rightBlue\GB_RB_1.xlsx
55	main_safe	True	0.0	632	0	2.0	2.0	0.0	1	left	2.0	0.0	0.0	0	-0.08	blockFiles/set_54/main_safe/rightBlue\GB_RB_1.xlsx
56	main_safe	True	0.0	632	0	2.0	2.0	1.0	1	right	2.0	1.0	1.0	1	0.08	blockFiles/set_54/main_safe/rightBlue\GB_RB_1.xlsx
57	main_safe	True	0.0	632	0	2.0	2.0	1.0	1	right	2.0	1.0	1.0	1	0.08	blockFiles/set_54/main_safe/rightBlue\GB_RB_1.xlsx
58	main_safe	True	0.0	632	0	2.0	2.0	1.0	1	right	2.0	1.0	1.0	1	0.08	blockFiles/set_54/main_safe/rightBlue\GB_RB_1.xlsx
59	main_safe	True	0.0	632	0	2.0	2.0	1.0	1	right	2.0	1.0	1.0	1	0.08	blockFiles/set_54/main_safe/rightBlue\GB_RB_1.xlsx
60	main_safe	True	0.0	632	0	2.0	2.0	0.0	1	left	1.0	1.0	1.0	0	-0.08	blockFiles/set_54/main_safe/rightBlue\GB_RB_1.xlsx
61	main_safe	True	0.0	632	0	2.0	2.0	1.0	1	right	2.0	1.0	1.0	1	0.08	blockFiles/set_54/main_safe/rightBlue\GB_RB_1.xlsx
62	main_safe	True	0.0	632	0	2.0	2.0	1.0	1	right	2.0	1.0	1.0	1	0.08	blockFiles/set_54/main_safe/rightBlue\GB_RB_1.xlsx
63	main_safe	True	0.0	632	0	2.0	2.0	0.0	1	left	1.0	1.0	1.0	0	-0.08	blockFiles/set_54/main_safe/rightBlue\GB_RB_1.xlsx
64	main_safe	True	0.0	632	0	2.0	2.0	0.0	1	left	1.0	1.0	1.0	0	-0.08	blockFiles/set_54/main_safe/rightBlue\GB_RB_1.xlsx
65	main_safe	True	0.0	632	0	2.0	2.0	1.0	1	right	2.0	1.0	1.0	1	0.08	blockFiles/set_54/main_safe/rightBlue\GB_RB_1.xlsx
66	main_safe	True	0.0	632	0	2.0	2.0	0.0	1	left	1.0	1.0	1.0	0	-0.08	blockFiles/set_54/main_safe/rightBlue\GB_RB_1.xlsx
67	main_safe	True	0.0	632	0	2.0	2.0	0.0	1	left	1.0	1.0	1.0	0	-0.08	blockFiles/set_54/main_safe/rightBlue\GB_RB_1.xlsx
68	main_safe	True	0.0	632	0	2.0	2.0	1.0	1	right	2.0	1.0	1.0	1	0.08	blockFiles/set_54/main_safe/rightBlue\GB_RB_1.xlsx
69	main_safe	True	0.0	632	0	2.0	2.0	1.0	1	right	2.0	0.0	1.0	1	0.08	blockFiles/set_54/main_safe/rightBlue\GB_RB_1.xlsx
70	main_safe	True	0.0	632	0	2.0	2.0	1.0	1	right	2.0	1.0	1.0	1	0.08	blockFiles/set_54/main_safe/rightBlue\GB_RB_1.xlsx
71	main_safe	True	0.0	632	0	2.0	2.0	0.0	1	left	1.0	1.0	1.0	0	-0.08	blockFiles/set_54/main_safe/rightBlue\GB_RB_1.xlsx
72	main_safe	True	0.0	632	0	2.0	2.0	0.0	1	left	1.0	0.0	1.0	0	-0.08	blockFiles/set_54/main_safe/rightBlue\GB_RB_1.xlsx
73	main_safe	True	0.0	632	0	2.0	2.0	1.0	1	right	2.0	1.0	1.0	1	0.08	blockFiles/set_54/main_safe/rightBlue\GB_RB_1.xlsx
74	main_safe	True	1.0	632	0	2.0	2.0	0.0	1	left	n/a	0.0	n/a	0	-0.08	blockFiles/set_54/main_safe/rightBlue\GB_RB_1.xlsx
75	main_safe	True	0.0	632	0	2.0	2.0	1.0	1	right	2.0	0.0	1.0	1	0.08	blockFiles/set_54/main_safe/rightBlue\GB_RB_1.xlsx
76	main_safe	True	0.0	632	0	2.0	2.0	0.0	1	left	1.0	1.0	1.0	0	-0.08	blockFiles/set_54/main_safe/rightBlue\GB_RB_1.xlsx
77	main_safe	True	0.0	632	0	3.0	3.0	0.0	1	left	2.0	0.0	0.0	0	-0.08	blockFiles/set_54/main_safe/rightBlue\GB_RB_3.xlsx
78	main_safe	True	0.0	632	0	3.0	3.0	0.0	1	left	2.0	0.0	0.0	0	-0.08	blockFiles/set_54/main_safe/rightBlue\GB_RB_3.xlsx
79	main_safe	True	0.0	632	0	3.0	3.0	1.0	1	right	2.0	1.0	1.0	1	0.08	blockFiles/set_54/main_safe/rightBlue\GB_RB_3.xlsx
80	main_safe	True	0.0	632	0	3.0	3.0	0.0	1	left	1.0	1.0	1.0	0	-0.08	blockFiles/set_54/main_safe/rightBlue\GB_RB_3.xlsx
81	main_safe	True	0.0	632	0	3.0	3.0	1.0	1	right	2.0	1.0	1.0	1	0.08	blockFiles/set_54/main_safe/rightBlue\GB_RB_3.xlsx
82	main_safe	True	0.0	632	0	3.0	3.0	1.0	1	right	2.0	1.0	1.0	1	0.08	blockFiles/set_54/main_safe/rightBlue\GB_RB_3.xlsx
83	main_safe	True	0.0	632	0	3.0	3.0	0.0	1	left	1.0	1.0	1.0	0	-0.08	blockFiles/set_54/main_safe/rightBlue\GB_RB_3.xlsx
84	main_safe	True	0.0	632	0	3.0	3.0	1.0	1	right	2.0	1.0	1.0	1	0.08	blockFiles/set_54/main_safe/rightBlue\GB_RB_3.xlsx
85	main_safe	True	1.0	632	0	3.0	3.0	0.0	1	left	n/a	0.0	n/a	0	-0.08	blockFiles/set_54/main_safe/rightBlue\GB_RB_3.xlsx
86	main_safe	True	0.0	632	0	3.0	3.0	1.0	1	right	2.0	1.0	1.0	1	0.08	blockFiles/set_54/main_safe/rightBlue\GB_RB_3.xlsx
87	main_safe	True	0.0	632	0	3.0	3.0	1.0	1	right	2.0	1.0	1.0	1	0.08	blockFiles/set_54/main_safe/rightBlue\GB_RB_3.xlsx
88	main_safe	True	0.0	632	0	3.0	3.0	1.0	1	right	2.0	1.0	1.0	1	0.08	blockFiles/set_54/main_safe/rightBlue\GB_RB_3.xlsx
89	main_safe	True	0.0	632	0	3.0	3.0	0.0	1	left	1.0	1.0	1.0	0	-0.08	blockFiles/set_54/main_safe/rightBlue\GB_RB_3.xlsx
90	main_safe	True	0.0	632	0	3.0	3.0	1.0	1	right	2.0	1.0	1.0	1	0.08	blockFiles/set_54/main_safe/rightBlue\GB_RB_3.xlsx
91	main_safe	True	0.0	632	0	3.0	3.0	1.0	1	right	2.0	0.0	1.0	1	0.08	blockFiles/set_54/main_safe/rightBlue\GB_RB_3.xlsx
92	main_safe	True	0.0	632	0	3.0	3.0	0.0	1	left	1.0	1.0	1.0	0	-0.08	blockFiles/set_54/main_safe/rightBlue\GB_RB_3.xlsx
93	main_safe	True	0.0	632	0	3.0	3.0	0.0	1	left	1.0	1.0	1.0	0	-0.08	blockFiles/set_54/main_safe/rightBlue\GB_RB_3.xlsx
94	main_safe	True	0.0	632	0	3.0	3.0	1.0	1	right	2.0	1.0	1.0	1	0.08	blockFiles/set_54/main_safe/rightBlue\GB_RB_3.xlsx
95	main_safe	True	0.0	632	0	3.0	3.0	1.0	1	right	2.0	0.0	1.0	1	0.08	blockFiles/set_54/main_safe/rightBlue\GB_RB_3.xlsx
96	main_safe	True	0.0	632	0	3.0	3.0	0.0	1	left	1.0	1.0	1.0	0	-0.08	blockFiles/set_54/main_safe/rightBlue\GB_RB_3.xlsx
97	main_safe	True	0.0	632	0	3.0	3.0	0.0	1	left	1.0	1.0	1.0	0	-0.08	blockFiles/set_54/main_safe/rightBlue\GB_RB_3.xlsx
98	main_safe	True	0.0	632	0	3.0	3.0	0.0	1	left	1.0	0.0	1.0	0	-0.08	blockFiles/set_54/main_safe/rightBlue\GB_RB_3.xlsx
99	main_safe	True	0.0	632	0	3.0	3.0	1.0	1	right	2.0	0.0	1.0	1	0.08	blockFiles/set_54/main_safe/rightBlue\GB_RB_3.xlsx
100	main_safe	True	0.0	632	0	3.0	3.0	0.0	1	left	1.0	1.0	1.0	0	-0.08	blockFiles/set_54/main_safe/rightBlue\GB_RB_3.xlsx
101	main_safe	True	0.0	632	0	3.0	3.0	0.0	1	left	1.0	1.0	1.0	0	-0.08	blockFiles/set_54/main_safe/rightBlue\GB_RB_3.xlsx
102	main_safe	True	0.0	632	0	3.0	3.0	0.0	1	left	1.0	0.0	1.0	0	-0.08	blockFiles/set_54/main_safe/rightBlue\GB_RB_3.xlsx
103	main_safe	True	0.0	632	0	4.0	4.0	0.0	1	left	1.0	1.0	0.0	0	-0.08	blockFiles/set_54/main_safe/leftBlue\GB_LB_1.xlsx
104	main_safe	True	0.0	632	0	4.0	4.0	0.0	1	left	1.0	0.0	0.0	0	-0.08	blockFiles/set_54/main_safe/leftBlue\GB_LB_1.xlsx
105	main_safe	True	0.0	632	0	4.0	4.0	0.0	1	left	1.0	1.0	0.0	0	-0.08	blockFiles/set_54/main_safe/leftBlue\GB_LB_1.xlsx
106	main_safe	True	0.0	632	0	4.0	4.0	1.0	1	right	2.0	1.0	0.0	1	0.08	blockFiles/set_54/main_safe/leftBlue\GB_LB_1.xlsx
107	main_safe	True	0.0	632	0	4.0	4.0	0.0	1	left	1.0	0.0	0.0	0	-0.08	blockFiles/set_54/main_safe/leftBlue\GB_LB_1.xlsx
108	main_safe	True	0.0	632	0	4.0	4.0	0.0	1	left	1.0	0.0	0.0	0	-0.08	blockFiles/set_54/main_safe/leftBlue\GB_LB_1.xlsx
109	main_safe	True	0.0	632	0	4.0	4.0	1.0	1	right	1.0	1.0	1.0	1	0.08	blockFiles/set_54/main_safe/leftBlue\GB_LB_1.xlsx
110	main_safe	True	0.0	632	0	4.0	4.0	1.0	1	right	1.0	1.0	1.0	1	0.08	blockFiles/set_54/main_safe/leftBlue\GB_LB_1.xlsx
111	main_safe	True	0.0	632	0	4.0	4.0	1.0	1	right	1.0	1.0	1.0	1	0.08	blockFiles/set_54/main_safe/leftBlue\GB_LB_1.xlsx
112	main_safe	True	0.0	632	0	4.0	4.0	0.0	1	left	2.0	1.0	1.0	0	-0.08	blockFiles/set_54/main_safe/leftBlue\GB_LB_1.xlsx
113	main_safe	True	0.0	632	0	4.0	4.0	0.0	1	left	2.0	1.0	1.0	0	-0.08	blockFiles/set_54/main_safe/leftBlue\GB_LB_1.xlsx
114	main_safe	True	0.0	632	0	4.0	4.0	0.0	1	left	2.0	1.0	1.0	0	-0.08	blockFiles/set_54/main_safe/leftBlue\GB_LB_1.xlsx
115	main_safe	True	0.0	632	0	4.0	4.0	0.0	1	left	2.0	1.0	1.0	0	-0.08	blockFiles/set_54/main_safe/leftBlue\GB_LB_1.xlsx
116	main_safe	True	0.0	632	0	4.0	4.0	1.0	1	right	1.0	1.0	1.0	1	0.08	blockFiles/set_54/main_safe/leftBlue\GB_LB_1.xlsx
117	main_safe	True	0.0	632	0	4.0	4.0	1.0	1	right	1.0	1.0	1.0	1	0.08	blockFiles/set_54/main_safe/leftBlue\GB_LB_1.xlsx
118	main_safe	True	0.0	632	0	4.0	4.0	0.0	1	left	2.0	1.0	1.0	0	-0.08	blockFiles/set_54/main_safe/leftBlue\GB_LB_1.xlsx
119	main_safe	True	0.0	632	0	4.0	4.0	0.0	1	left	2.0	0.0	1.0	0	-0.08	blockFiles/set_54/main_safe/leftBlue\GB_LB_1.xlsx
120	main_safe	True	0.0	632	0	4.0	4.0	1.0	1	right	1.0	1.0	1.0	1	0.08	blockFiles/set_54/main_safe/leftBlue\GB_LB_1.xlsx
121	main_safe	True	0.0	632	0	4.0	4.0	1.0	1	right	1.0	0.0	1.0	1	0.08	blockFiles/set_54/main_safe/leftBlue\GB_LB_1.xlsx
122	main_safe	True	0.0	632	0	4.0	4.0	0.0	1	left	2.0	1.0	1.0	0	-0.08	blockFiles/set_54/main_safe/leftBlue\GB_LB_1.xlsx
123	main_safe	True	0.0	632	0	4.0	4.0	1.0	1	right	1.0	0.0	1.0	1	0.08	blockFiles/set_54/main_safe/leftBlue\GB_LB_1.xlsx
124	main_safe	True	0.0	632	0	4.0	4.0	1.0	1	right	1.0	1.0	1.0	1	0.08	blockFiles/set_54/main_safe/leftBlue\GB_LB_1.xlsx
125	main_safe	True	0.0	632	0	4.0	4.0	1.0	1	right	1.0	1.0	1.0	1	0.08	blockFiles/set_54/main_safe/leftBlue\GB_LB_1.xlsx
126	main_safe	True	0.0	632	0	4.0	4.0	0.0	1	left	2.0	1.0	1.0	0	-0.08	blockFiles/set_54/main_safe/leftBlue\GB_LB_1.xlsx
127	main_safe	True	1.0	632	0	4.0	4.0	1.0	1	right	n/a	0.0	n/a	1	0.08	blockFiles/set_54/main_safe/leftBlue\GB_LB_1.xlsx
128	main_safe	True	0.0	632	0	4.0	4.0	1.0	1	right	1.0	1.0	1.0	1	0.08	blockFiles/set_54/main_safe/leftBlue\GB_LB_1.xlsx
129	main_safe	True	0.0	632	0	5.0	5.0	0.0	1	left	2.0	0.0	0.0	0	-0.08	blockFiles/set_54/main_safe/rightBlue\GB_RB_2.xlsx
130	main_safe	True	0.0	632	0	5.0	5.0	1.0	1	right	2.0	1.0	1.0	1	0.08	blockFiles/set_54/main_safe/rightBlue\GB_RB_2.xlsx
131	main_safe	True	0.0	632	0	5.0	5.0	1.0	1	right	2.0	1.0	1.0	1	0.08	blockFiles/set_54/main_safe/rightBlue\GB_RB_2.xlsx
132	main_safe	True	0.0	632	0	5.0	5.0	1.0	1	right	2.0	0.0	1.0	1	0.08	blockFiles/set_54/main_safe/rightBlue\GB_RB_2.xlsx
133	main_safe	True	0.0	632	0	5.0	5.0	1.0	1	right	2.0	1.0	1.0	1	0.08	blockFiles/set_54/main_safe/rightBlue\GB_RB_2.xlsx
134	main_safe	True	0.0	632	0	5.0	5.0	0.0	1	left	1.0	1.0	1.0	0	-0.08	blockFiles/set_54/main_safe/rightBlue\GB_RB_2.xlsx
135	main_safe	True	0.0	632	0	5.0	5.0	0.0	1	left	1.0	1.0	1.0	0	-0.08	blockFiles/set_54/main_safe/rightBlue\GB_RB_2.xlsx
136	main_safe	True	0.0	632	0	5.0	5.0	0.0	1	left	1.0	1.0	1.0	0	-0.08	blockFiles/set_54/main_safe/rightBlue\GB_RB_2.xlsx
137	main_safe	True	0.0	632	0	5.0	5.0	1.0	1	right	2.0	1.0	1.0	1	0.08	blockFiles/set_54/main_safe/rightBlue\GB_RB_2.xlsx
138	main_safe	True	0.0	632	0	5.0	5.0	0.0	1	left	1.0	1.0	1.0	0	-0.08	blockFiles/set_54/main_safe/rightBlue\GB_RB_2.xlsx
139	main_safe	True	0.0	632	0	5.0	5.0	1.0	1	right	2.0	1.0	1.0	1	0.08	blockFiles/set_54/main_safe/rightBlue\GB_RB_2.xlsx
140	main_safe	True	0.0	632	0	5.0	5.0	1.0	1	right	2.0	1.0	1.0	1	0.08	blockFiles/set_54/main_safe/rightBlue\GB_RB_2.xlsx
141	main_safe	True	0.0	632	0	5.0	5.0	0.0	1	left	1.0	0.0	1.0	0	-0.08	blockFiles/set_54/main_safe/rightBlue\GB_RB_2.xlsx
142	main_safe	True	0.0	632	0	5.0	5.0	1.0	1	right	2.0	1.0	1.0	1	0.08	blockFiles/set_54/main_safe/rightBlue\GB_RB_2.xlsx
143	main_safe	True	0.0	632	0	5.0	5.0	0.0	1	left	1.0	1.0	1.0	0	-0.08	blockFiles/set_54/main_safe/rightBlue\GB_RB_2.xlsx
144	main_safe	True	0.0	632	0	5.0	5.0	1.0	1	right	2.0	0.0	1.0	1	0.08	blockFiles/set_54/main_safe/rightBlue\GB_RB_2.xlsx
145	main_safe	True	1.0	632	0	5.0	5.0	1.0	1	right	n/a	0.0	n/a	1	0.08	blockFiles/set_54/main_safe/rightBlue\GB_RB_2.xlsx
146	main_safe	True	0.0	632	0	5.0	5.0	0.0	1	left	1.0	0.0	1.0	0	-0.08	blockFiles/set_54/main_safe/rightBlue\GB_RB_2.xlsx
147	main_safe	True	0.0	632	0	5.0	5.0	1.0	1	right	2.0	1.0	1.0	1	0.08	blockFiles/set_54/main_safe/rightBlue\GB_RB_2.xlsx
148	main_safe	True	0.0	632	0	5.0	5.0	0.0	1	left	1.0	1.0	1.0	0	-0.08	blockFiles/set_54/main_safe/rightBlue\GB_RB_2.xlsx
149	main_safe	True	1.0	632	0	5.0	5.0	0.0	1	left	n/a	0.0	n/a	0	-0.08	blockFiles/set_54/main_safe/rightBlue\GB_RB_2.xlsx
150	main_safe	True	0.0	632	0	5.0	5.0	0.0	1	left	1.0	1.0	1.0	0	-0.08	blockFiles/set_54/main_safe/rightBlue\GB_RB_2.xlsx
151	main_safe	True	0.0	632	0	5.0	5.0	0.0	1	left	1.0	1.0	1.0	0	-0.08	blockFiles/set_54/main_safe/rightBlue\GB_RB_2.xlsx
152	main_safe	True	0.0	632	0	5.0	5.0	1.0	1	right	2.0	1.0	1.0	1	0.08	blockFiles/set_54/main_safe/rightBlue\GB_RB_2.xlsx
153	main_safe	True	0.0	632	0	5.0	5.0	1.0	1	right	2.0	1.0	1.0	1	0.08	blockFiles/set_54/main_safe/rightBlue\GB_RB_2.xlsx
154	main_safe	True	0.0	632	0	5.0	5.0	1.0	1	right	2.0	1.0	1.0	1	0.08	blockFiles/set_54/main_safe/rightBlue\GB_RB_2.xlsx
155	main_safe	True	0.0	632	0	5.0	5.0	0.0	1	left	1.0	1.0	1.0	0	-0.08	blockFiles/set_54/main_safe/rightBlue\GB_RB_2.xlsx
156	patches	True	n/a	632	0	n/a	n/a	0.0	0	left	n/a	n/a	n/a	1	0.0158633905463	blockFiles/set_54/main_PD/GB_runPatches1.xlsx
157	patches	True	n/a	632	0	n/a	n/a	n/a	0	None	n/a	n/a	n/a	1	0.0234875054657	blockFiles/set_54/main_PD/GB_runPatches1.xlsx
158	patches	True	n/a	632	0	n/a	n/a	1.0	1	right	n/a	n/a	n/a	1	0.04492252161730001	blockFiles/set_54/main_PD/GB_runPatches1.xlsx
159	patches	True	n/a	632	0	n/a	n/a	1.0	1	right	n/a	n/a	n/a	1	0.0273616139404	blockFiles/set_54/main_PD/GB_runPatches1.xlsx
160	patches	True	n/a	632	0	n/a	n/a	0.0	1	left	n/a	n/a	n/a	0	-0.012223504930700001	blockFiles/set_54/main_PD/GB_runPatches1.xlsx
161	patches	True	n/a	632	0	n/a	n/a	0.0	1	left	n/a	n/a	n/a	0	-0.0157401895896	blockFiles/set_54/main_PD/GB_runPatches1.xlsx
162	patches	True	n/a	632	0	n/a	n/a	0.0	0	left	n/a	n/a	n/a	1	0.0420428354852	blockFiles/set_54/main_PD/GB_runPatches1.xlsx
163	patches	True	n/a	632	0	n/a	n/a	1.0	1	right	n/a	n/a	n/a	1	0.0589497089013	blockFiles/set_54/main_PD/GB_runPatches1.xlsx
164	patches	True	n/a	632	0	n/a	n/a	1.0	1	right	n/a	n/a	n/a	1	0.062281747143699995	blockFiles/set_54/main_PD/GB_runPatches1.xlsx
165	patches	True	n/a	632	0	n/a	n/a	1.0	1	right	n/a	n/a	n/a	1	0.0029119586758299997	blockFiles/set_54/main_PD/GB_runPatches1.xlsx
166	patches	True	n/a	632	0	n/a	n/a	1.0	1	right	n/a	n/a	n/a	1	0.030583523996200002	blockFiles/set_54/main_PD/GB_runPatches1.xlsx
167	patches	True	n/a	632	0	n/a	n/a	1.0	1	right	n/a	n/a	n/a	1	0.0695419006422	blockFiles/set_54/main_PD/GB_runPatches1.xlsx
168	patches	True	n/a	632	0	n/a	n/a	1.0	0	right	n/a	n/a	n/a	0	-0.00504039077088	blockFiles/set_54/main_PD/GB_runPatches1.xlsx
169	patches	True	n/a	632	0	n/a	n/a	1.0	1	right	n/a	n/a	n/a	1	0.0737882930785	blockFiles/set_54/main_PD/GB_runPatches1.xlsx
170	patches	True	n/a	632	0	n/a	n/a	0.0	1	left	n/a	n/a	n/a	0	-0.0063399730250200004	blockFiles/set_54/main_PD/GB_runPatches1.xlsx
171	patches	True	n/a	632	0	n/a	n/a	0.0	1	left	n/a	n/a	n/a	0	-0.031841408927	blockFiles/set_54/main_PD/GB_runPatches1.xlsx
172	patches	True	n/a	632	0	n/a	n/a	0.0	1	left	n/a	n/a	n/a	0	-0.020153039135000002	blockFiles/set_54/main_PD/GB_runPatches1.xlsx
173	patches	True	n/a	632	0	n/a	n/a	0.0	1	left	n/a	n/a	n/a	0	-0.07858764074739999	blockFiles/set_54/main_PD/GB_runPatches1.xlsx
174	patches	True	n/a	632	0	n/a	n/a	0.0	0	left	n/a	n/a	n/a	1	0.0403653533384	blockFiles/set_54/main_PD/GB_runPatches1.xlsx
175	patches	True	n/a	632	0	n/a	n/a	0.0	1	left	n/a	n/a	n/a	0	-0.0779819588177	blockFiles/set_54/main_PD/GB_runPatches1.xlsx
176	patches	True	n/a	632	0	n/a	n/a	1.0	1	right	n/a	n/a	n/a	1	0.06818819139150001	blockFiles/set_54/main_PD/GB_runPatches1.xlsx
177	patches	True	n/a	632	0	n/a	n/a	0.0	1	left	n/a	n/a	n/a	0	-0.011669166330200001	blockFiles/set_54/main_PD/GB_runPatches1.xlsx
178	patches	True	n/a	632	0	n/a	n/a	n/a	0	None	n/a	n/a	n/a	0	-0.0332937786169	blockFiles/set_54/main_PD/GB_runPatches1.xlsx
179	patches	True	n/a	632	0	n/a	n/a	0.0	1	left	n/a	n/a	n/a	0	-0.044616850577300006	blockFiles/set_54/main_PD/GB_runPatches1.xlsx
180	patches	True	n/a	632	0	n/a	n/a	1.0	1	right	n/a	n/a	n/a	1	0.00925229312852	blockFiles/set_54/main_PD/GB_runPatches1.xlsx
181	patches	True	n/a	632	0	n/a	n/a	1.0	1	right	n/a	n/a	n/a	1	0.0444141202979	blockFiles/set_54/main_PD/GB_runPatches1.xlsx
182	patches	True	n/a	632	0	n/a	n/a	0.0	1	left	n/a	n/a	n/a	0	-0.0579420726746	blockFiles/set_54/main_PD/GB_runPatches1.xlsx
183	patches	True	n/a	632	0	n/a	n/a	0.0	1	left	n/a	n/a	n/a	0	-0.0466073393822	blockFiles/set_54/main_PD/GB_runPatches1.xlsx
184	patches	True	n/a	632	0	n/a	n/a	0.0	1	left	n/a	n/a	n/a	0	-0.010522773675599999	blockFiles/set_54/main_PD/GB_runPatches1.xlsx
185	patches	True	n/a	632	0	n/a	n/a	1.0	1	right	n/a	n/a	n/a	1	0.07853293331339999	blockFiles/set_54/main_PD/GB_runPatches1.xlsx
186	patches	True	n/a	632	0	n/a	n/a	0.0	1	left	n/a	n/a	n/a	0	-0.0702230015025	blockFiles/set_54/main_PD/GB_runPatches1.xlsx
187	patches	True	n/a	632	0	n/a	n/a	0.0	1	left	n/a	n/a	n/a	0	-0.0350839750096	blockFiles/set_54/main_PD/GB_runPatches1.xlsx
188	patches	True	n/a	632	0	n/a	n/a	1.0	1	right	n/a	n/a	n/a	1	0.00476632654667	blockFiles/set_54/main_PD/GB_runPatches1.xlsx
189	patches	True	n/a	632	0	n/a	n/a	0.0	1	left	n/a	n/a	n/a	0	-0.071871262081	blockFiles/set_54/main_PD/GB_runPatches1.xlsx
190	patches	True	n/a	632	0	n/a	n/a	1.0	1	right	n/a	n/a	n/a	1	0.0623166115396	blockFiles/set_54/main_PD/GB_runPatches1.xlsx
191	patches	True	n/a	632	0	n/a	n/a	1.0	1	right	n/a	n/a	n/a	1	0.031726463977200005	blockFiles/set_54/main_PD/GB_runPatches1.xlsx
192	patches	True	n/a	632	0	n/a	n/a	1.0	0	right	n/a	n/a	n/a	0	-0.024156069066400002	blockFiles/set_54/main_PD/GB_runPatches1.xlsx
193	patches	True	n/a	632	0	n/a	n/a	0.0	1	left	n/a	n/a	n/a	0	-0.053079387359300005	blockFiles/set_54/main_PD/GB_runPatches1.xlsx
194	patches	True	n/a	632	0	n/a	n/a	1.0	0	right	n/a	n/a	n/a	0	-0.0322622905672	blockFiles/set_54/main_PD/GB_runPatches1.xlsx
195	patches	True	n/a	632	0	n/a	n/a	0.0	1	left	n/a	n/a	n/a	0	-0.051701561622299996	blockFiles/set_54/main_PD/GB_runPatches1.xlsx
196	patches	True	n/a	632	0	n/a	n/a	1.0	1	right	n/a	n/a	n/a	1	0.0338550420664	blockFiles/set_54/main_PD/GB_runPatches1.xlsx
197	patches	True	n/a	632	0	n/a	n/a	1.0	0	right	n/a	n/a	n/a	0	-0.028935554940299996	blockFiles/set_54/main_PD/GB_runPatches1.xlsx
198	patches	True	n/a	632	0	n/a	n/a	0.0	1	left	n/a	n/a	n/a	0	-0.022212639097099997	blockFiles/set_54/main_PD/GB_runPatches1.xlsx
199	patches	True	n/a	632	0	n/a	n/a	0.0	1	left	n/a	n/a	n/a	0	-0.073857599888	blockFiles/set_54/main_PD/GB_runPatches1.xlsx
200	patches	True	n/a	632	0	n/a	n/a	0.0	1	left	n/a	n/a	n/a	0	-0.0316470254958	blockFiles/set_54/main_PD/GB_runPatches1.xlsx
201	patches	True	n/a	632	0	n/a	n/a	1.0	1	right	n/a	n/a	n/a	1	0.0350927504711	blockFiles/set_54/main_PD/GB_runPatches1.xlsx
202	patches	True	n/a	632	0	n/a	n/a	1.0	1	right	n/a	n/a	n/a	1	0.047821028679599996	blockFiles/set_54/main_PD/GB_runPatches1.xlsx
203	patches	True	n/a	632	0	n/a	n/a	0.0	0	left	n/a	n/a	n/a	1	0.0006407368369400001	blockFiles/set_54/main_PD/GB_runPatches1.xlsx
204	patches	True	n/a	632	0	n/a	n/a	1.0	1	right	n/a	n/a	n/a	1	0.07428589275110001	blockFiles/set_54/main_PD/GB_runPatches1.xlsx
205	patches	True	n/a	632	0	n/a	n/a	1.0	1	right	n/a	n/a	n/a	1	0.0724596316554	blockFiles/set_54/main_PD/GB_runPatches1.xlsx
206	patches	True	n/a	632	0	n/a	n/a	n/a	0	None	n/a	n/a	n/a	0	-0.009815901443360002	blockFiles/set_54/main_PD/GB_runPatches1.xlsx
207	patches	True	n/a	632	0	n/a	n/a	1.0	1	right	n/a	n/a	n/a	1	0.0654430164769	blockFiles/set_54/main_PD/GB_runPatches1.xlsx
208	patches	True	n/a	632	0	n/a	n/a	1.0	1	right	n/a	n/a	n/a	1	0.0658333991654	blockFiles/set_54/main_PD/GB_runPatches1.xlsx
209	patches	True	n/a	632	0	n/a	n/a	0.0	1	left	n/a	n/a	n/a	0	-0.0484681645595	blockFiles/set_54/main_PD/GB_runPatches1.xlsx
210	patches	True	n/a	632	0	n/a	n/a	0.0	1	left	n/a	n/a	n/a	0	-0.0181204584055	blockFiles/set_54/main_PD/GB_runPatches1.xlsx
211	patches	True	n/a	632	0	n/a	n/a	0.0	1	left	n/a	n/a	n/a	0	-0.0142779482529	blockFiles/set_54/main_PD/GB_runPatches1.xlsx
212	patches	True	n/a	632	0	n/a	n/a	1.0	1	right	n/a	n/a	n/a	1	0.0516519514471	blockFiles/set_54/main_PD/GB_runPatches1.xlsx
213	patches	True	n/a	632	0	n/a	n/a	1.0	1	right	n/a	n/a	n/a	1	0.06275386016819999	blockFiles/set_54/main_PD/GB_runPatches1.xlsx
214	patches	True	n/a	632	0	n/a	n/a	0.0	1	left	n/a	n/a	n/a	0	-0.0265858948044	blockFiles/set_54/main_PD/GB_runPatches1.xlsx
215	patches	True	n/a	632	0	n/a	n/a	1.0	1	right	n/a	n/a	n/a	1	0.0446967164613	blockFiles/set_54/main_PD/GB_runPatches1.xlsx
216	patches	True	n/a	632	0	n/a	n/a	0.0	1	left	n/a	n/a	n/a	0	-0.0766157366335	blockFiles/set_54/main_PD/GB_runPatches1.xlsx
217	patches	True	n/a	632	0	n/a	n/a	1.0	1	right	n/a	n/a	n/a	1	0.014177004192	blockFiles/set_54/main_PD/GB_runPatches1.xlsx
218	patches	True	n/a	632	0	n/a	n/a	1.0	1	right	n/a	n/a	n/a	1	0.0106170387194	blockFiles/set_54/main_PD/GB_runPatches1.xlsx
219	patches	True	n/a	632	0	n/a	n/a	0.0	1	left	n/a	n/a	n/a	0	-0.0730964703485	blockFiles/set_54/main_PD/GB_runPatches1.xlsx
220	patches	True	n/a	632	0	n/a	n/a	0.0	1	left	n/a	n/a	n/a	0	-0.000943146795034	blockFiles/set_54/main_PD/GB_runPatches1.xlsx
221	patches	True	n/a	632	0	n/a	n/a	0.0	1	left	n/a	n/a	n/a	0	-0.0517289548181	blockFiles/set_54/main_PD/GB_runPatches1.xlsx
222	patches	True	n/a	632	0	n/a	n/a	1.0	1	right	n/a	n/a	n/a	1	0.066876557041	blockFiles/set_54/main_PD/GB_runPatches1.xlsx
223	patches	True	n/a	632	0	n/a	n/a	0.0	0	left	n/a	n/a	n/a	1	0.0426146470383	blockFiles/set_54/main_PD/GB_runPatches1.xlsx
224	patches	True	n/a	632	0	n/a	n/a	0.0	1	left	n/a	n/a	n/a	0	-0.025192131847099997	blockFiles/set_54/main_PD/GB_runPatches1.xlsx
225	patches	True	n/a	632	0	n/a	n/a	1.0	0	right	n/a	n/a	n/a	0	-0.0321719837375	blockFiles/set_54/main_PD/GB_runPatches1.xlsx
226	patches	True	n/a	632	0	n/a	n/a	0.0	1	left	n/a	n/a	n/a	0	-0.057784459088000006	blockFiles/set_54/main_PD/GB_runPatches1.xlsx
227	patches	True	n/a	632	0	n/a	n/a	0.0	0	left	n/a	n/a	n/a	1	0.0431623670645	blockFiles/set_54/main_PD/GB_runPatches1.xlsx
228	patches	True	n/a	632	0	n/a	n/a	1.0	1	right	n/a	n/a	n/a	1	0.035695481095500005	blockFiles/set_54/main_PD/GB_runPatches1.xlsx
229	patches	True	n/a	632	0	n/a	n/a	0.0	1	left	n/a	n/a	n/a	0	-0.0274337259308	blockFiles/set_54/main_PD/GB_runPatches1.xlsx
230	patches	True	n/a	632	0	n/a	n/a	1.0	1	right	n/a	n/a	n/a	1	0.0498784312978	blockFiles/set_54/main_PD/GB_runPatches1.xlsx
231	patches	True	n/a	632	0	n/a	n/a	0.0	1	left	n/a	n/a	n/a	0	-0.044483629465100004	blockFiles/set_54/main_PD/GB_runPatches1.xlsx
232	patches	True	n/a	632	0	n/a	n/a	1.0	0	right	n/a	n/a	n/a	0	-0.00592850035056	blockFiles/set_54/main_PD/GB_runPatches1.xlsx
233	patches	True	n/a	632	0	n/a	n/a	0.0	0	left	n/a	n/a	n/a	1	0.0269310152158	blockFiles/set_54/main_PD/GB_runPatches1.xlsx
234	patches	True	n/a	632	0	n/a	n/a	n/a	0	None	n/a	n/a	n/a	0	-0.020105921514299997	blockFiles/set_54/main_PD/GB_runPatches1.xlsx
235	patches	True	n/a	632	0	n/a	n/a	1.0	1	right	n/a	n/a	n/a	1	0.0748283538409	blockFiles/set_54/main_PD/GB_runPatches1.xlsx
236	patches	True	n/a	632	0	n/a	n/a	0.0	1	left	n/a	n/a	n/a	0	-0.0700484561548	blockFiles/set_54/main_PD/GB_runPatches1.xlsx
237	patches	True	n/a	632	0	n/a	n/a	1.0	1	right	n/a	n/a	n/a	1	0.020006906464700002	blockFiles/set_54/main_PD/GB_runPatches1.xlsx
238	patches	True	n/a	632	0	n/a	n/a	0.0	1	left	n/a	n/a	n/a	0	-0.014320360682899998	blockFiles/set_54/main_PD/GB_runPatches1.xlsx
239	patches	True	n/a	632	0	n/a	n/a	1.0	1	right	n/a	n/a	n/a	1	0.0490226441436	blockFiles/set_54/main_PD/GB_runPatches1.xlsx
240	patches	True	n/a	632	0	n/a	n/a	1.0	1	right	n/a	n/a	n/a	1	0.00701142549515	blockFiles/set_54/main_PD/GB_runPatches1.xlsx
241	patches	True	n/a	632	0	n/a	n/a	1.0	1	right	n/a	n/a	n/a	1	0.0714004963636	blockFiles/set_54/main_PD/GB_runPatches1.xlsx
242	patches	True	n/a	632	0	n/a	n/a	0.0	1	left	n/a	n/a	n/a	0	-0.022623247448400004	blockFiles/set_54/main_PD/GB_runPatches1.xlsx
243	patches	True	n/a	632	0	n/a	n/a	1.0	1	right	n/a	n/a	n/a	1	0.0693868217617	blockFiles/set_54/main_PD/GB_runPatches1.xlsx
244	patches	True	n/a	632	0	n/a	n/a	0.0	1	left	n/a	n/a	n/a	0	-0.013038851805	blockFiles/set_54/main_PD/GB_runPatches1.xlsx
245	patches	True	n/a	632	0	n/a	n/a	1.0	1	right	n/a	n/a	n/a	1	0.0753162765317	blockFiles/set_54/main_PD/GB_runPatches1.xlsx
246	patches	True	n/a	632	0	n/a	n/a	1.0	0	right	n/a	n/a	n/a	0	-0.028407897707099998	blockFiles/set_54/main_PD/GB_runPatches1.xlsx
247	patches	True	n/a	632	0	n/a	n/a	0.0	1	left	n/a	n/a	n/a	0	-0.00216456767172	blockFiles/set_54/main_PD/GB_runPatches1.xlsx
248	patches	True	n/a	632	0	n/a	n/a	1.0	1	right	n/a	n/a	n/a	1	0.042573827542399995	blockFiles/set_54/main_PD/GB_runPatches1.xlsx
249	patches	True	n/a	632	0	n/a	n/a	0.0	1	left	n/a	n/a	n/a	0	-0.0765049863607	blockFiles/set_54/main_PD/GB_runPatches1.xlsx
250	patches	True	n/a	632	0	n/a	n/a	1.0	1	right	n/a	n/a	n/a	1	0.0121871512756	blockFiles/set_54/main_PD/GB_runPatches1.xlsx
251	patches	True	n/a	632	0	n/a	n/a	1.0	1	right	n/a	n/a	n/a	1	0.028422851916400003	blockFiles/set_54/main_PD/GB_runPatches1.xlsx
252	patches	True	n/a	632	0	n/a	n/a	0.0	1	left	n/a	n/a	n/a	0	-0.04902113782240001	blockFiles/set_54/main_PD/GB_runPatches1.xlsx
253	patches	True	n/a	632	0	n/a	n/a	0.0	1	left	n/a	n/a	n/a	0	-0.0104564605094	blockFiles/set_54/main_PD/GB_runPatches1.xlsx
254	patches	True	n/a	632	0	n/a	n/a	0.0	0	left	n/a	n/a	n/a	1	0.034631621278800005	blockFiles/set_54/main_PD/GB_runPatches1.xlsx
255	patches	True	n/a	632	0	n/a	n/a	1.0	1	right	n/a	n/a	n/a	1	0.050236289259	blockFiles/set_54/main_PD/GB_runPatches1.xlsx
256	main_unc	True	0.0	632	0	0.0	0.0	1.0	1	right	2.0	0.0	0.0	1	0.07269009249280001	blockFiles/set_54/main_unc/leftBlue\GB_LB_4.xlsx
257	main_unc	True	0.0	632	0	0.0	0.0	0.0	1	left	1.0	0.0	0.0	0	-0.0796696953662	blockFiles/set_54/main_unc/leftBlue\GB_LB_4.xlsx
258	main_unc	True	1.0	632	0	0.0	0.0	n/a	0	None	n/a	0.0	n/a	0	-0.00685282355174	blockFiles/set_54/main_unc/leftBlue\GB_LB_4.xlsx
259	main_unc	True	0.0	632	0	0.0	0.0	0.0	1	left	2.0	1.0	1.0	0	-0.0483679184131	blockFiles/set_54/main_unc/leftBlue\GB_LB_4.xlsx
260	main_unc	True	0.0	632	0	0.0	0.0	0.0	1	left	2.0	1.0	1.0	0	-0.037240866757900004	blockFiles/set_54/main_unc/leftBlue\GB_LB_4.xlsx
261	main_unc	True	0.0	632	0	0.0	0.0	0.0	1	left	2.0	1.0	1.0	0	-0.0396057061851	blockFiles/set_54/main_unc/leftBlue\GB_LB_4.xlsx
262	main_unc	True	1.0	632	0	0.0	0.0	n/a	0	None	n/a	0.0	n/a	0	-0.0120233912766	blockFiles/set_54/main_unc/leftBlue\GB_LB_4.xlsx
263	main_unc	True	0.0	632	0	0.0	0.0	1.0	1	right	1.0	1.0	1.0	1	0.0247563715465	blockFiles/set_54/main_unc/leftBlue\GB_LB_4.xlsx
264	main_unc	True	0.0	632	0	0.0	0.0	1.0	0	right	1.0	0.0	0.0	0	-0.00840370018035	blockFiles/set_54/main_unc/leftBlue\GB_LB_4.xlsx
265	main_unc	True	0.0	632	0	0.0	0.0	0.0	1	left	2.0	1.0	1.0	0	-0.0700769254565	blockFiles/set_54/main_unc/leftBlue\GB_LB_4.xlsx
266	main_unc	True	0.0	632	0	0.0	0.0	0.0	1	left	1.0	0.0	0.0	0	-0.061820081248900004	blockFiles/set_54/main_unc/leftBlue\GB_LB_4.xlsx
267	main_unc	True	0.0	632	0	0.0	0.0	0.0	1	left	1.0	1.0	0.0	0	-0.00043917398899800004	blockFiles/set_54/main_unc/leftBlue\GB_LB_4.xlsx
268	main_unc	True	0.0	632	0	0.0	0.0	1.0	1	right	1.0	1.0	1.0	1	0.0485978389159	blockFiles/set_54/main_unc/leftBlue\GB_LB_4.xlsx
269	main_unc	True	0.0	632	0	0.0	0.0	1.0	1	right	1.0	1.0	1.0	1	0.0223454454355	blockFiles/set_54/main_unc/leftBlue\GB_LB_4.xlsx
270	main_unc	True	0.0	632	0	0.0	0.0	0.0	0	left	1.0	1.0	1.0	1	0.0184883445688	blockFiles/set_54/main_unc/leftBlue\GB_LB_4.xlsx
271	main_unc	True	0.0	632	0	0.0	0.0	1.0	1	right	1.0	0.0	1.0	1	0.031270877067	blockFiles/set_54/main_unc/leftBlue\GB_LB_4.xlsx
272	main_unc	True	0.0	632	0	0.0	0.0	0.0	0	left	1.0	1.0	1.0	1	0.024256409555700003	blockFiles/set_54/main_unc/leftBlue\GB_LB_4.xlsx
273	main_unc	True	0.0	632	0	0.0	0.0	0.0	0	left	1.0	1.0	1.0	1	0.0758896813355	blockFiles/set_54/main_unc/leftBlue\GB_LB_4.xlsx
274	main_unc	True	0.0	632	0	0.0	0.0	0.0	1	left	2.0	1.0	1.0	0	-0.04493274556469999	blockFiles/set_54/main_unc/leftBlue\GB_LB_4.xlsx
275	main_unc	True	0.0	632	0	0.0	0.0	1.0	0	right	1.0	1.0	0.0	0	-0.000105324350297	blockFiles/set_54/main_unc/leftBlue\GB_LB_4.xlsx
276	main_unc	True	0.0	632	0	0.0	0.0	0.0	0	left	1.0	1.0	1.0	1	0.0293015986308	blockFiles/set_54/main_unc/leftBlue\GB_LB_4.xlsx
277	main_unc	True	0.0	632	0	0.0	0.0	0.0	0	left	1.0	1.0	1.0	1	0.0643652729318	blockFiles/set_54/main_unc/leftBlue\GB_LB_4.xlsx
278	main_unc	True	0.0	632	0	0.0	0.0	0.0	0	left	1.0	1.0	1.0	1	0.0445613908209	blockFiles/set_54/main_unc/leftBlue\GB_LB_4.xlsx
279	main_unc	True	0.0	632	0	0.0	0.0	1.0	0	right	1.0	0.0	0.0	0	-0.00261138381436	blockFiles/set_54/main_unc/leftBlue\GB_LB_4.xlsx
280	main_unc	True	0.0	632	0	0.0	0.0	0.0	0	left	1.0	1.0	1.0	1	0.0637961861305	blockFiles/set_54/main_unc/leftBlue\GB_LB_4.xlsx
281	main_unc	True	0.0	632	0	0.0	0.0	0.0	1	left	1.0	0.0	0.0	0	-0.00685282355174	blockFiles/set_54/main_unc/leftBlue\GB_LB_4.xlsx
282	main_unc	True	0.0	632	0	0.0	0.0	0.0	1	left	2.0	1.0	1.0	0	-0.0120233912766	blockFiles/set_54/main_unc/leftBlue\GB_LB_4.xlsx
283	main_unc	True	0.0	632	0	1.0	1.0	1.0	1	right	1.0	1.0	1.0	1	0.047754804789999994	blockFiles/set_54/main_unc/leftBlue\GB_LB_3.xlsx
284	main_unc	True	0.0	632	0	1.0	1.0	1.0	1	right	1.0	1.0	1.0	1	0.0770190841518	blockFiles/set_54/main_unc/leftBlue\GB_LB_3.xlsx
285	main_unc	True	0.0	632	0	1.0	1.0	0.0	1	left	2.0	1.0	1.0	0	-0.021630626264999998	blockFiles/set_54/main_unc/leftBlue\GB_LB_3.xlsx
286	main_unc	True	0.0	632	0	1.0	1.0	1.0	1	right	1.0	1.0	1.0	1	0.0288599791564	blockFiles/set_54/main_unc/leftBlue\GB_LB_3.xlsx
287	main_unc	True	0.0	632	0	1.0	1.0	0.0	0	left	1.0	1.0	1.0	1	0.053090156633400006	blockFiles/set_54/main_unc/leftBlue\GB_LB_3.xlsx
288	main_unc	True	0.0	632	0	1.0	1.0	1.0	1	right	1.0	1.0	1.0	1	0.0164934561588	blockFiles/set_54/main_unc/leftBlue\GB_LB_3.xlsx
289	main_unc	True	0.0	632	0	1.0	1.0	0.0	1	left	2.0	0.0	1.0	0	-0.05301474498580001	blockFiles/set_54/main_unc/leftBlue\GB_LB_3.xlsx
290	main_unc	True	0.0	632	0	1.0	1.0	1.0	0	right	2.0	1.0	1.0	0	-0.06406095979740001	blockFiles/set_54/main_unc/leftBlue\GB_LB_3.xlsx
291	main_unc	True	0.0	632	0	1.0	1.0	0.0	1	left	2.0	1.0	1.0	0	-0.00220502641052	blockFiles/set_54/main_unc/leftBlue\GB_LB_3.xlsx
292	main_unc	True	0.0	632	0	1.0	1.0	0.0	1	left	2.0	0.0	1.0	0	-0.0546727217734	blockFiles/set_54/main_unc/leftBlue\GB_LB_3.xlsx
293	main_unc	True	0.0	632	0	1.0	1.0	1.0	1	right	1.0	0.0	1.0	1	0.025197077039600002	blockFiles/set_54/main_unc/leftBlue\GB_LB_3.xlsx
294	main_unc	True	0.0	632	0	1.0	1.0	0.0	1	left	2.0	1.0	1.0	0	-0.07401354542000001	blockFiles/set_54/main_unc/leftBlue\GB_LB_3.xlsx
295	main_unc	True	0.0	632	0	1.0	1.0	1.0	1	right	2.0	0.0	0.0	1	0.007378085665399999	blockFiles/set_54/main_unc/leftBlue\GB_LB_3.xlsx
296	main_unc	True	0.0	632	0	1.0	1.0	0.0	1	left	2.0	1.0	1.0	0	-0.07952674325560001	blockFiles/set_54/main_unc/leftBlue\GB_LB_3.xlsx
297	main_unc	True	0.0	632	0	1.0	1.0	0.0	1	left	2.0	1.0	1.0	0	-0.0633218982816	blockFiles/set_54/main_unc/leftBlue\GB_LB_3.xlsx
298	main_unc	True	0.0	632	0	1.0	1.0	1.0	1	right	1.0	1.0	1.0	1	0.0181692055613	blockFiles/set_54/main_unc/leftBlue\GB_LB_3.xlsx
299	main_unc	True	0.0	632	0	1.0	1.0	1.0	1	right	1.0	1.0	1.0	1	0.0239929573238	blockFiles/set_54/main_unc/leftBlue\GB_LB_3.xlsx
300	main_unc	True	0.0	632	0	1.0	1.0	0.0	1	left	2.0	1.0	1.0	0	-0.0181926598586	blockFiles/set_54/main_unc/leftBlue\GB_LB_3.xlsx
301	main_unc	True	0.0	632	0	1.0	1.0	1.0	0	right	1.0	0.0	0.0	0	-0.0171080819517	blockFiles/set_54/main_unc/leftBlue\GB_LB_3.xlsx
302	main_unc	True	0.0	632	0	1.0	1.0	0.0	1	left	2.0	1.0	1.0	0	-0.0362373185717	blockFiles/set_54/main_unc/leftBlue\GB_LB_3.xlsx
303	main_unc	True	0.0	632	0	1.0	1.0	1.0	0	right	1.0	0.0	0.0	0	-0.043367919568	blockFiles/set_54/main_unc/leftBlue\GB_LB_3.xlsx
304	main_unc	True	0.0	632	0	1.0	1.0	0.0	0	left	2.0	1.0	0.0	1	0.0204040255211	blockFiles/set_54/main_unc/leftBlue\GB_LB_3.xlsx
305	main_unc	True	0.0	632	0	1.0	1.0	0.0	1	left	2.0	1.0	1.0	0	-0.07447278326380001	blockFiles/set_54/main_unc/leftBlue\GB_LB_3.xlsx
306	main_unc	True	0.0	632	0	1.0	1.0	1.0	1	right	1.0	1.0	1.0	1	0.0266834716871	blockFiles/set_54/main_unc/leftBlue\GB_LB_3.xlsx
307	main_unc	True	0.0	632	0	1.0	1.0	1.0	1	right	1.0	1.0	1.0	1	0.07055870926010001	blockFiles/set_54/main_unc/leftBlue\GB_LB_3.xlsx
308	main_unc	True	0.0	632	0	2.0	2.0	1.0	1	right	1.0	0.0	0.0	1	0.0520547713153	blockFiles/set_54/main_unc/rightBlue\GB_RB_1.xlsx
309	main_unc	True	0.0	632	0	2.0	2.0	1.0	1	right	1.0	0.0	0.0	1	0.029190021119999996	blockFiles/set_54/main_unc/rightBlue\GB_RB_1.xlsx
310	main_unc	True	0.0	632	0	2.0	2.0	1.0	1	right	1.0	0.0	0.0	1	0.050412024166400005	blockFiles/set_54/main_unc/rightBlue\GB_RB_1.xlsx
311	main_unc	True	0.0	632	0	2.0	2.0	0.0	1	left	1.0	1.0	1.0	0	-0.054861305281499996	blockFiles/set_54/main_unc/rightBlue\GB_RB_1.xlsx
312	main_unc	True	0.0	632	0	2.0	2.0	1.0	1	right	1.0	0.0	0.0	1	0.00755317509174	blockFiles/set_54/main_unc/rightBlue\GB_RB_1.xlsx
313	main_unc	True	0.0	632	0	2.0	2.0	0.0	1	left	1.0	1.0	1.0	0	-0.020143612083	blockFiles/set_54/main_unc/rightBlue\GB_RB_1.xlsx
314	main_unc	True	0.0	632	0	2.0	2.0	0.0	1	left	1.0	1.0	1.0	0	-0.029793154243400004	blockFiles/set_54/main_unc/rightBlue\GB_RB_1.xlsx
315	main_unc	True	0.0	632	0	2.0	2.0	1.0	1	right	2.0	1.0	1.0	1	0.0676737316884	blockFiles/set_54/main_unc/rightBlue\GB_RB_1.xlsx
316	main_unc	True	0.0	632	0	2.0	2.0	0.0	1	left	1.0	1.0	1.0	0	-0.0184726265632	blockFiles/set_54/main_unc/rightBlue\GB_RB_1.xlsx
317	main_unc	True	0.0	632	0	2.0	2.0	0.0	1	left	1.0	1.0	1.0	0	-0.041749279033400005	blockFiles/set_54/main_unc/rightBlue\GB_RB_1.xlsx
318	main_unc	True	0.0	632	0	2.0	2.0	0.0	1	left	1.0	1.0	1.0	0	-0.0684747305699	blockFiles/set_54/main_unc/rightBlue\GB_RB_1.xlsx
319	main_unc	True	0.0	632	0	2.0	2.0	1.0	1	right	2.0	1.0	1.0	1	0.072852267921	blockFiles/set_54/main_unc/rightBlue\GB_RB_1.xlsx
320	main_unc	True	0.0	632	0	2.0	2.0	1.0	1	right	2.0	0.0	1.0	1	0.025781347993799997	blockFiles/set_54/main_unc/rightBlue\GB_RB_1.xlsx
321	main_unc	True	0.0	632	0	2.0	2.0	1.0	1	right	2.0	1.0	1.0	1	0.0398766612075	blockFiles/set_54/main_unc/rightBlue\GB_RB_1.xlsx
322	main_unc	True	0.0	632	0	2.0	2.0	1.0	0	right	2.0	0.0	0.0	0	-0.0010364644415700001	blockFiles/set_54/main_unc/rightBlue\GB_RB_1.xlsx
323	main_unc	True	0.0	632	0	2.0	2.0	0.0	1	left	1.0	1.0	1.0	0	-0.0255443989672	blockFiles/set_54/main_unc/rightBlue\GB_RB_1.xlsx
324	main_unc	True	0.0	632	0	2.0	2.0	0.0	1	left	1.0	1.0	1.0	0	-0.0550850015692	blockFiles/set_54/main_unc/rightBlue\GB_RB_1.xlsx
325	main_unc	True	0.0	632	0	2.0	2.0	0.0	1	left	1.0	0.0	1.0	0	-0.041014844831099996	blockFiles/set_54/main_unc/rightBlue\GB_RB_1.xlsx
326	main_unc	True	0.0	632	0	2.0	2.0	1.0	1	right	2.0	1.0	1.0	1	0.0408172934502	blockFiles/set_54/main_unc/rightBlue\GB_RB_1.xlsx
327	main_unc	True	0.0	632	0	2.0	2.0	1.0	1	right	2.0	0.0	1.0	1	0.05893505673859999	blockFiles/set_54/main_unc/rightBlue\GB_RB_1.xlsx
328	main_unc	True	0.0	632	0	2.0	2.0	1.0	1	right	2.0	0.0	1.0	1	0.058283580746499995	blockFiles/set_54/main_unc/rightBlue\GB_RB_1.xlsx
329	main_unc	True	0.0	632	0	2.0	2.0	1.0	1	right	2.0	1.0	1.0	1	0.0740937691368	blockFiles/set_54/main_unc/rightBlue\GB_RB_1.xlsx
330	main_unc	True	0.0	632	0	2.0	2.0	0.0	1	left	1.0	1.0	1.0	0	-0.0111329527758	blockFiles/set_54/main_unc/rightBlue\GB_RB_1.xlsx
331	main_unc	True	0.0	632	0	2.0	2.0	0.0	1	left	1.0	0.0	1.0	0	-0.005561605710539999	blockFiles/set_54/main_unc/rightBlue\GB_RB_1.xlsx
332	main_unc	True	0.0	632	0	2.0	2.0	0.0	1	left	2.0	0.0	0.0	0	-0.0699173422903	blockFiles/set_54/main_unc/rightBlue\GB_RB_1.xlsx
333	main_unc	True	0.0	632	0	3.0	3.0	0.0	1	left	2.0	1.0	1.0	0	-0.0350661555119	blockFiles/set_54/main_unc/leftBlue\GB_LB_1.xlsx
334	main_unc	True	0.0	632	0	3.0	3.0	0.0	1	left	2.0	1.0	1.0	0	-0.0385082226619	blockFiles/set_54/main_unc/leftBlue\GB_LB_1.xlsx
335	main_unc	True	0.0	632	0	3.0	3.0	0.0	1	left	2.0	1.0	1.0	0	-0.0660762941651	blockFiles/set_54/main_unc/leftBlue\GB_LB_1.xlsx
336	main_unc	True	0.0	632	0	3.0	3.0	1.0	1	right	1.0	0.0	1.0	1	0.0680991674215	blockFiles/set_54/main_unc/leftBlue\GB_LB_1.xlsx
337	main_unc	True	0.0	632	0	3.0	3.0	1.0	1	right	1.0	0.0	1.0	1	0.012233533337700001	blockFiles/set_54/main_unc/leftBlue\GB_LB_1.xlsx
338	main_unc	True	0.0	632	0	3.0	3.0	0.0	1	left	1.0	0.0	0.0	0	-0.0395137559809	blockFiles/set_54/main_unc/leftBlue\GB_LB_1.xlsx
339	main_unc	True	0.0	632	0	3.0	3.0	1.0	1	right	1.0	1.0	1.0	1	0.05243254236880001	blockFiles/set_54/main_unc/leftBlue\GB_LB_1.xlsx
340	main_unc	True	0.0	632	0	3.0	3.0	1.0	1	right	1.0	1.0	1.0	1	0.0555342296138	blockFiles/set_54/main_unc/leftBlue\GB_LB_1.xlsx
341	main_unc	True	0.0	632	0	3.0	3.0	0.0	1	left	2.0	1.0	1.0	0	-0.0448926480301	blockFiles/set_54/main_unc/leftBlue\GB_LB_1.xlsx
342	main_unc	True	0.0	632	0	3.0	3.0	0.0	1	left	2.0	1.0	1.0	0	-0.012608577814	blockFiles/set_54/main_unc/leftBlue\GB_LB_1.xlsx
343	main_unc	True	0.0	632	0	3.0	3.0	0.0	1	left	2.0	1.0	1.0	0	-0.030560131277900002	blockFiles/set_54/main_unc/leftBlue\GB_LB_1.xlsx
344	main_unc	True	1.0	632	0	3.0	3.0	n/a	0	None	n/a	0.0	n/a	0	-0.0183909852803	blockFiles/set_54/main_unc/leftBlue\GB_LB_1.xlsx
345	main_unc	True	0.0	632	0	3.0	3.0	0.0	1	left	2.0	1.0	1.0	0	-0.0650460737199	blockFiles/set_54/main_unc/leftBlue\GB_LB_1.xlsx
346	main_unc	True	0.0	632	0	3.0	3.0	1.0	1	right	1.0	0.0	1.0	1	0.0198680405319	blockFiles/set_54/main_unc/leftBlue\GB_LB_1.xlsx
347	main_unc	True	0.0	632	0	3.0	3.0	1.0	1	right	1.0	1.0	1.0	1	0.07730538593610001	blockFiles/set_54/main_unc/leftBlue\GB_LB_1.xlsx
348	main_unc	True	0.0	632	0	3.0	3.0	1.0	1	right	1.0	1.0	1.0	1	0.0328895089403	blockFiles/set_54/main_unc/leftBlue\GB_LB_1.xlsx
349	main_unc	True	0.0	632	0	3.0	3.0	1.0	1	right	1.0	1.0	1.0	1	0.010490974653499999	blockFiles/set_54/main_unc/leftBlue\GB_LB_1.xlsx
350	main_unc	True	0.0	632	0	3.0	3.0	1.0	1	right	1.0	1.0	1.0	1	0.0102608551644	blockFiles/set_54/main_unc/leftBlue\GB_LB_1.xlsx
351	main_unc	True	0.0	632	0	3.0	3.0	0.0	1	left	2.0	0.0	1.0	0	-0.0723499161005	blockFiles/set_54/main_unc/leftBlue\GB_LB_1.xlsx
352	main_unc	True	0.0	632	0	3.0	3.0	0.0	1	left	2.0	1.0	1.0	0	-0.0454724303819	blockFiles/set_54/main_unc/leftBlue\GB_LB_1.xlsx
353	main_unc	True	0.0	632	0	3.0	3.0	0.0	1	left	2.0	1.0	1.0	0	-0.05468356488269999	blockFiles/set_54/main_unc/leftBlue\GB_LB_1.xlsx
354	main_unc	True	0.0	632	0	3.0	3.0	1.0	1	right	1.0	1.0	1.0	1	0.00940622741356	blockFiles/set_54/main_unc/leftBlue\GB_LB_1.xlsx
355	main_unc	True	0.0	632	0	3.0	3.0	0.0	1	left	2.0	1.0	1.0	0	-0.030961643699599996	blockFiles/set_54/main_unc/leftBlue\GB_LB_1.xlsx
356	main_unc	True	0.0	632	0	3.0	3.0	0.0	1	left	2.0	1.0	1.0	0	-0.0647584457509	blockFiles/set_54/main_unc/leftBlue\GB_LB_1.xlsx
357	main_unc	True	0.0	632	0	3.0	3.0	0.0	0	left	2.0	0.0	0.0	1	0.0040059588477	blockFiles/set_54/main_unc/leftBlue\GB_LB_1.xlsx
358	main_unc	True	0.0	632	0	3.0	3.0	0.0	1	left	2.0	1.0	1.0	0	-0.0183909852803	blockFiles/set_54/main_unc/leftBlue\GB_LB_1.xlsx
359	main_unc	True	0.0	632	0	4.0	4.0	1.0	1	right	2.0	1.0	1.0	1	0.06376493507999999	blockFiles/set_54/main_unc/rightBlue\GB_RB_6.xlsx
360	main_unc	True	0.0	632	0	4.0	4.0	1.0	1	right	2.0	0.0	1.0	1	0.00484131380916	blockFiles/set_54/main_unc/rightBlue\GB_RB_6.xlsx
361	main_unc	True	0.0	632	0	4.0	4.0	1.0	0	right	2.0	1.0	0.0	0	-0.013693808242699999	blockFiles/set_54/main_unc/rightBlue\GB_RB_6.xlsx
362	main_unc	True	0.0	632	0	4.0	4.0	0.0	1	left	2.0	0.0	0.0	0	-0.033973980397	blockFiles/set_54/main_unc/rightBlue\GB_RB_6.xlsx
363	main_unc	True	0.0	632	0	4.0	4.0	0.0	0	left	2.0	1.0	1.0	1	0.0253379427455	blockFiles/set_54/main_unc/rightBlue\GB_RB_6.xlsx
364	main_unc	True	0.0	632	0	4.0	4.0	1.0	0	right	1.0	1.0	1.0	0	-0.056688434742400005	blockFiles/set_54/main_unc/rightBlue\GB_RB_6.xlsx
365	main_unc	True	0.0	632	0	4.0	4.0	0.0	1	left	1.0	1.0	1.0	0	-0.052561335153900005	blockFiles/set_54/main_unc/rightBlue\GB_RB_6.xlsx
366	main_unc	True	0.0	632	0	4.0	4.0	0.0	1	left	1.0	1.0	1.0	0	-0.0353491749614	blockFiles/set_54/main_unc/rightBlue\GB_RB_6.xlsx
367	main_unc	True	0.0	632	0	4.0	4.0	0.0	1	left	1.0	1.0	1.0	0	-0.0751693529263	blockFiles/set_54/main_unc/rightBlue\GB_RB_6.xlsx
368	main_unc	True	0.0	632	0	4.0	4.0	1.0	1	right	2.0	1.0	1.0	1	0.0654739841074	blockFiles/set_54/main_unc/rightBlue\GB_RB_6.xlsx
369	main_unc	True	0.0	632	0	4.0	4.0	0.0	1	left	1.0	1.0	1.0	0	-0.0302778514102	blockFiles/set_54/main_unc/rightBlue\GB_RB_6.xlsx
370	main_unc	True	0.0	632	0	4.0	4.0	0.0	0	left	1.0	0.0	0.0	1	0.0035385078750600004	blockFiles/set_54/main_unc/rightBlue\GB_RB_6.xlsx
371	main_unc	True	0.0	632	0	4.0	4.0	1.0	1	right	1.0	1.0	0.0	1	0.0178828700073	blockFiles/set_54/main_unc/rightBlue\GB_RB_6.xlsx
372	main_unc	True	0.0	632	0	4.0	4.0	0.0	1	left	2.0	0.0	0.0	0	-0.0626197876036	blockFiles/set_54/main_unc/rightBlue\GB_RB_6.xlsx
373	main_unc	True	0.0	632	0	4.0	4.0	0.0	0	left	2.0	1.0	1.0	1	0.033938628639999996	blockFiles/set_54/main_unc/rightBlue\GB_RB_6.xlsx
374	main_unc	True	0.0	632	0	4.0	4.0	0.0	1	left	1.0	0.0	1.0	0	-0.0592606388591	blockFiles/set_54/main_unc/rightBlue\GB_RB_6.xlsx
375	main_unc	True	0.0	632	0	4.0	4.0	0.0	1	left	1.0	1.0	1.0	0	-0.04070088209580001	blockFiles/set_54/main_unc/rightBlue\GB_RB_6.xlsx
376	main_unc	True	0.0	632	0	4.0	4.0	0.0	1	left	1.0	1.0	1.0	0	-0.0362856266461	blockFiles/set_54/main_unc/rightBlue\GB_RB_6.xlsx
377	main_unc	True	0.0	632	0	4.0	4.0	1.0	1	right	2.0	1.0	1.0	1	0.00325723277405	blockFiles/set_54/main_unc/rightBlue\GB_RB_6.xlsx
378	main_unc	True	0.0	632	0	4.0	4.0	1.0	1	right	2.0	1.0	1.0	1	0.0596440055035	blockFiles/set_54/main_unc/rightBlue\GB_RB_6.xlsx
379	main_unc	True	0.0	632	0	4.0	4.0	0.0	1	left	1.0	1.0	1.0	0	-0.06929323798050001	blockFiles/set_54/main_unc/rightBlue\GB_RB_6.xlsx
380	main_unc	True	0.0	632	0	4.0	4.0	1.0	1	right	2.0	0.0	1.0	1	0.0343672097288	blockFiles/set_54/main_unc/rightBlue\GB_RB_6.xlsx
381	main_unc	True	1.0	632	0	4.0	4.0	0.0	1	left	n/a	0.0	n/a	0	-0.0240125822835	blockFiles/set_54/main_unc/rightBlue\GB_RB_6.xlsx
382	main_unc	True	0.0	632	0	4.0	4.0	1.0	1	right	2.0	1.0	1.0	1	0.046864576898499995	blockFiles/set_54/main_unc/rightBlue\GB_RB_6.xlsx
383	main_unc	True	0.0	632	0	4.0	4.0	0.0	1	left	1.0	1.0	1.0	0	-0.0356771257706	blockFiles/set_54/main_unc/rightBlue\GB_RB_6.xlsx
384	main_unc	True	0.0	632	0	4.0	4.0	0.0	1	left	1.0	1.0	1.0	0	-0.0240125822835	blockFiles/set_54/main_unc/rightBlue\GB_RB_6.xlsx
385	main_unc	True	0.0	632	0	5.0	5.0	1.0	1	right	1.0	1.0	1.0	1	0.0742688322812	blockFiles/set_54/main_unc/leftBlue\GB_LB_2.xlsx
386	main_unc	True	1.0	632	0	5.0	5.0	n/a	0	None	n/a	0.0	n/a	0	-0.0037260575965	blockFiles/set_54/main_unc/leftBlue\GB_LB_2.xlsx
387	main_unc	True	1.0	632	0	5.0	5.0	n/a	0	None	n/a	0.0	n/a	0	-0.0242951739766	blockFiles/set_54/main_unc/leftBlue\GB_LB_2.xlsx
388	main_unc	True	0.0	632	0	5.0	5.0	0.0	1	left	2.0	1.0	1.0	0	-0.0587898068875	blockFiles/set_54/main_unc/leftBlue\GB_LB_2.xlsx
389	main_unc	True	0.0	632	0	5.0	5.0	1.0	1	right	1.0	1.0	1.0	1	0.0654627315141	blockFiles/set_54/main_unc/leftBlue\GB_LB_2.xlsx
390	main_unc	True	0.0	632	0	5.0	5.0	0.0	1	left	1.0	0.0	0.0	0	-0.00044483890757000003	blockFiles/set_54/main_unc/leftBlue\GB_LB_2.xlsx
391	main_unc	True	0.0	632	0	5.0	5.0	1.0	1	right	1.0	1.0	1.0	1	0.07399125592780001	blockFiles/set_54/main_unc/leftBlue\GB_LB_2.xlsx
392	main_unc	True	0.0	632	0	5.0	5.0	1.0	1	right	1.0	0.0	1.0	1	0.0211911691725	blockFiles/set_54/main_unc/leftBlue\GB_LB_2.xlsx
393	main_unc	True	0.0	632	0	5.0	5.0	1.0	1	right	1.0	1.0	1.0	1	0.024963574037000003	blockFiles/set_54/main_unc/leftBlue\GB_LB_2.xlsx
394	main_unc	True	0.0	632	0	5.0	5.0	0.0	0	left	1.0	0.0	1.0	1	0.0212594741583	blockFiles/set_54/main_unc/leftBlue\GB_LB_2.xlsx
395	main_unc	True	0.0	632	0	5.0	5.0	1.0	1	right	1.0	1.0	1.0	1	0.060979111176	blockFiles/set_54/main_unc/leftBlue\GB_LB_2.xlsx
396	main_unc	True	0.0	632	0	5.0	5.0	1.0	1	right	1.0	1.0	1.0	1	0.0351260346919	blockFiles/set_54/main_unc/leftBlue\GB_LB_2.xlsx
397	main_unc	True	0.0	632	0	5.0	5.0	0.0	1	left	2.0	1.0	1.0	0	-0.027817339189400003	blockFiles/set_54/main_unc/leftBlue\GB_LB_2.xlsx
398	main_unc	True	0.0	632	0	5.0	5.0	1.0	1	right	1.0	1.0	1.0	1	0.025222840812099998	blockFiles/set_54/main_unc/leftBlue\GB_LB_2.xlsx
399	main_unc	True	0.0	632	0	5.0	5.0	0.0	1	left	2.0	1.0	1.0	0	-0.0703964236565	blockFiles/set_54/main_unc/leftBlue\GB_LB_2.xlsx
400	main_unc	True	0.0	632	0	5.0	5.0	1.0	1	right	1.0	1.0	1.0	1	0.0693204138801	blockFiles/set_54/main_unc/leftBlue\GB_LB_2.xlsx
401	main_unc	True	0.0	632	0	5.0	5.0	1.0	0	right	1.0	1.0	0.0	0	-0.00685224020854	blockFiles/set_54/main_unc/leftBlue\GB_LB_2.xlsx
402	main_unc	True	0.0	632	0	5.0	5.0	0.0	1	left	2.0	1.0	1.0	0	-0.0447728906013	blockFiles/set_54/main_unc/leftBlue\GB_LB_2.xlsx
403	main_unc	True	0.0	632	0	5.0	5.0	1.0	1	right	1.0	1.0	1.0	1	0.056034019962	blockFiles/set_54/main_unc/leftBlue\GB_LB_2.xlsx
404	main_unc	True	0.0	632	0	5.0	5.0	0.0	1	left	2.0	1.0	1.0	0	-0.0603863916919	blockFiles/set_54/main_unc/leftBlue\GB_LB_2.xlsx
405	main_unc	True	0.0	632	0	5.0	5.0	1.0	1	right	1.0	1.0	1.0	1	0.06381691407409999	blockFiles/set_54/main_unc/leftBlue\GB_LB_2.xlsx
406	main_unc	True	0.0	632	0	5.0	5.0	1.0	0	right	1.0	0.0	0.0	0	-0.005744368024170001	blockFiles/set_54/main_unc/leftBlue\GB_LB_2.xlsx
407	main_unc	True	0.0	632	0	5.0	5.0	0.0	1	left	2.0	1.0	1.0	0	-0.031645213030300004	blockFiles/set_54/main_unc/leftBlue\GB_LB_2.xlsx
408	main_unc	True	0.0	632	0	5.0	5.0	1.0	1	right	1.0	1.0	1.0	1	0.054364154823099996	blockFiles/set_54/main_unc/leftBlue\GB_LB_2.xlsx
409	main_unc	True	0.0	632	0	5.0	5.0	1.0	0	right	2.0	0.0	1.0	0	-0.015412160363000001	blockFiles/set_54/main_unc/leftBlue\GB_LB_2.xlsx
410	main_unc	True	0.0	632	0	5.0	5.0	0.0	1	left	2.0	1.0	1.0	0	-0.0037260575965	blockFiles/set_54/main_unc/leftBlue\GB_LB_2.xlsx
411	main_unc	True	0.0	632	0	5.0	5.0	0.0	1	left	2.0	1.0	1.0	0	-0.0242951739766	blockFiles/set_54/main_unc/leftBlue\GB_LB_2.xlsx
412	main_unc	True	1.0	632	0	6.0	6.0	n/a	0	None	n/a	0.0	n/a	0	-0.0327361355722	blockFiles/set_54/main_unc/leftBlue\GB_LB_6.xlsx
413	main_unc	True	0.0	632	0	6.0	6.0	1.0	1	right	2.0	0.0	0.0	1	0.023050680887	blockFiles/set_54/main_unc/leftBlue\GB_LB_6.xlsx
414	main_unc	True	0.0	632	0	6.0	6.0	1.0	1	right	2.0	0.0	0.0	1	0.0442836034112	blockFiles/set_54/main_unc/leftBlue\GB_LB_6.xlsx
415	main_unc	True	0.0	632	0	6.0	6.0	1.0	1	right	2.0	0.0	0.0	1	0.0309422592074	blockFiles/set_54/main_unc/leftBlue\GB_LB_6.xlsx
416	main_unc	True	0.0	632	0	6.0	6.0	1.0	1	right	1.0	1.0	1.0	1	0.00800196137279	blockFiles/set_54/main_unc/leftBlue\GB_LB_6.xlsx
417	main_unc	True	0.0	632	0	6.0	6.0	0.0	1	left	2.0	1.0	1.0	0	-0.034177963938599995	blockFiles/set_54/main_unc/leftBlue\GB_LB_6.xlsx
418	main_unc	True	0.0	632	0	6.0	6.0	0.0	1	left	2.0	1.0	1.0	0	-0.015175200887	blockFiles/set_54/main_unc/leftBlue\GB_LB_6.xlsx
419	main_unc	True	0.0	632	0	6.0	6.0	1.0	1	right	1.0	1.0	1.0	1	0.07479983001950001	blockFiles/set_54/main_unc/leftBlue\GB_LB_6.xlsx
420	main_unc	True	0.0	632	0	6.0	6.0	0.0	1	left	2.0	1.0	1.0	0	-0.0682932773978	blockFiles/set_54/main_unc/leftBlue\GB_LB_6.xlsx
421	main_unc	True	0.0	632	0	6.0	6.0	1.0	0	right	1.0	1.0	0.0	0	-0.00422792688012	blockFiles/set_54/main_unc/leftBlue\GB_LB_6.xlsx
422	main_unc	True	0.0	632	0	6.0	6.0	1.0	1	right	1.0	1.0	1.0	1	0.013498375304	blockFiles/set_54/main_unc/leftBlue\GB_LB_6.xlsx
423	main_unc	True	0.0	632	0	6.0	6.0	0.0	1	left	2.0	1.0	1.0	0	-0.0425993703306	blockFiles/set_54/main_unc/leftBlue\GB_LB_6.xlsx
424	main_unc	True	0.0	632	0	6.0	6.0	0.0	1	left	2.0	1.0	1.0	0	-0.012492483351399998	blockFiles/set_54/main_unc/leftBlue\GB_LB_6.xlsx
425	main_unc	True	0.0	632	0	6.0	6.0	1.0	1	right	1.0	1.0	1.0	1	0.0573872628622	blockFiles/set_54/main_unc/leftBlue\GB_LB_6.xlsx
426	main_unc	True	0.0	632	0	6.0	6.0	0.0	1	left	2.0	1.0	1.0	0	-0.074827272892	blockFiles/set_54/main_unc/leftBlue\GB_LB_6.xlsx
427	main_unc	True	0.0	632	0	6.0	6.0	0.0	0	left	1.0	1.0	1.0	1	0.0063152529113	blockFiles/set_54/main_unc/leftBlue\GB_LB_6.xlsx
428	main_unc	True	0.0	632	0	6.0	6.0	0.0	1	left	2.0	1.0	1.0	0	-0.07908752586689999	blockFiles/set_54/main_unc/leftBlue\GB_LB_6.xlsx
429	main_unc	True	0.0	632	0	6.0	6.0	1.0	1	right	1.0	1.0	1.0	1	0.0310706172138	blockFiles/set_54/main_unc/leftBlue\GB_LB_6.xlsx
430	main_unc	True	0.0	632	0	6.0	6.0	1.0	1	right	1.0	0.0	1.0	1	0.034812855776400004	blockFiles/set_54/main_unc/leftBlue\GB_LB_6.xlsx
431	main_unc	True	0.0	632	0	6.0	6.0	0.0	0	left	1.0	1.0	1.0	1	0.030475572571200003	blockFiles/set_54/main_unc/leftBlue\GB_LB_6.xlsx
432	main_unc	True	0.0	632	0	6.0	6.0	0.0	1	left	1.0	1.0	0.0	0	-0.0283109723032	blockFiles/set_54/main_unc/leftBlue\GB_LB_6.xlsx
433	main_unc	True	0.0	632	0	6.0	6.0	0.0	1	left	2.0	1.0	1.0	0	-0.049324570074699994	blockFiles/set_54/main_unc/leftBlue\GB_LB_6.xlsx
434	main_unc	True	0.0	632	0	6.0	6.0	1.0	1	right	1.0	1.0	1.0	1	0.0777556711063	blockFiles/set_54/main_unc/leftBlue\GB_LB_6.xlsx
435	main_unc	True	0.0	632	0	6.0	6.0	0.0	1	left	2.0	0.0	1.0	0	-0.0329710132815	blockFiles/set_54/main_unc/leftBlue\GB_LB_6.xlsx
436	main_unc	True	0.0	632	0	6.0	6.0	0.0	1	left	2.0	1.0	1.0	0	-0.0614288944378	blockFiles/set_54/main_unc/leftBlue\GB_LB_6.xlsx
437	main_unc	True	0.0	632	0	6.0	6.0	0.0	1	left	2.0	1.0	1.0	0	-0.0327361355722	blockFiles/set_54/main_unc/leftBlue\GB_LB_6.xlsx
438	main_unc	True	0.0	632	0	7.0	7.0	1.0	1	right	1.0	0.0	0.0	1	0.0633578165807	blockFiles/set_54/main_unc/rightBlue\GB_RB_2.xlsx
439	main_unc	True	0.0	632	0	7.0	7.0	1.0	1	right	2.0	1.0	1.0	1	0.0362767333537	blockFiles/set_54/main_unc/rightBlue\GB_RB_2.xlsx
440	main_unc	True	0.0	632	0	7.0	7.0	0.0	1	left	1.0	1.0	1.0	0	-0.062072871998	blockFiles/set_54/main_unc/rightBlue\GB_RB_2.xlsx
441	main_unc	True	1.0	632	0	7.0	7.0	n/a	0	None	n/a	0.0	n/a	0	-0.0314326602407	blockFiles/set_54/main_unc/rightBlue\GB_RB_2.xlsx
442	main_unc	True	0.0	632	0	7.0	7.0	1.0	1	right	1.0	1.0	0.0	1	0.031006764993099997	blockFiles/set_54/main_unc/rightBlue\GB_RB_2.xlsx
443	main_unc	True	0.0	632	0	7.0	7.0	0.0	1	left	2.0	0.0	0.0	0	-0.057368658036000005	blockFiles/set_54/main_unc/rightBlue\GB_RB_2.xlsx
444	main_unc	True	0.0	632	0	7.0	7.0	0.0	1	left	2.0	0.0	0.0	0	-0.06881564414130001	blockFiles/set_54/main_unc/rightBlue\GB_RB_2.xlsx
445	main_unc	True	0.0	632	0	7.0	7.0	0.0	1	left	2.0	0.0	0.0	0	-0.0222020535171	blockFiles/set_54/main_unc/rightBlue\GB_RB_2.xlsx
446	main_unc	True	0.0	632	0	7.0	7.0	1.0	1	right	2.0	1.0	1.0	1	0.053876918386699994	blockFiles/set_54/main_unc/rightBlue\GB_RB_2.xlsx
447	main_unc	True	0.0	632	0	7.0	7.0	1.0	1	right	2.0	1.0	1.0	1	0.000301214884967	blockFiles/set_54/main_unc/rightBlue\GB_RB_2.xlsx
448	main_unc	True	0.0	632	0	7.0	7.0	1.0	1	right	2.0	1.0	1.0	1	0.0360824412107	blockFiles/set_54/main_unc/rightBlue\GB_RB_2.xlsx
449	main_unc	True	0.0	632	0	7.0	7.0	0.0	1	left	1.0	1.0	1.0	0	-0.0638902997039	blockFiles/set_54/main_unc/rightBlue\GB_RB_2.xlsx
450	main_unc	True	0.0	632	0	7.0	7.0	0.0	0	left	2.0	1.0	1.0	1	0.0376669661701	blockFiles/set_54/main_unc/rightBlue\GB_RB_2.xlsx
451	main_unc	True	0.0	632	0	7.0	7.0	0.0	1	left	1.0	1.0	1.0	0	-0.0792360397987	blockFiles/set_54/main_unc/rightBlue\GB_RB_2.xlsx
452	main_unc	True	0.0	632	0	7.0	7.0	0.0	1	left	1.0	1.0	1.0	0	-0.0310587580502	blockFiles/set_54/main_unc/rightBlue\GB_RB_2.xlsx
453	main_unc	True	0.0	632	0	7.0	7.0	1.0	1	right	2.0	0.0	1.0	1	0.0594042570144	blockFiles/set_54/main_unc/rightBlue\GB_RB_2.xlsx
454	main_unc	True	0.0	632	0	7.0	7.0	1.0	1	right	2.0	1.0	1.0	1	0.033666072823099996	blockFiles/set_54/main_unc/rightBlue\GB_RB_2.xlsx
455	main_unc	True	1.0	632	0	7.0	7.0	1.0	0	right	n/a	0.0	n/a	0	-0.0115718302503	blockFiles/set_54/main_unc/rightBlue\GB_RB_2.xlsx
456	main_unc	True	0.0	632	0	7.0	7.0	0.0	0	left	2.0	1.0	1.0	1	0.0231313513219	blockFiles/set_54/main_unc/rightBlue\GB_RB_2.xlsx
457	main_unc	True	0.0	632	0	7.0	7.0	0.0	0	left	1.0	1.0	0.0	1	0.0578778165393	blockFiles/set_54/main_unc/rightBlue\GB_RB_2.xlsx
458	main_unc	True	0.0	632	0	7.0	7.0	1.0	0	right	1.0	1.0	1.0	0	-0.0290892410837	blockFiles/set_54/main_unc/rightBlue\GB_RB_2.xlsx
459	main_unc	True	0.0	632	0	7.0	7.0	0.0	0	left	2.0	1.0	1.0	1	0.00779768304899	blockFiles/set_54/main_unc/rightBlue\GB_RB_2.xlsx
460	main_unc	True	0.0	632	0	7.0	7.0	0.0	1	left	1.0	0.0	1.0	0	-0.0563303133473	blockFiles/set_54/main_unc/rightBlue\GB_RB_2.xlsx
461	main_unc	True	0.0	632	0	7.0	7.0	0.0	0	left	1.0	1.0	0.0	1	0.0267254558019	blockFiles/set_54/main_unc/rightBlue\GB_RB_2.xlsx
462	main_unc	True	0.0	632	0	7.0	7.0	0.0	1	left	1.0	1.0	1.0	0	-0.0376244639605	blockFiles/set_54/main_unc/rightBlue\GB_RB_2.xlsx
463	main_unc	True	0.0	632	0	7.0	7.0	0.0	1	left	1.0	1.0	1.0	0	-0.0314326602407	blockFiles/set_54/main_unc/rightBlue\GB_RB_2.xlsx
464	main_unc	True	0.0	632	0	7.0	7.0	0.0	1	left	1.0	1.0	1.0	0	-0.0115718302503	blockFiles/set_54/main_unc/rightBlue\GB_RB_2.xlsx
465	main_unc	True	0.0	632	0	8.0	8.0	0.0	1	left	2.0	1.0	1.0	0	-0.046282299086499994	blockFiles/set_54/main_unc/leftBlue\GB_LB_5.xlsx
466	main_unc	True	0.0	632	0	8.0	8.0	0.0	1	left	2.0	1.0	1.0	0	-0.0792697717622	blockFiles/set_54/main_unc/leftBlue\GB_LB_5.xlsx
467	main_unc	True	0.0	632	0	8.0	8.0	0.0	1	left	2.0	1.0	1.0	0	-0.053260171823199996	blockFiles/set_54/main_unc/leftBlue\GB_LB_5.xlsx
468	main_unc	True	0.0	632	0	8.0	8.0	1.0	0	right	1.0	0.0	0.0	0	-0.00220832077786	blockFiles/set_54/main_unc/leftBlue\GB_LB_5.xlsx
469	main_unc	True	0.0	632	0	8.0	8.0	1.0	1	right	1.0	1.0	1.0	1	0.07649746444080001	blockFiles/set_54/main_unc/leftBlue\GB_LB_5.xlsx
470	main_unc	True	0.0	632	0	8.0	8.0	1.0	1	right	1.0	1.0	1.0	1	0.0176121984795	blockFiles/set_54/main_unc/leftBlue\GB_LB_5.xlsx
471	main_unc	True	0.0	632	0	8.0	8.0	0.0	0	left	2.0	1.0	0.0	1	0.009224745016549999	blockFiles/set_54/main_unc/leftBlue\GB_LB_5.xlsx
472	main_unc	True	0.0	632	0	8.0	8.0	1.0	1	right	1.0	1.0	1.0	1	0.037647637203300006	blockFiles/set_54/main_unc/leftBlue\GB_LB_5.xlsx
473	main_unc	True	0.0	632	0	8.0	8.0	0.0	1	left	2.0	1.0	1.0	0	-0.029778413679499998	blockFiles/set_54/main_unc/leftBlue\GB_LB_5.xlsx
474	main_unc	True	0.0	632	0	8.0	8.0	0.0	1	left	2.0	1.0	1.0	0	-0.068153033182	blockFiles/set_54/main_unc/leftBlue\GB_LB_5.xlsx
475	main_unc	True	0.0	632	0	8.0	8.0	1.0	1	right	1.0	1.0	1.0	1	0.0737319031544	blockFiles/set_54/main_unc/leftBlue\GB_LB_5.xlsx
476	main_unc	True	0.0	632	0	8.0	8.0	0.0	1	left	2.0	1.0	1.0	0	-0.0403680901974	blockFiles/set_54/main_unc/leftBlue\GB_LB_5.xlsx
477	main_unc	True	0.0	632	0	8.0	8.0	1.0	1	right	1.0	1.0	1.0	1	0.00671809569001	blockFiles/set_54/main_unc/leftBlue\GB_LB_5.xlsx
478	main_unc	True	0.0	632	0	8.0	8.0	0.0	1	left	2.0	1.0	1.0	0	-0.0110486342199	blockFiles/set_54/main_unc/leftBlue\GB_LB_5.xlsx
479	main_unc	True	0.0	632	0	8.0	8.0	0.0	0	left	2.0	1.0	0.0	1	0.0041984114795900005	blockFiles/set_54/main_unc/leftBlue\GB_LB_5.xlsx
480	main_unc	True	0.0	632	0	8.0	8.0	1.0	1	right	1.0	1.0	1.0	1	0.0685136365891	blockFiles/set_54/main_unc/leftBlue\GB_LB_5.xlsx
481	main_unc	True	0.0	632	0	8.0	8.0	0.0	1	left	2.0	1.0	1.0	0	-0.0228507238626	blockFiles/set_54/main_unc/leftBlue\GB_LB_5.xlsx
482	main_unc	True	0.0	632	0	8.0	8.0	0.0	1	left	2.0	1.0	1.0	0	-0.0692226088233	blockFiles/set_54/main_unc/leftBlue\GB_LB_5.xlsx
483	main_unc	True	0.0	632	0	8.0	8.0	0.0	0	left	1.0	1.0	1.0	1	0.0431805878691	blockFiles/set_54/main_unc/leftBlue\GB_LB_5.xlsx
484	main_unc	True	0.0	632	0	8.0	8.0	1.0	1	right	1.0	0.0	1.0	1	0.0201895477623	blockFiles/set_54/main_unc/leftBlue\GB_LB_5.xlsx
485	main_unc	True	0.0	632	0	8.0	8.0	0.0	1	left	2.0	1.0	1.0	0	-0.07644786864519999	blockFiles/set_54/main_unc/leftBlue\GB_LB_5.xlsx
486	main_unc	True	0.0	632	0	8.0	8.0	1.0	1	right	2.0	1.0	0.0	1	0.0130567493476	blockFiles/set_54/main_unc/leftBlue\GB_LB_5.xlsx
487	main_unc	True	0.0	632	0	8.0	8.0	0.0	0	left	1.0	1.0	1.0	1	0.0259959714115	blockFiles/set_54/main_unc/leftBlue\GB_LB_5.xlsx
488	main_unc	True	0.0	632	0	8.0	8.0	0.0	1	left	2.0	1.0	1.0	0	-0.0404948308691	blockFiles/set_54/main_unc/leftBlue\GB_LB_5.xlsx
489	main_unc	True	0.0	632	0	8.0	8.0	1.0	1	right	1.0	1.0	1.0	1	0.044320229012500004	blockFiles/set_54/main_unc/leftBlue\GB_LB_5.xlsx
490	main_unc	True	0.0	632	0	9.0	9.0	1.0	1	right	1.0	0.0	0.0	1	0.06352435983719999	blockFiles/set_54/main_unc/rightBlue\GB_RB_5.xlsx
491	main_unc	True	0.0	632	0	9.0	9.0	0.0	1	left	1.0	0.0	1.0	0	-0.0136739547364	blockFiles/set_54/main_unc/rightBlue\GB_RB_5.xlsx
492	main_unc	True	0.0	632	0	9.0	9.0	0.0	1	left	1.0	1.0	1.0	0	-0.0141455611959	blockFiles/set_54/main_unc/rightBlue\GB_RB_5.xlsx
493	main_unc	True	0.0	632	0	9.0	9.0	0.0	0	left	2.0	1.0	1.0	1	0.0164887467958	blockFiles/set_54/main_unc/rightBlue\GB_RB_5.xlsx
494	main_unc	True	0.0	632	0	9.0	9.0	0.0	1	left	1.0	1.0	1.0	0	-0.019702951517	blockFiles/set_54/main_unc/rightBlue\GB_RB_5.xlsx
495	main_unc	True	0.0	632	0	9.0	9.0	0.0	1	left	2.0	0.0	0.0	0	-0.0790007583238	blockFiles/set_54/main_unc/rightBlue\GB_RB_5.xlsx
496	main_unc	True	0.0	632	0	9.0	9.0	0.0	1	left	1.0	1.0	1.0	0	-0.0630338660814	blockFiles/set_54/main_unc/rightBlue\GB_RB_5.xlsx
497	main_unc	True	0.0	632	0	9.0	9.0	0.0	1	left	1.0	1.0	1.0	0	-0.055884778462399996	blockFiles/set_54/main_unc/rightBlue\GB_RB_5.xlsx
498	main_unc	True	0.0	632	0	9.0	9.0	0.0	0	left	2.0	1.0	1.0	1	0.047693075798500004	blockFiles/set_54/main_unc/rightBlue\GB_RB_5.xlsx
499	main_unc	True	0.0	632	0	9.0	9.0	1.0	1	right	2.0	1.0	1.0	1	0.0575740721822	blockFiles/set_54/main_unc/rightBlue\GB_RB_5.xlsx
500	main_unc	True	0.0	632	0	9.0	9.0	1.0	1	right	2.0	1.0	1.0	1	0.0393403632753	blockFiles/set_54/main_unc/rightBlue\GB_RB_5.xlsx
501	main_unc	True	0.0	632	0	9.0	9.0	1.0	1	right	2.0	1.0	1.0	1	0.0187197635137	blockFiles/set_54/main_unc/rightBlue\GB_RB_5.xlsx
502	main_unc	True	0.0	632	0	9.0	9.0	1.0	1	right	2.0	1.0	1.0	1	0.0160591983236	blockFiles/set_54/main_unc/rightBlue\GB_RB_5.xlsx
503	main_unc	True	0.0	632	0	9.0	9.0	1.0	1	right	2.0	1.0	1.0	1	0.0330105015635	blockFiles/set_54/main_unc/rightBlue\GB_RB_5.xlsx
504	main_unc	True	0.0	632	0	9.0	9.0	1.0	0	right	2.0	1.0	0.0	0	-0.0264347087592	blockFiles/set_54/main_unc/rightBlue\GB_RB_5.xlsx
505	main_unc	True	0.0	632	0	9.0	9.0	1.0	0	right	2.0	0.0	0.0	0	-0.0209231263585	blockFiles/set_54/main_unc/rightBlue\GB_RB_5.xlsx
506	main_unc	True	0.0	632	0	9.0	9.0	1.0	1	right	2.0	0.0	1.0	1	0.034725370928599994	blockFiles/set_54/main_unc/rightBlue\GB_RB_5.xlsx
507	main_unc	True	0.0	632	0	9.0	9.0	1.0	1	right	2.0	1.0	1.0	1	0.0708748068474	blockFiles/set_54/main_unc/rightBlue\GB_RB_5.xlsx
508	main_unc	True	0.0	632	0	9.0	9.0	0.0	1	left	1.0	1.0	1.0	0	-0.0550268634222	blockFiles/set_54/main_unc/rightBlue\GB_RB_5.xlsx
509	main_unc	True	0.0	632	0	9.0	9.0	0.0	1	left	1.0	0.0	1.0	0	-0.0512141791359	blockFiles/set_54/main_unc/rightBlue\GB_RB_5.xlsx
510	main_unc	True	0.0	632	0	9.0	9.0	0.0	1	left	2.0	0.0	0.0	0	-0.0008075820468369999	blockFiles/set_54/main_unc/rightBlue\GB_RB_5.xlsx
511	main_unc	True	0.0	632	0	9.0	9.0	0.0	1	left	1.0	1.0	1.0	0	-0.0617732805945	blockFiles/set_54/main_unc/rightBlue\GB_RB_5.xlsx
512	main_unc	True	0.0	632	0	9.0	9.0	0.0	0	left	2.0	1.0	1.0	1	0.0162216426991	blockFiles/set_54/main_unc/rightBlue\GB_RB_5.xlsx
513	main_unc	True	0.0	632	0	9.0	9.0	1.0	1	right	2.0	1.0	1.0	1	0.0695587622188	blockFiles/set_54/main_unc/rightBlue\GB_RB_5.xlsx
514	main_unc	True	0.0	632	0	9.0	9.0	1.0	1	right	2.0	1.0	1.0	1	0.0130347857811	blockFiles/set_54/main_unc/rightBlue\GB_RB_5.xlsx
515	main_unc	True	0.0	632	0	10.0	10.0	1.0	0	right	2.0	0.0	0.0	0	-0.0180000427365	blockFiles/set_54/main_unc/rightBlue\GB_RB_4.xlsx
516	main_unc	True	0.0	632	0	10.0	10.0	0.0	1	left	2.0	0.0	0.0	0	-0.064706134256	blockFiles/set_54/main_unc/rightBlue\GB_RB_4.xlsx
517	main_unc	True	0.0	632	0	10.0	10.0	0.0	1	left	2.0	1.0	0.0	0	-0.00121412910521	blockFiles/set_54/main_unc/rightBlue\GB_RB_4.xlsx
518	main_unc	True	0.0	632	0	10.0	10.0	0.0	1	left	1.0	1.0	1.0	0	-0.07442821841689999	blockFiles/set_54/main_unc/rightBlue\GB_RB_4.xlsx
519	main_unc	True	0.0	632	0	10.0	10.0	1.0	1	right	2.0	1.0	1.0	1	0.059625811520999994	blockFiles/set_54/main_unc/rightBlue\GB_RB_4.xlsx
520	main_unc	True	0.0	632	0	10.0	10.0	1.0	1	right	2.0	1.0	1.0	1	0.012260986734200001	blockFiles/set_54/main_unc/rightBlue\GB_RB_4.xlsx
521	main_unc	True	0.0	632	0	10.0	10.0	0.0	1	left	1.0	1.0	1.0	0	-0.0544952221215	blockFiles/set_54/main_unc/rightBlue\GB_RB_4.xlsx
522	main_unc	True	0.0	632	0	10.0	10.0	0.0	1	left	1.0	1.0	1.0	0	-0.0723295945115	blockFiles/set_54/main_unc/rightBlue\GB_RB_4.xlsx
523	main_unc	True	0.0	632	0	10.0	10.0	1.0	1	right	2.0	1.0	1.0	1	0.0542698761635	blockFiles/set_54/main_unc/rightBlue\GB_RB_4.xlsx
524	main_unc	True	0.0	632	0	10.0	10.0	1.0	1	right	2.0	1.0	1.0	1	0.0292298270017	blockFiles/set_54/main_unc/rightBlue\GB_RB_4.xlsx
525	main_unc	True	0.0	632	0	10.0	10.0	0.0	1	left	1.0	0.0	1.0	0	-0.0315605400316	blockFiles/set_54/main_unc/rightBlue\GB_RB_4.xlsx
526	main_unc	True	0.0	632	0	10.0	10.0	1.0	0	right	2.0	1.0	0.0	0	-0.0120289067738	blockFiles/set_54/main_unc/rightBlue\GB_RB_4.xlsx
527	main_unc	True	0.0	632	0	10.0	10.0	1.0	1	right	2.0	1.0	1.0	1	0.054265417419400004	blockFiles/set_54/main_unc/rightBlue\GB_RB_4.xlsx
528	main_unc	True	0.0	632	0	10.0	10.0	1.0	0	right	1.0	1.0	1.0	0	-0.011355795115200002	blockFiles/set_54/main_unc/rightBlue\GB_RB_4.xlsx
529	main_unc	True	0.0	632	0	10.0	10.0	0.0	0	left	2.0	1.0	1.0	1	0.0576215442456	blockFiles/set_54/main_unc/rightBlue\GB_RB_4.xlsx
530	main_unc	True	0.0	632	0	10.0	10.0	0.0	1	left	1.0	0.0	1.0	0	-0.0598227987252	blockFiles/set_54/main_unc/rightBlue\GB_RB_4.xlsx
531	main_unc	True	0.0	632	0	10.0	10.0	1.0	1	right	2.0	1.0	1.0	1	0.07440111720930001	blockFiles/set_54/main_unc/rightBlue\GB_RB_4.xlsx
532	main_unc	True	0.0	632	0	10.0	10.0	1.0	1	right	2.0	1.0	1.0	1	0.0502420382202	blockFiles/set_54/main_unc/rightBlue\GB_RB_4.xlsx
533	main_unc	True	0.0	632	0	10.0	10.0	1.0	1	right	1.0	0.0	0.0	1	0.00360663408414	blockFiles/set_54/main_unc/rightBlue\GB_RB_4.xlsx
534	main_unc	True	0.0	632	0	10.0	10.0	1.0	1	right	2.0	0.0	1.0	1	0.0585314333253	blockFiles/set_54/main_unc/rightBlue\GB_RB_4.xlsx
535	main_unc	True	0.0	632	0	10.0	10.0	0.0	1	left	1.0	1.0	1.0	0	-0.0154263405502	blockFiles/set_54/main_unc/rightBlue\GB_RB_4.xlsx
536	main_unc	True	0.0	632	0	10.0	10.0	1.0	1	right	2.0	1.0	1.0	1	0.0387178743817	blockFiles/set_54/main_unc/rightBlue\GB_RB_4.xlsx
537	main_unc	True	0.0	632	0	10.0	10.0	0.0	1	left	1.0	1.0	1.0	0	-0.019656643625299997	blockFiles/set_54/main_unc/rightBlue\GB_RB_4.xlsx
538	main_unc	True	0.0	632	0	10.0	10.0	1.0	1	right	1.0	1.0	0.0	1	0.07765287479389998	blockFiles/set_54/main_unc/rightBlue\GB_RB_4.xlsx
539	main_unc	True	0.0	632	0	10.0	10.0	0.0	1	left	2.0	0.0	0.0	0	-0.0300269030593	blockFiles/set_54/main_unc/rightBlue\GB_RB_4.xlsx
540	main_unc	True	0.0	632	0	11.0	11.0	1.0	1	right	2.0	1.0	1.0	1	0.0491870052926	blockFiles/set_54/main_unc/rightBlue\GB_RB_3.xlsx
541	main_unc	True	0.0	632	0	11.0	11.0	0.0	1	left	2.0	0.0	0.0	0	-0.026878000609599998	blockFiles/set_54/main_unc/rightBlue\GB_RB_3.xlsx
542	main_unc	True	0.0	632	0	11.0	11.0	0.0	1	left	2.0	0.0	0.0	0	-0.000114487167448	blockFiles/set_54/main_unc/rightBlue\GB_RB_3.xlsx
543	main_unc	True	0.0	632	0	11.0	11.0	0.0	1	left	1.0	0.0	1.0	0	-0.07957865186039999	blockFiles/set_54/main_unc/rightBlue\GB_RB_3.xlsx
544	main_unc	True	0.0	632	0	11.0	11.0	0.0	0	left	2.0	1.0	1.0	1	0.0169002857059	blockFiles/set_54/main_unc/rightBlue\GB_RB_3.xlsx
545	main_unc	True	0.0	632	0	11.0	11.0	0.0	1	left	1.0	1.0	1.0	0	-0.0715784650669	blockFiles/set_54/main_unc/rightBlue\GB_RB_3.xlsx
546	main_unc	True	0.0	632	0	11.0	11.0	1.0	1	right	2.0	1.0	1.0	1	0.0217594535649	blockFiles/set_54/main_unc/rightBlue\GB_RB_3.xlsx
547	main_unc	True	0.0	632	0	11.0	11.0	0.0	1	left	1.0	1.0	1.0	0	-0.043440966810999994	blockFiles/set_54/main_unc/rightBlue\GB_RB_3.xlsx
548	main_unc	True	0.0	632	0	11.0	11.0	0.0	1	left	1.0	1.0	1.0	0	-0.0361361353472	blockFiles/set_54/main_unc/rightBlue\GB_RB_3.xlsx
549	main_unc	True	0.0	632	0	11.0	11.0	1.0	1	right	2.0	1.0	1.0	1	0.0315088154376	blockFiles/set_54/main_unc/rightBlue\GB_RB_3.xlsx
550	main_unc	True	0.0	632	0	11.0	11.0	0.0	1	left	2.0	0.0	0.0	0	-0.00975764613599	blockFiles/set_54/main_unc/rightBlue\GB_RB_3.xlsx
551	main_unc	True	0.0	632	0	11.0	11.0	1.0	1	right	1.0	1.0	0.0	1	0.0598521926627	blockFiles/set_54/main_unc/rightBlue\GB_RB_3.xlsx
552	main_unc	True	0.0	632	0	11.0	11.0	0.0	1	left	1.0	1.0	1.0	0	-0.0185290200263	blockFiles/set_54/main_unc/rightBlue\GB_RB_3.xlsx
553	main_unc	True	0.0	632	0	11.0	11.0	0.0	0	left	2.0	1.0	1.0	1	0.0432611411065	blockFiles/set_54/main_unc/rightBlue\GB_RB_3.xlsx
554	main_unc	True	0.0	632	0	11.0	11.0	0.0	1	left	1.0	0.0	1.0	0	-0.051637985631800006	blockFiles/set_54/main_unc/rightBlue\GB_RB_3.xlsx
555	main_unc	True	0.0	632	0	11.0	11.0	1.0	1	right	2.0	1.0	1.0	1	0.0656796537712	blockFiles/set_54/main_unc/rightBlue\GB_RB_3.xlsx
556	main_unc	True	0.0	632	0	11.0	11.0	1.0	0	right	1.0	1.0	1.0	0	-0.0212491786852	blockFiles/set_54/main_unc/rightBlue\GB_RB_3.xlsx
557	main_unc	True	0.0	632	0	11.0	11.0	1.0	1	right	2.0	1.0	1.0	1	0.0192260235921	blockFiles/set_54/main_unc/rightBlue\GB_RB_3.xlsx
558	main_unc	True	0.0	632	0	11.0	11.0	1.0	1	right	2.0	1.0	1.0	1	0.0195153871179	blockFiles/set_54/main_unc/rightBlue\GB_RB_3.xlsx
559	main_unc	True	0.0	632	0	11.0	11.0	1.0	1	right	2.0	0.0	1.0	1	0.06310545556250001	blockFiles/set_54/main_unc/rightBlue\GB_RB_3.xlsx
560	main_unc	True	0.0	632	0	11.0	11.0	0.0	1	left	1.0	0.0	1.0	0	-0.0751288413629	blockFiles/set_54/main_unc/rightBlue\GB_RB_3.xlsx
561	main_unc	True	0.0	632	0	11.0	11.0	0.0	1	left	1.0	1.0	1.0	0	-0.06772690566259999	blockFiles/set_54/main_unc/rightBlue\GB_RB_3.xlsx
562	main_unc	True	0.0	632	0	11.0	11.0	0.0	1	left	1.0	1.0	1.0	0	-0.0331530799158	blockFiles/set_54/main_unc/rightBlue\GB_RB_3.xlsx
563	main_unc	True	0.0	632	0	11.0	11.0	0.0	0	left	2.0	1.0	1.0	1	0.00210367051885	blockFiles/set_54/main_unc/rightBlue\GB_RB_3.xlsx
564	main_unc	True	0.0	632	0	11.0	11.0	1.0	1	right	2.0	1.0	1.0	1	0.0251223209128	blockFiles/set_54/main_unc/rightBlue\GB_RB_3.xlsx
