	trial_type	complete	missIndex	participant	id	blockNumber	b_t	d_t	decision1.corr	decision1.keys	a_t	r_t	decision2.corr	s_t	u_t	block_file
0	main_safe	True	0.0	350	0	0.0	0.0	1.0	1	right	2.0	1.0	1.0	1	0.08	blockFiles/set_42/main_safe/rightBlue\GB_RB_3.xlsx
1	main_safe	True	0.0	350	0	0.0	0.0	1.0	1	right	2.0	1.0	1.0	1	0.08	blockFiles/set_42/main_safe/rightBlue\GB_RB_3.xlsx
2	main_safe	True	0.0	350	0	0.0	0.0	1.0	1	right	2.0	1.0	1.0	1	0.08	blockFiles/set_42/main_safe/rightBlue\GB_RB_3.xlsx
3	main_safe	True	0.0	350	0	0.0	0.0	0.0	1	left	1.0	1.0	1.0	0	-0.08	blockFiles/set_42/main_safe/rightBlue\GB_RB_3.xlsx
4	main_safe	True	0.0	350	0	0.0	0.0	0.0	1	left	1.0	1.0	1.0	0	-0.08	blockFiles/set_42/main_safe/rightBlue\GB_RB_3.xlsx
5	main_safe	True	0.0	350	0	0.0	0.0	1.0	1	right	2.0	1.0	1.0	1	0.08	blockFiles/set_42/main_safe/rightBlue\GB_RB_3.xlsx
6	main_safe	True	0.0	350	0	0.0	0.0	0.0	1	left	1.0	1.0	1.0	0	-0.08	blockFiles/set_42/main_safe/rightBlue\GB_RB_3.xlsx
7	main_safe	True	0.0	350	0	0.0	0.0	1.0	1	right	2.0	0.0	1.0	1	0.08	blockFiles/set_42/main_safe/rightBlue\GB_RB_3.xlsx
8	main_safe	True	0.0	350	0	0.0	0.0	0.0	1	left	1.0	1.0	1.0	0	-0.08	blockFiles/set_42/main_safe/rightBlue\GB_RB_3.xlsx
9	main_safe	True	0.0	350	0	0.0	0.0	0.0	1	left	1.0	1.0	1.0	0	-0.08	blockFiles/set_42/main_safe/rightBlue\GB_RB_3.xlsx
10	main_safe	True	0.0	350	0	0.0	0.0	0.0	1	left	1.0	1.0	1.0	0	-0.08	blockFiles/set_42/main_safe/rightBlue\GB_RB_3.xlsx
11	main_safe	True	0.0	350	0	0.0	0.0	0.0	1	left	1.0	1.0	1.0	0	-0.08	blockFiles/set_42/main_safe/rightBlue\GB_RB_3.xlsx
12	main_safe	True	0.0	350	0	0.0	0.0	1.0	1	right	2.0	1.0	1.0	1	0.08	blockFiles/set_42/main_safe/rightBlue\GB_RB_3.xlsx
13	main_safe	True	0.0	350	0	0.0	0.0	1.0	1	right	2.0	0.0	1.0	1	0.08	blockFiles/set_42/main_safe/rightBlue\GB_RB_3.xlsx
14	main_safe	True	0.0	350	0	0.0	0.0	0.0	1	left	1.0	1.0	1.0	0	-0.08	blockFiles/set_42/main_safe/rightBlue\GB_RB_3.xlsx
15	main_safe	True	0.0	350	0	0.0	0.0	0.0	1	left	1.0	1.0	1.0	0	-0.08	blockFiles/set_42/main_safe/rightBlue\GB_RB_3.xlsx
16	main_safe	True	0.0	350	0	0.0	0.0	1.0	1	right	2.0	1.0	1.0	1	0.08	blockFiles/set_42/main_safe/rightBlue\GB_RB_3.xlsx
17	main_safe	True	0.0	350	0	0.0	0.0	1.0	1	right	2.0	1.0	1.0	1	0.08	blockFiles/set_42/main_safe/rightBlue\GB_RB_3.xlsx
18	main_safe	True	0.0	350	0	0.0	0.0	1.0	1	right	2.0	1.0	1.0	1	0.08	blockFiles/set_42/main_safe/rightBlue\GB_RB_3.xlsx
19	main_safe	True	0.0	350	0	0.0	0.0	0.0	1	left	1.0	1.0	1.0	0	-0.08	blockFiles/set_42/main_safe/rightBlue\GB_RB_3.xlsx
20	main_safe	True	0.0	350	0	0.0	0.0	1.0	1	right	2.0	1.0	1.0	1	0.08	blockFiles/set_42/main_safe/rightBlue\GB_RB_3.xlsx
21	main_safe	True	0.0	350	0	0.0	0.0	0.0	1	left	1.0	0.0	1.0	0	-0.08	blockFiles/set_42/main_safe/rightBlue\GB_RB_3.xlsx
22	main_safe	True	0.0	350	0	0.0	0.0	1.0	1	right	2.0	0.0	1.0	1	0.08	blockFiles/set_42/main_safe/rightBlue\GB_RB_3.xlsx
23	main_safe	True	0.0	350	0	0.0	0.0	0.0	1	left	1.0	1.0	1.0	0	-0.08	blockFiles/set_42/main_safe/rightBlue\GB_RB_3.xlsx
24	main_safe	True	0.0	350	0	0.0	0.0	1.0	1	right	2.0	1.0	1.0	1	0.08	blockFiles/set_42/main_safe/rightBlue\GB_RB_3.xlsx
25	main_safe	True	0.0	350	0	1.0	1.0	0.0	1	left	2.0	1.0	1.0	0	-0.08	blockFiles/set_42/main_safe/leftBlue\GB_LB_2.xlsx
26	main_safe	True	0.0	350	0	1.0	1.0	0.0	1	left	2.0	1.0	1.0	0	-0.08	blockFiles/set_42/main_safe/leftBlue\GB_LB_2.xlsx
27	main_safe	True	0.0	350	0	1.0	1.0	0.0	1	left	2.0	1.0	1.0	0	-0.08	blockFiles/set_42/main_safe/leftBlue\GB_LB_2.xlsx
28	main_safe	True	0.0	350	0	1.0	1.0	0.0	1	left	2.0	0.0	1.0	0	-0.08	blockFiles/set_42/main_safe/leftBlue\GB_LB_2.xlsx
29	main_safe	True	0.0	350	0	1.0	1.0	0.0	1	left	2.0	1.0	1.0	0	-0.08	blockFiles/set_42/main_safe/leftBlue\GB_LB_2.xlsx
30	main_safe	True	0.0	350	0	1.0	1.0	1.0	1	right	1.0	1.0	1.0	1	0.08	blockFiles/set_42/main_safe/leftBlue\GB_LB_2.xlsx
31	main_safe	True	0.0	350	0	1.0	1.0	0.0	1	left	2.0	0.0	1.0	0	-0.08	blockFiles/set_42/main_safe/leftBlue\GB_LB_2.xlsx
32	main_safe	True	0.0	350	0	1.0	1.0	1.0	1	right	1.0	1.0	1.0	1	0.08	blockFiles/set_42/main_safe/leftBlue\GB_LB_2.xlsx
33	main_safe	True	0.0	350	0	1.0	1.0	0.0	1	left	2.0	1.0	1.0	0	-0.08	blockFiles/set_42/main_safe/leftBlue\GB_LB_2.xlsx
34	main_safe	True	0.0	350	0	1.0	1.0	1.0	1	right	1.0	1.0	1.0	1	0.08	blockFiles/set_42/main_safe/leftBlue\GB_LB_2.xlsx
35	main_safe	True	0.0	350	0	1.0	1.0	1.0	1	right	1.0	1.0	1.0	1	0.08	blockFiles/set_42/main_safe/leftBlue\GB_LB_2.xlsx
36	main_safe	True	0.0	350	0	1.0	1.0	0.0	1	left	2.0	1.0	1.0	0	-0.08	blockFiles/set_42/main_safe/leftBlue\GB_LB_2.xlsx
37	main_safe	True	0.0	350	0	1.0	1.0	0.0	1	left	2.0	1.0	1.0	0	-0.08	blockFiles/set_42/main_safe/leftBlue\GB_LB_2.xlsx
38	main_safe	True	0.0	350	0	1.0	1.0	1.0	1	right	1.0	1.0	1.0	1	0.08	blockFiles/set_42/main_safe/leftBlue\GB_LB_2.xlsx
39	main_safe	True	0.0	350	0	1.0	1.0	0.0	1	left	2.0	0.0	1.0	0	-0.08	blockFiles/set_42/main_safe/leftBlue\GB_LB_2.xlsx
40	main_safe	True	0.0	350	0	1.0	1.0	1.0	1	right	1.0	1.0	1.0	1	0.08	blockFiles/set_42/main_safe/leftBlue\GB_LB_2.xlsx
41	main_safe	True	0.0	350	0	1.0	1.0	1.0	1	right	1.0	1.0	1.0	1	0.08	blockFiles/set_42/main_safe/leftBlue\GB_LB_2.xlsx
42	main_safe	True	0.0	350	0	1.0	1.0	1.0	1	right	1.0	1.0	1.0	1	0.08	blockFiles/set_42/main_safe/leftBlue\GB_LB_2.xlsx
43	main_safe	True	0.0	350	0	1.0	1.0	1.0	1	right	1.0	1.0	1.0	1	0.08	blockFiles/set_42/main_safe/leftBlue\GB_LB_2.xlsx
44	main_safe	True	0.0	350	0	1.0	1.0	1.0	1	right	1.0	0.0	1.0	1	0.08	blockFiles/set_42/main_safe/leftBlue\GB_LB_2.xlsx
45	main_safe	True	0.0	350	0	1.0	1.0	0.0	1	left	2.0	1.0	1.0	0	-0.08	blockFiles/set_42/main_safe/leftBlue\GB_LB_2.xlsx
46	main_safe	True	0.0	350	0	1.0	1.0	1.0	1	right	1.0	1.0	1.0	1	0.08	blockFiles/set_42/main_safe/leftBlue\GB_LB_2.xlsx
47	main_safe	True	0.0	350	0	1.0	1.0	0.0	1	left	2.0	0.0	1.0	0	-0.08	blockFiles/set_42/main_safe/leftBlue\GB_LB_2.xlsx
48	main_safe	True	0.0	350	0	1.0	1.0	0.0	1	left	2.0	0.0	1.0	0	-0.08	blockFiles/set_42/main_safe/leftBlue\GB_LB_2.xlsx
49	main_safe	True	0.0	350	0	1.0	1.0	1.0	1	right	1.0	1.0	1.0	1	0.08	blockFiles/set_42/main_safe/leftBlue\GB_LB_2.xlsx
50	main_safe	True	1.0	350	0	2.0	2.0	1.0	1	right	n/a	0.0	n/a	1	0.08	blockFiles/set_42/main_safe/rightBlue\GB_RB_2.xlsx
51	main_safe	True	0.0	350	0	2.0	2.0	0.0	1	left	1.0	1.0	1.0	0	-0.08	blockFiles/set_42/main_safe/rightBlue\GB_RB_2.xlsx
52	main_safe	True	0.0	350	0	2.0	2.0	1.0	1	right	2.0	1.0	1.0	1	0.08	blockFiles/set_42/main_safe/rightBlue\GB_RB_2.xlsx
53	main_safe	True	0.0	350	0	2.0	2.0	0.0	1	left	1.0	1.0	1.0	0	-0.08	blockFiles/set_42/main_safe/rightBlue\GB_RB_2.xlsx
54	main_safe	True	0.0	350	0	2.0	2.0	1.0	1	right	2.0	1.0	1.0	1	0.08	blockFiles/set_42/main_safe/rightBlue\GB_RB_2.xlsx
55	main_safe	True	0.0	350	0	2.0	2.0	1.0	1	right	2.0	1.0	1.0	1	0.08	blockFiles/set_42/main_safe/rightBlue\GB_RB_2.xlsx
56	main_safe	True	0.0	350	0	2.0	2.0	0.0	1	left	1.0	1.0	1.0	0	-0.08	blockFiles/set_42/main_safe/rightBlue\GB_RB_2.xlsx
57	main_safe	True	0.0	350	0	2.0	2.0	0.0	1	left	1.0	0.0	1.0	0	-0.08	blockFiles/set_42/main_safe/rightBlue\GB_RB_2.xlsx
58	main_safe	True	0.0	350	0	2.0	2.0	1.0	1	right	2.0	1.0	1.0	1	0.08	blockFiles/set_42/main_safe/rightBlue\GB_RB_2.xlsx
59	main_safe	True	0.0	350	0	2.0	2.0	0.0	1	left	1.0	1.0	1.0	0	-0.08	blockFiles/set_42/main_safe/rightBlue\GB_RB_2.xlsx
60	main_safe	True	0.0	350	0	2.0	2.0	1.0	1	right	2.0	1.0	1.0	1	0.08	blockFiles/set_42/main_safe/rightBlue\GB_RB_2.xlsx
61	main_safe	True	0.0	350	0	2.0	2.0	0.0	1	left	1.0	1.0	1.0	0	-0.08	blockFiles/set_42/main_safe/rightBlue\GB_RB_2.xlsx
62	main_safe	True	0.0	350	0	2.0	2.0	1.0	1	right	2.0	1.0	1.0	1	0.08	blockFiles/set_42/main_safe/rightBlue\GB_RB_2.xlsx
63	main_safe	True	0.0	350	0	2.0	2.0	0.0	1	left	1.0	1.0	1.0	0	-0.08	blockFiles/set_42/main_safe/rightBlue\GB_RB_2.xlsx
64	main_safe	True	0.0	350	0	2.0	2.0	1.0	1	right	2.0	1.0	1.0	1	0.08	blockFiles/set_42/main_safe/rightBlue\GB_RB_2.xlsx
65	main_safe	True	0.0	350	0	2.0	2.0	1.0	1	right	2.0	0.0	1.0	1	0.08	blockFiles/set_42/main_safe/rightBlue\GB_RB_2.xlsx
66	main_safe	True	0.0	350	0	2.0	2.0	1.0	1	right	2.0	0.0	1.0	1	0.08	blockFiles/set_42/main_safe/rightBlue\GB_RB_2.xlsx
67	main_safe	True	0.0	350	0	2.0	2.0	1.0	1	right	2.0	1.0	1.0	1	0.08	blockFiles/set_42/main_safe/rightBlue\GB_RB_2.xlsx
68	main_safe	True	0.0	350	0	2.0	2.0	0.0	1	left	1.0	0.0	1.0	0	-0.08	blockFiles/set_42/main_safe/rightBlue\GB_RB_2.xlsx
69	main_safe	True	0.0	350	0	2.0	2.0	0.0	1	left	1.0	1.0	1.0	0	-0.08	blockFiles/set_42/main_safe/rightBlue\GB_RB_2.xlsx
70	main_safe	True	0.0	350	0	2.0	2.0	1.0	1	right	2.0	1.0	1.0	1	0.08	blockFiles/set_42/main_safe/rightBlue\GB_RB_2.xlsx
71	main_safe	True	0.0	350	0	2.0	2.0	0.0	1	left	1.0	1.0	1.0	0	-0.08	blockFiles/set_42/main_safe/rightBlue\GB_RB_2.xlsx
72	main_safe	True	0.0	350	0	2.0	2.0	0.0	1	left	1.0	1.0	1.0	0	-0.08	blockFiles/set_42/main_safe/rightBlue\GB_RB_2.xlsx
73	main_safe	True	0.0	350	0	2.0	2.0	1.0	1	right	2.0	1.0	1.0	1	0.08	blockFiles/set_42/main_safe/rightBlue\GB_RB_2.xlsx
74	main_safe	True	0.0	350	0	2.0	2.0	1.0	1	right	2.0	1.0	1.0	1	0.08	blockFiles/set_42/main_safe/rightBlue\GB_RB_2.xlsx
75	main_safe	True	0.0	350	0	2.0	2.0	1.0	1	right	2.0	0.0	1.0	1	0.08	blockFiles/set_42/main_safe/rightBlue\GB_RB_2.xlsx
76	main_safe	True	0.0	350	0	3.0	3.0	0.0	1	left	1.0	1.0	0.0	0	-0.08	blockFiles/set_42/main_safe/leftBlue\GB_LB_1.xlsx
77	main_safe	True	0.0	350	0	3.0	3.0	0.0	1	left	1.0	0.0	0.0	0	-0.08	blockFiles/set_42/main_safe/leftBlue\GB_LB_1.xlsx
78	main_safe	True	0.0	350	0	3.0	3.0	0.0	1	left	1.0	0.0	0.0	0	-0.08	blockFiles/set_42/main_safe/leftBlue\GB_LB_1.xlsx
79	main_safe	True	0.0	350	0	3.0	3.0	0.0	1	left	2.0	1.0	1.0	0	-0.08	blockFiles/set_42/main_safe/leftBlue\GB_LB_1.xlsx
80	main_safe	True	0.0	350	0	3.0	3.0	0.0	1	left	2.0	1.0	1.0	0	-0.08	blockFiles/set_42/main_safe/leftBlue\GB_LB_1.xlsx
81	main_safe	True	0.0	350	0	3.0	3.0	1.0	1	right	1.0	1.0	1.0	1	0.08	blockFiles/set_42/main_safe/leftBlue\GB_LB_1.xlsx
82	main_safe	True	0.0	350	0	3.0	3.0	0.0	1	left	2.0	1.0	1.0	0	-0.08	blockFiles/set_42/main_safe/leftBlue\GB_LB_1.xlsx
83	main_safe	True	0.0	350	0	3.0	3.0	1.0	1	right	1.0	1.0	1.0	1	0.08	blockFiles/set_42/main_safe/leftBlue\GB_LB_1.xlsx
84	main_safe	True	0.0	350	0	3.0	3.0	1.0	1	right	1.0	1.0	1.0	1	0.08	blockFiles/set_42/main_safe/leftBlue\GB_LB_1.xlsx
85	main_safe	True	0.0	350	0	3.0	3.0	1.0	1	right	1.0	1.0	1.0	1	0.08	blockFiles/set_42/main_safe/leftBlue\GB_LB_1.xlsx
86	main_safe	True	0.0	350	0	3.0	3.0	0.0	1	left	2.0	1.0	1.0	0	-0.08	blockFiles/set_42/main_safe/leftBlue\GB_LB_1.xlsx
87	main_safe	True	0.0	350	0	3.0	3.0	0.0	1	left	2.0	1.0	1.0	0	-0.08	blockFiles/set_42/main_safe/leftBlue\GB_LB_1.xlsx
88	main_safe	True	0.0	350	0	3.0	3.0	1.0	1	right	1.0	0.0	1.0	1	0.08	blockFiles/set_42/main_safe/leftBlue\GB_LB_1.xlsx
89	main_safe	True	0.0	350	0	3.0	3.0	0.0	1	left	2.0	1.0	1.0	0	-0.08	blockFiles/set_42/main_safe/leftBlue\GB_LB_1.xlsx
90	main_safe	True	0.0	350	0	3.0	3.0	0.0	1	left	2.0	1.0	1.0	0	-0.08	blockFiles/set_42/main_safe/leftBlue\GB_LB_1.xlsx
91	main_safe	True	0.0	350	0	3.0	3.0	1.0	1	right	1.0	0.0	1.0	1	0.08	blockFiles/set_42/main_safe/leftBlue\GB_LB_1.xlsx
92	main_safe	True	0.0	350	0	3.0	3.0	1.0	1	right	1.0	0.0	1.0	1	0.08	blockFiles/set_42/main_safe/leftBlue\GB_LB_1.xlsx
93	main_safe	True	0.0	350	0	3.0	3.0	0.0	1	left	1.0	0.0	0.0	0	-0.08	blockFiles/set_42/main_safe/leftBlue\GB_LB_1.xlsx
94	main_safe	True	0.0	350	0	3.0	3.0	1.0	1	right	1.0	0.0	1.0	1	0.08	blockFiles/set_42/main_safe/leftBlue\GB_LB_1.xlsx
95	main_safe	True	0.0	350	0	3.0	3.0	1.0	1	right	1.0	1.0	1.0	1	0.08	blockFiles/set_42/main_safe/leftBlue\GB_LB_1.xlsx
96	main_safe	True	0.0	350	0	3.0	3.0	0.0	1	left	2.0	1.0	1.0	0	-0.08	blockFiles/set_42/main_safe/leftBlue\GB_LB_1.xlsx
97	main_safe	True	0.0	350	0	3.0	3.0	1.0	1	right	1.0	1.0	1.0	1	0.08	blockFiles/set_42/main_safe/leftBlue\GB_LB_1.xlsx
98	main_safe	True	0.0	350	0	3.0	3.0	1.0	1	right	1.0	1.0	1.0	1	0.08	blockFiles/set_42/main_safe/leftBlue\GB_LB_1.xlsx
99	main_safe	True	0.0	350	0	3.0	3.0	0.0	1	left	2.0	1.0	1.0	0	-0.08	blockFiles/set_42/main_safe/leftBlue\GB_LB_1.xlsx
100	main_safe	True	0.0	350	0	3.0	3.0	1.0	1	right	1.0	1.0	1.0	1	0.08	blockFiles/set_42/main_safe/leftBlue\GB_LB_1.xlsx
101	main_safe	True	0.0	350	0	4.0	4.0	1.0	1	right	2.0	1.0	1.0	1	0.08	blockFiles/set_42/main_safe/rightBlue\GB_RB_1.xlsx
102	main_safe	True	0.0	350	0	4.0	4.0	0.0	1	left	1.0	0.0	1.0	0	-0.08	blockFiles/set_42/main_safe/rightBlue\GB_RB_1.xlsx
103	main_safe	True	0.0	350	0	4.0	4.0	0.0	1	left	1.0	1.0	1.0	0	-0.08	blockFiles/set_42/main_safe/rightBlue\GB_RB_1.xlsx
104	main_safe	True	0.0	350	0	4.0	4.0	1.0	1	right	2.0	1.0	1.0	1	0.08	blockFiles/set_42/main_safe/rightBlue\GB_RB_1.xlsx
105	main_safe	True	0.0	350	0	4.0	4.0	1.0	1	right	2.0	1.0	1.0	1	0.08	blockFiles/set_42/main_safe/rightBlue\GB_RB_1.xlsx
106	main_safe	True	0.0	350	0	4.0	4.0	1.0	1	right	2.0	0.0	1.0	1	0.08	blockFiles/set_42/main_safe/rightBlue\GB_RB_1.xlsx
107	main_safe	True	0.0	350	0	4.0	4.0	1.0	1	right	2.0	1.0	1.0	1	0.08	blockFiles/set_42/main_safe/rightBlue\GB_RB_1.xlsx
108	main_safe	True	0.0	350	0	4.0	4.0	0.0	1	left	1.0	0.0	1.0	0	-0.08	blockFiles/set_42/main_safe/rightBlue\GB_RB_1.xlsx
109	main_safe	True	0.0	350	0	4.0	4.0	0.0	1	left	1.0	1.0	1.0	0	-0.08	blockFiles/set_42/main_safe/rightBlue\GB_RB_1.xlsx
110	main_safe	True	0.0	350	0	4.0	4.0	0.0	1	left	1.0	1.0	1.0	0	-0.08	blockFiles/set_42/main_safe/rightBlue\GB_RB_1.xlsx
111	main_safe	True	0.0	350	0	4.0	4.0	1.0	1	right	1.0	0.0	0.0	1	0.08	blockFiles/set_42/main_safe/rightBlue\GB_RB_1.xlsx
112	main_safe	True	0.0	350	0	4.0	4.0	0.0	1	left	1.0	1.0	1.0	0	-0.08	blockFiles/set_42/main_safe/rightBlue\GB_RB_1.xlsx
113	main_safe	True	0.0	350	0	4.0	4.0	1.0	1	right	2.0	1.0	1.0	1	0.08	blockFiles/set_42/main_safe/rightBlue\GB_RB_1.xlsx
114	main_safe	True	0.0	350	0	4.0	4.0	1.0	1	right	2.0	1.0	1.0	1	0.08	blockFiles/set_42/main_safe/rightBlue\GB_RB_1.xlsx
115	main_safe	True	0.0	350	0	4.0	4.0	0.0	1	left	1.0	1.0	1.0	0	-0.08	blockFiles/set_42/main_safe/rightBlue\GB_RB_1.xlsx
116	main_safe	True	0.0	350	0	4.0	4.0	1.0	1	right	2.0	1.0	1.0	1	0.08	blockFiles/set_42/main_safe/rightBlue\GB_RB_1.xlsx
117	main_safe	True	0.0	350	0	4.0	4.0	0.0	1	left	1.0	0.0	1.0	0	-0.08	blockFiles/set_42/main_safe/rightBlue\GB_RB_1.xlsx
118	main_safe	True	0.0	350	0	4.0	4.0	0.0	1	left	1.0	1.0	1.0	0	-0.08	blockFiles/set_42/main_safe/rightBlue\GB_RB_1.xlsx
119	main_safe	True	0.0	350	0	4.0	4.0	0.0	1	left	1.0	1.0	1.0	0	-0.08	blockFiles/set_42/main_safe/rightBlue\GB_RB_1.xlsx
120	main_safe	True	0.0	350	0	4.0	4.0	0.0	1	left	1.0	1.0	1.0	0	-0.08	blockFiles/set_42/main_safe/rightBlue\GB_RB_1.xlsx
121	main_safe	True	0.0	350	0	4.0	4.0	1.0	1	right	2.0	1.0	1.0	1	0.08	blockFiles/set_42/main_safe/rightBlue\GB_RB_1.xlsx
122	main_safe	True	0.0	350	0	4.0	4.0	0.0	1	left	1.0	1.0	1.0	0	-0.08	blockFiles/set_42/main_safe/rightBlue\GB_RB_1.xlsx
123	main_safe	True	0.0	350	0	4.0	4.0	1.0	1	right	2.0	0.0	1.0	1	0.08	blockFiles/set_42/main_safe/rightBlue\GB_RB_1.xlsx
124	main_safe	True	0.0	350	0	4.0	4.0	1.0	1	right	2.0	1.0	1.0	1	0.08	blockFiles/set_42/main_safe/rightBlue\GB_RB_1.xlsx
125	main_safe	True	0.0	350	0	4.0	4.0	1.0	1	right	2.0	1.0	1.0	1	0.08	blockFiles/set_42/main_safe/rightBlue\GB_RB_1.xlsx
126	main_safe	True	0.0	350	0	5.0	5.0	0.0	1	left	1.0	1.0	0.0	0	-0.08	blockFiles/set_42/main_safe/leftBlue\GB_LB_3.xlsx
127	main_safe	True	0.0	350	0	5.0	5.0	0.0	1	left	1.0	0.0	0.0	0	-0.08	blockFiles/set_42/main_safe/leftBlue\GB_LB_3.xlsx
128	main_safe	True	0.0	350	0	5.0	5.0	1.0	1	right	1.0	1.0	1.0	1	0.08	blockFiles/set_42/main_safe/leftBlue\GB_LB_3.xlsx
129	main_safe	True	0.0	350	0	5.0	5.0	0.0	1	left	2.0	1.0	1.0	0	-0.08	blockFiles/set_42/main_safe/leftBlue\GB_LB_3.xlsx
130	main_safe	True	0.0	350	0	5.0	5.0	1.0	1	right	1.0	1.0	1.0	1	0.08	blockFiles/set_42/main_safe/leftBlue\GB_LB_3.xlsx
131	main_safe	True	0.0	350	0	5.0	5.0	0.0	1	left	2.0	1.0	1.0	0	-0.08	blockFiles/set_42/main_safe/leftBlue\GB_LB_3.xlsx
132	main_safe	True	0.0	350	0	5.0	5.0	0.0	1	left	2.0	1.0	1.0	0	-0.08	blockFiles/set_42/main_safe/leftBlue\GB_LB_3.xlsx
133	main_safe	True	0.0	350	0	5.0	5.0	1.0	1	right	1.0	1.0	1.0	1	0.08	blockFiles/set_42/main_safe/leftBlue\GB_LB_3.xlsx
134	main_safe	True	0.0	350	0	5.0	5.0	0.0	1	left	2.0	1.0	1.0	0	-0.08	blockFiles/set_42/main_safe/leftBlue\GB_LB_3.xlsx
135	main_safe	True	0.0	350	0	5.0	5.0	1.0	1	right	1.0	0.0	1.0	1	0.08	blockFiles/set_42/main_safe/leftBlue\GB_LB_3.xlsx
136	main_safe	True	0.0	350	0	5.0	5.0	1.0	1	right	1.0	1.0	1.0	1	0.08	blockFiles/set_42/main_safe/leftBlue\GB_LB_3.xlsx
137	main_safe	True	0.0	350	0	5.0	5.0	1.0	1	right	1.0	0.0	1.0	1	0.08	blockFiles/set_42/main_safe/leftBlue\GB_LB_3.xlsx
138	main_safe	True	0.0	350	0	5.0	5.0	0.0	1	left	2.0	1.0	1.0	0	-0.08	blockFiles/set_42/main_safe/leftBlue\GB_LB_3.xlsx
139	main_safe	True	0.0	350	0	5.0	5.0	0.0	1	left	2.0	1.0	1.0	0	-0.08	blockFiles/set_42/main_safe/leftBlue\GB_LB_3.xlsx
140	main_safe	True	0.0	350	0	5.0	5.0	0.0	1	left	2.0	1.0	1.0	0	-0.08	blockFiles/set_42/main_safe/leftBlue\GB_LB_3.xlsx
141	main_safe	True	0.0	350	0	5.0	5.0	1.0	1	right	1.0	0.0	1.0	1	0.08	blockFiles/set_42/main_safe/leftBlue\GB_LB_3.xlsx
142	main_safe	True	0.0	350	0	5.0	5.0	0.0	1	left	2.0	1.0	1.0	0	-0.08	blockFiles/set_42/main_safe/leftBlue\GB_LB_3.xlsx
143	main_safe	True	0.0	350	0	5.0	5.0	0.0	1	left	1.0	0.0	0.0	0	-0.08	blockFiles/set_42/main_safe/leftBlue\GB_LB_3.xlsx
144	main_safe	True	0.0	350	0	5.0	5.0	1.0	1	right	2.0	0.0	0.0	1	0.08	blockFiles/set_42/main_safe/leftBlue\GB_LB_3.xlsx
145	main_safe	True	0.0	350	0	5.0	5.0	1.0	1	right	1.0	1.0	1.0	1	0.08	blockFiles/set_42/main_safe/leftBlue\GB_LB_3.xlsx
146	main_safe	True	0.0	350	0	5.0	5.0	1.0	1	right	1.0	1.0	1.0	1	0.08	blockFiles/set_42/main_safe/leftBlue\GB_LB_3.xlsx
147	main_safe	True	0.0	350	0	5.0	5.0	0.0	1	left	2.0	0.0	1.0	0	-0.08	blockFiles/set_42/main_safe/leftBlue\GB_LB_3.xlsx
148	main_safe	True	0.0	350	0	5.0	5.0	1.0	1	right	1.0	0.0	1.0	1	0.08	blockFiles/set_42/main_safe/leftBlue\GB_LB_3.xlsx
149	main_safe	True	0.0	350	0	5.0	5.0	0.0	1	left	2.0	1.0	1.0	0	-0.08	blockFiles/set_42/main_safe/leftBlue\GB_LB_3.xlsx
150	main_safe	True	0.0	350	0	5.0	5.0	1.0	1	right	1.0	1.0	1.0	1	0.08	blockFiles/set_42/main_safe/leftBlue\GB_LB_3.xlsx
151	patches	True	n/a	350	0	n/a	n/a	1.0	1	right	n/a	n/a	n/a	1	0.0047598093003	blockFiles/set_42/main_PD/GB_runPatches1.xlsx
152	patches	True	n/a	350	0	n/a	n/a	0.0	1	left	n/a	n/a	n/a	0	-0.0755484956317	blockFiles/set_42/main_PD/GB_runPatches1.xlsx
153	patches	True	n/a	350	0	n/a	n/a	1.0	1	right	n/a	n/a	n/a	1	0.0432769799419	blockFiles/set_42/main_PD/GB_runPatches1.xlsx
154	patches	True	n/a	350	0	n/a	n/a	0.0	1	left	n/a	n/a	n/a	0	-0.0672880385816	blockFiles/set_42/main_PD/GB_runPatches1.xlsx
155	patches	True	n/a	350	0	n/a	n/a	1.0	1	right	n/a	n/a	n/a	1	0.054836964160199994	blockFiles/set_42/main_PD/GB_runPatches1.xlsx
156	patches	True	n/a	350	0	n/a	n/a	1.0	1	right	n/a	n/a	n/a	1	0.043729163687699996	blockFiles/set_42/main_PD/GB_runPatches1.xlsx
157	patches	True	n/a	350	0	n/a	n/a	0.0	1	left	n/a	n/a	n/a	0	-0.0363456015103	blockFiles/set_42/main_PD/GB_runPatches1.xlsx
158	patches	True	n/a	350	0	n/a	n/a	1.0	1	right	n/a	n/a	n/a	1	0.00246459493414	blockFiles/set_42/main_PD/GB_runPatches1.xlsx
159	patches	True	n/a	350	0	n/a	n/a	1.0	1	right	n/a	n/a	n/a	1	0.07530840640889999	blockFiles/set_42/main_PD/GB_runPatches1.xlsx
160	patches	True	n/a	350	0	n/a	n/a	0.0	0	left	n/a	n/a	n/a	1	0.027573538999999998	blockFiles/set_42/main_PD/GB_runPatches1.xlsx
161	patches	True	n/a	350	0	n/a	n/a	0.0	1	left	n/a	n/a	n/a	0	-0.0347917858325	blockFiles/set_42/main_PD/GB_runPatches1.xlsx
162	patches	True	n/a	350	0	n/a	n/a	1.0	1	right	n/a	n/a	n/a	1	0.0467579422705	blockFiles/set_42/main_PD/GB_runPatches1.xlsx
163	patches	True	n/a	350	0	n/a	n/a	0.0	1	left	n/a	n/a	n/a	0	-0.0102307844348	blockFiles/set_42/main_PD/GB_runPatches1.xlsx
164	patches	True	n/a	350	0	n/a	n/a	0.0	1	left	n/a	n/a	n/a	0	-0.0117780297808	blockFiles/set_42/main_PD/GB_runPatches1.xlsx
165	patches	True	n/a	350	0	n/a	n/a	1.0	1	right	n/a	n/a	n/a	1	0.06566574564199999	blockFiles/set_42/main_PD/GB_runPatches1.xlsx
166	patches	True	n/a	350	0	n/a	n/a	1.0	1	right	n/a	n/a	n/a	1	0.06712735047559999	blockFiles/set_42/main_PD/GB_runPatches1.xlsx
167	patches	True	n/a	350	0	n/a	n/a	0.0	1	left	n/a	n/a	n/a	0	-0.0107986121811	blockFiles/set_42/main_PD/GB_runPatches1.xlsx
168	patches	True	n/a	350	0	n/a	n/a	1.0	1	right	n/a	n/a	n/a	1	0.0441065055691	blockFiles/set_42/main_PD/GB_runPatches1.xlsx
169	patches	True	n/a	350	0	n/a	n/a	1.0	1	right	n/a	n/a	n/a	1	0.07842334989460001	blockFiles/set_42/main_PD/GB_runPatches1.xlsx
170	patches	True	n/a	350	0	n/a	n/a	0.0	1	left	n/a	n/a	n/a	0	-0.0111923338659	blockFiles/set_42/main_PD/GB_runPatches1.xlsx
171	patches	True	n/a	350	0	n/a	n/a	0.0	1	left	n/a	n/a	n/a	0	-0.0616888815723	blockFiles/set_42/main_PD/GB_runPatches1.xlsx
172	patches	True	n/a	350	0	n/a	n/a	1.0	1	right	n/a	n/a	n/a	1	0.0446337899752	blockFiles/set_42/main_PD/GB_runPatches1.xlsx
173	patches	True	n/a	350	0	n/a	n/a	1.0	1	right	n/a	n/a	n/a	1	0.007354433164	blockFiles/set_42/main_PD/GB_runPatches1.xlsx
174	patches	True	n/a	350	0	n/a	n/a	0.0	1	left	n/a	n/a	n/a	0	-0.0251327524334	blockFiles/set_42/main_PD/GB_runPatches1.xlsx
175	patches	True	n/a	350	0	n/a	n/a	1.0	1	right	n/a	n/a	n/a	1	0.00045746028423300007	blockFiles/set_42/main_PD/GB_runPatches1.xlsx
176	patches	True	n/a	350	0	n/a	n/a	0.0	1	left	n/a	n/a	n/a	0	-0.0552315121144	blockFiles/set_42/main_PD/GB_runPatches1.xlsx
177	patches	True	n/a	350	0	n/a	n/a	0.0	1	left	n/a	n/a	n/a	0	-0.059328068308499994	blockFiles/set_42/main_PD/GB_runPatches1.xlsx
178	patches	True	n/a	350	0	n/a	n/a	0.0	1	left	n/a	n/a	n/a	0	-0.0212129236199	blockFiles/set_42/main_PD/GB_runPatches1.xlsx
179	patches	True	n/a	350	0	n/a	n/a	0.0	1	left	n/a	n/a	n/a	0	-0.0442476758733	blockFiles/set_42/main_PD/GB_runPatches1.xlsx
180	patches	True	n/a	350	0	n/a	n/a	1.0	1	right	n/a	n/a	n/a	1	0.05672054607419999	blockFiles/set_42/main_PD/GB_runPatches1.xlsx
181	patches	True	n/a	350	0	n/a	n/a	1.0	1	right	n/a	n/a	n/a	1	0.024729868862799997	blockFiles/set_42/main_PD/GB_runPatches1.xlsx
182	patches	True	n/a	350	0	n/a	n/a	0.0	1	left	n/a	n/a	n/a	0	-0.0650954116136	blockFiles/set_42/main_PD/GB_runPatches1.xlsx
183	patches	True	n/a	350	0	n/a	n/a	0.0	0	left	n/a	n/a	n/a	1	0.049574651550500004	blockFiles/set_42/main_PD/GB_runPatches1.xlsx
184	patches	True	n/a	350	0	n/a	n/a	0.0	0	left	n/a	n/a	n/a	1	0.0026778335496799996	blockFiles/set_42/main_PD/GB_runPatches1.xlsx
185	patches	True	n/a	350	0	n/a	n/a	1.0	1	right	n/a	n/a	n/a	1	0.035425439588699995	blockFiles/set_42/main_PD/GB_runPatches1.xlsx
186	patches	True	n/a	350	0	n/a	n/a	0.0	1	left	n/a	n/a	n/a	0	-0.0533803858981	blockFiles/set_42/main_PD/GB_runPatches1.xlsx
187	patches	True	n/a	350	0	n/a	n/a	1.0	1	right	n/a	n/a	n/a	1	0.0626482618414	blockFiles/set_42/main_PD/GB_runPatches1.xlsx
188	patches	True	n/a	350	0	n/a	n/a	0.0	1	left	n/a	n/a	n/a	0	-0.0049439463950699996	blockFiles/set_42/main_PD/GB_runPatches1.xlsx
189	patches	True	n/a	350	0	n/a	n/a	0.0	1	left	n/a	n/a	n/a	0	-0.0747758303583	blockFiles/set_42/main_PD/GB_runPatches1.xlsx
190	patches	True	n/a	350	0	n/a	n/a	1.0	1	right	n/a	n/a	n/a	1	0.031239516548799997	blockFiles/set_42/main_PD/GB_runPatches1.xlsx
191	patches	True	n/a	350	0	n/a	n/a	0.0	1	left	n/a	n/a	n/a	0	-0.0311948578618	blockFiles/set_42/main_PD/GB_runPatches1.xlsx
192	patches	True	n/a	350	0	n/a	n/a	0.0	1	left	n/a	n/a	n/a	0	-0.0500067672879	blockFiles/set_42/main_PD/GB_runPatches1.xlsx
193	patches	True	n/a	350	0	n/a	n/a	0.0	1	left	n/a	n/a	n/a	0	-0.07734361093489998	blockFiles/set_42/main_PD/GB_runPatches1.xlsx
194	patches	True	n/a	350	0	n/a	n/a	0.0	1	left	n/a	n/a	n/a	0	-0.0489794969186	blockFiles/set_42/main_PD/GB_runPatches1.xlsx
195	patches	True	n/a	350	0	n/a	n/a	0.0	1	left	n/a	n/a	n/a	0	-0.014485617727000001	blockFiles/set_42/main_PD/GB_runPatches1.xlsx
196	patches	True	n/a	350	0	n/a	n/a	1.0	0	right	n/a	n/a	n/a	0	-0.0280241426453	blockFiles/set_42/main_PD/GB_runPatches1.xlsx
197	patches	True	n/a	350	0	n/a	n/a	1.0	1	right	n/a	n/a	n/a	1	0.0326434173435	blockFiles/set_42/main_PD/GB_runPatches1.xlsx
198	patches	True	n/a	350	0	n/a	n/a	0.0	1	left	n/a	n/a	n/a	0	-0.0480967869982	blockFiles/set_42/main_PD/GB_runPatches1.xlsx
199	patches	True	n/a	350	0	n/a	n/a	0.0	0	left	n/a	n/a	n/a	1	0.0103404964134	blockFiles/set_42/main_PD/GB_runPatches1.xlsx
200	patches	True	n/a	350	0	n/a	n/a	1.0	1	right	n/a	n/a	n/a	1	0.0330540656671	blockFiles/set_42/main_PD/GB_runPatches1.xlsx
201	patches	True	n/a	350	0	n/a	n/a	0.0	1	left	n/a	n/a	n/a	0	-0.041069253739	blockFiles/set_42/main_PD/GB_runPatches1.xlsx
202	patches	True	n/a	350	0	n/a	n/a	1.0	1	right	n/a	n/a	n/a	1	0.0787122126669	blockFiles/set_42/main_PD/GB_runPatches1.xlsx
203	patches	True	n/a	350	0	n/a	n/a	0.0	1	left	n/a	n/a	n/a	0	-0.022483378201700002	blockFiles/set_42/main_PD/GB_runPatches1.xlsx
204	patches	True	n/a	350	0	n/a	n/a	0.0	1	left	n/a	n/a	n/a	0	-0.044352153092599995	blockFiles/set_42/main_PD/GB_runPatches1.xlsx
205	patches	True	n/a	350	0	n/a	n/a	1.0	1	right	n/a	n/a	n/a	1	0.0506944123469	blockFiles/set_42/main_PD/GB_runPatches1.xlsx
206	patches	True	n/a	350	0	n/a	n/a	1.0	1	right	n/a	n/a	n/a	1	0.0220983459428	blockFiles/set_42/main_PD/GB_runPatches1.xlsx
207	patches	True	n/a	350	0	n/a	n/a	0.0	1	left	n/a	n/a	n/a	0	-0.054797153249399995	blockFiles/set_42/main_PD/GB_runPatches1.xlsx
208	patches	True	n/a	350	0	n/a	n/a	1.0	0	right	n/a	n/a	n/a	0	-0.0123385657556	blockFiles/set_42/main_PD/GB_runPatches1.xlsx
209	patches	True	n/a	350	0	n/a	n/a	0.0	1	left	n/a	n/a	n/a	0	-0.061932982504400005	blockFiles/set_42/main_PD/GB_runPatches1.xlsx
210	patches	True	n/a	350	0	n/a	n/a	1.0	1	right	n/a	n/a	n/a	1	0.013884181752799998	blockFiles/set_42/main_PD/GB_runPatches1.xlsx
211	patches	True	n/a	350	0	n/a	n/a	0.0	1	left	n/a	n/a	n/a	0	-0.0208566616476	blockFiles/set_42/main_PD/GB_runPatches1.xlsx
212	patches	True	n/a	350	0	n/a	n/a	0.0	1	left	n/a	n/a	n/a	0	-0.011309236455700002	blockFiles/set_42/main_PD/GB_runPatches1.xlsx
213	patches	True	n/a	350	0	n/a	n/a	1.0	1	right	n/a	n/a	n/a	1	0.057730033975099994	blockFiles/set_42/main_PD/GB_runPatches1.xlsx
214	patches	True	n/a	350	0	n/a	n/a	0.0	1	left	n/a	n/a	n/a	0	-0.0491711602546	blockFiles/set_42/main_PD/GB_runPatches1.xlsx
215	patches	True	n/a	350	0	n/a	n/a	0.0	1	left	n/a	n/a	n/a	0	-0.028076705522799998	blockFiles/set_42/main_PD/GB_runPatches1.xlsx
216	patches	True	n/a	350	0	n/a	n/a	1.0	1	right	n/a	n/a	n/a	1	0.032317963745400004	blockFiles/set_42/main_PD/GB_runPatches1.xlsx
217	patches	True	n/a	350	0	n/a	n/a	1.0	1	right	n/a	n/a	n/a	1	0.0719504155591	blockFiles/set_42/main_PD/GB_runPatches1.xlsx
218	patches	True	n/a	350	0	n/a	n/a	1.0	1	right	n/a	n/a	n/a	1	0.013040157426100001	blockFiles/set_42/main_PD/GB_runPatches1.xlsx
219	patches	True	n/a	350	0	n/a	n/a	1.0	1	right	n/a	n/a	n/a	1	0.032749709636	blockFiles/set_42/main_PD/GB_runPatches1.xlsx
220	patches	True	n/a	350	0	n/a	n/a	0.0	0	left	n/a	n/a	n/a	1	0.023917230628400003	blockFiles/set_42/main_PD/GB_runPatches1.xlsx
221	patches	True	n/a	350	0	n/a	n/a	1.0	1	right	n/a	n/a	n/a	1	0.07291859095919999	blockFiles/set_42/main_PD/GB_runPatches1.xlsx
222	patches	True	n/a	350	0	n/a	n/a	0.0	0	left	n/a	n/a	n/a	1	0.013179882857899998	blockFiles/set_42/main_PD/GB_runPatches1.xlsx
223	patches	True	n/a	350	0	n/a	n/a	0.0	1	left	n/a	n/a	n/a	0	-0.0492784457095	blockFiles/set_42/main_PD/GB_runPatches1.xlsx
224	patches	True	n/a	350	0	n/a	n/a	0.0	0	left	n/a	n/a	n/a	1	0.0133078508079	blockFiles/set_42/main_PD/GB_runPatches1.xlsx
225	patches	True	n/a	350	0	n/a	n/a	1.0	1	right	n/a	n/a	n/a	1	0.0218211757578	blockFiles/set_42/main_PD/GB_runPatches1.xlsx
226	patches	True	n/a	350	0	n/a	n/a	1.0	1	right	n/a	n/a	n/a	1	0.0301996868663	blockFiles/set_42/main_PD/GB_runPatches1.xlsx
227	patches	True	n/a	350	0	n/a	n/a	0.0	1	left	n/a	n/a	n/a	0	-0.0483315435238	blockFiles/set_42/main_PD/GB_runPatches1.xlsx
228	patches	True	n/a	350	0	n/a	n/a	0.0	1	left	n/a	n/a	n/a	0	-0.068783498928	blockFiles/set_42/main_PD/GB_runPatches1.xlsx
229	patches	True	n/a	350	0	n/a	n/a	0.0	0	left	n/a	n/a	n/a	1	0.07313398180530001	blockFiles/set_42/main_PD/GB_runPatches1.xlsx
230	patches	True	n/a	350	0	n/a	n/a	1.0	1	right	n/a	n/a	n/a	1	0.006010017916560001	blockFiles/set_42/main_PD/GB_runPatches1.xlsx
231	patches	True	n/a	350	0	n/a	n/a	1.0	1	right	n/a	n/a	n/a	1	0.0364793739095	blockFiles/set_42/main_PD/GB_runPatches1.xlsx
232	patches	True	n/a	350	0	n/a	n/a	0.0	1	left	n/a	n/a	n/a	0	-0.0426012950949	blockFiles/set_42/main_PD/GB_runPatches1.xlsx
233	patches	True	n/a	350	0	n/a	n/a	0.0	1	left	n/a	n/a	n/a	0	-0.0165888657048	blockFiles/set_42/main_PD/GB_runPatches1.xlsx
234	patches	True	n/a	350	0	n/a	n/a	0.0	1	left	n/a	n/a	n/a	0	-0.051154234465199996	blockFiles/set_42/main_PD/GB_runPatches1.xlsx
235	patches	True	n/a	350	0	n/a	n/a	0.0	1	left	n/a	n/a	n/a	0	-0.0288196247444	blockFiles/set_42/main_PD/GB_runPatches1.xlsx
236	patches	True	n/a	350	0	n/a	n/a	0.0	1	left	n/a	n/a	n/a	0	-0.065572068356	blockFiles/set_42/main_PD/GB_runPatches1.xlsx
237	patches	True	n/a	350	0	n/a	n/a	0.0	1	left	n/a	n/a	n/a	0	-0.00225949902087	blockFiles/set_42/main_PD/GB_runPatches1.xlsx
238	patches	True	n/a	350	0	n/a	n/a	1.0	1	right	n/a	n/a	n/a	1	0.037513619680000006	blockFiles/set_42/main_PD/GB_runPatches1.xlsx
239	patches	True	n/a	350	0	n/a	n/a	1.0	1	right	n/a	n/a	n/a	1	0.0514542362839	blockFiles/set_42/main_PD/GB_runPatches1.xlsx
240	patches	True	n/a	350	0	n/a	n/a	0.0	1	left	n/a	n/a	n/a	0	-0.0389198166505	blockFiles/set_42/main_PD/GB_runPatches1.xlsx
241	patches	True	n/a	350	0	n/a	n/a	1.0	1	right	n/a	n/a	n/a	1	0.015310259424100001	blockFiles/set_42/main_PD/GB_runPatches1.xlsx
242	patches	True	n/a	350	0	n/a	n/a	1.0	1	right	n/a	n/a	n/a	1	0.0463996202499	blockFiles/set_42/main_PD/GB_runPatches1.xlsx
243	patches	True	n/a	350	0	n/a	n/a	0.0	1	left	n/a	n/a	n/a	0	-0.0619470951892	blockFiles/set_42/main_PD/GB_runPatches1.xlsx
244	patches	True	n/a	350	0	n/a	n/a	0.0	1	left	n/a	n/a	n/a	0	-0.0752714450657	blockFiles/set_42/main_PD/GB_runPatches1.xlsx
245	patches	True	n/a	350	0	n/a	n/a	1.0	1	right	n/a	n/a	n/a	1	0.044988421984	blockFiles/set_42/main_PD/GB_runPatches1.xlsx
246	patches	True	n/a	350	0	n/a	n/a	1.0	1	right	n/a	n/a	n/a	1	0.00104446066543	blockFiles/set_42/main_PD/GB_runPatches1.xlsx
247	patches	True	n/a	350	0	n/a	n/a	0.0	1	left	n/a	n/a	n/a	0	-0.0430344023183	blockFiles/set_42/main_PD/GB_runPatches1.xlsx
248	patches	True	n/a	350	0	n/a	n/a	1.0	1	right	n/a	n/a	n/a	1	0.0530271207541	blockFiles/set_42/main_PD/GB_runPatches1.xlsx
249	patches	True	n/a	350	0	n/a	n/a	1.0	0	right	n/a	n/a	n/a	0	-0.014223226569600001	blockFiles/set_42/main_PD/GB_runPatches1.xlsx
250	patches	True	n/a	350	0	n/a	n/a	0.0	1	left	n/a	n/a	n/a	0	-0.0476093295962	blockFiles/set_42/main_PD/GB_runPatches1.xlsx
251	main_unc	True	0.0	350	0	0.0	0.0	1.0	1	right	2.0	0.0	0.0	1	0.06879566164689999	blockFiles/set_42/main_unc/leftBlue\GB_LB_6.xlsx
252	main_unc	True	0.0	350	0	0.0	0.0	0.0	0	left	2.0	0.0	0.0	1	0.0034648193232700002	blockFiles/set_42/main_unc/leftBlue\GB_LB_6.xlsx
253	main_unc	True	0.0	350	0	0.0	0.0	0.0	1	left	1.0	0.0	0.0	0	-0.0416526449472	blockFiles/set_42/main_unc/leftBlue\GB_LB_6.xlsx
254	main_unc	True	0.0	350	0	0.0	0.0	1.0	1	right	1.0	1.0	1.0	1	0.0768175005913	blockFiles/set_42/main_unc/leftBlue\GB_LB_6.xlsx
255	main_unc	True	0.0	350	0	0.0	0.0	0.0	1	left	2.0	1.0	1.0	0	-0.0690405073017	blockFiles/set_42/main_unc/leftBlue\GB_LB_6.xlsx
256	main_unc	True	0.0	350	0	0.0	0.0	0.0	0	left	2.0	1.0	0.0	1	0.022557775024299998	blockFiles/set_42/main_unc/leftBlue\GB_LB_6.xlsx
257	main_unc	True	0.0	350	0	0.0	0.0	0.0	1	left	2.0	1.0	1.0	0	-0.0168253519386	blockFiles/set_42/main_unc/leftBlue\GB_LB_6.xlsx
258	main_unc	True	0.0	350	0	0.0	0.0	1.0	1	right	1.0	1.0	1.0	1	0.0562062748522	blockFiles/set_42/main_unc/leftBlue\GB_LB_6.xlsx
259	main_unc	True	0.0	350	0	0.0	0.0	1.0	1	right	1.0	1.0	1.0	1	0.0149169422872	blockFiles/set_42/main_unc/leftBlue\GB_LB_6.xlsx
260	main_unc	True	0.0	350	0	0.0	0.0	0.0	1	left	2.0	0.0	1.0	0	-0.0654866849072	blockFiles/set_42/main_unc/leftBlue\GB_LB_6.xlsx
261	main_unc	True	0.0	350	0	0.0	0.0	1.0	1	right	1.0	0.0	1.0	1	0.0372581988201	blockFiles/set_42/main_unc/leftBlue\GB_LB_6.xlsx
262	main_unc	True	0.0	350	0	0.0	0.0	0.0	1	left	2.0	1.0	1.0	0	-0.0333047877997	blockFiles/set_42/main_unc/leftBlue\GB_LB_6.xlsx
263	main_unc	True	0.0	350	0	0.0	0.0	1.0	1	right	1.0	1.0	1.0	1	0.0544624534249	blockFiles/set_42/main_unc/leftBlue\GB_LB_6.xlsx
264	main_unc	True	0.0	350	0	0.0	0.0	0.0	1	left	1.0	0.0	0.0	0	-0.0131902647391	blockFiles/set_42/main_unc/leftBlue\GB_LB_6.xlsx
265	main_unc	True	0.0	350	0	0.0	0.0	0.0	1	left	2.0	1.0	1.0	0	-0.06680880509319999	blockFiles/set_42/main_unc/leftBlue\GB_LB_6.xlsx
266	main_unc	True	0.0	350	0	0.0	0.0	1.0	1	right	1.0	1.0	1.0	1	0.0739216512442	blockFiles/set_42/main_unc/leftBlue\GB_LB_6.xlsx
267	main_unc	True	0.0	350	0	0.0	0.0	1.0	0	right	2.0	1.0	1.0	0	-0.0012220853753399999	blockFiles/set_42/main_unc/leftBlue\GB_LB_6.xlsx
268	main_unc	True	0.0	350	0	0.0	0.0	1.0	1	right	1.0	1.0	1.0	1	0.0572894018702	blockFiles/set_42/main_unc/leftBlue\GB_LB_6.xlsx
269	main_unc	True	1.0	350	0	0.0	0.0	1.0	1	right	n/a	0.0	n/a	1	0.0196169072203	blockFiles/set_42/main_unc/leftBlue\GB_LB_6.xlsx
270	main_unc	True	0.0	350	0	0.0	0.0	0.0	1	left	2.0	1.0	1.0	0	-0.016367728505299998	blockFiles/set_42/main_unc/leftBlue\GB_LB_6.xlsx
271	main_unc	True	0.0	350	0	0.0	0.0	0.0	1	left	2.0	0.0	1.0	0	-0.0527744484693	blockFiles/set_42/main_unc/leftBlue\GB_LB_6.xlsx
272	main_unc	True	0.0	350	0	0.0	0.0	0.0	1	left	2.0	1.0	1.0	0	-0.045948210191000004	blockFiles/set_42/main_unc/leftBlue\GB_LB_6.xlsx
273	main_unc	True	0.0	350	0	0.0	0.0	1.0	1	right	1.0	1.0	1.0	1	0.07852750111370001	blockFiles/set_42/main_unc/leftBlue\GB_LB_6.xlsx
274	main_unc	True	0.0	350	0	0.0	0.0	1.0	1	right	1.0	0.0	1.0	1	0.0442563763633	blockFiles/set_42/main_unc/leftBlue\GB_LB_6.xlsx
275	main_unc	True	0.0	350	0	0.0	0.0	1.0	1	right	1.0	1.0	1.0	1	0.0345935336314	blockFiles/set_42/main_unc/leftBlue\GB_LB_6.xlsx
276	main_unc	True	0.0	350	0	0.0	0.0	1.0	1	right	1.0	1.0	1.0	1	0.0196169072203	blockFiles/set_42/main_unc/leftBlue\GB_LB_6.xlsx
277	main_unc	True	0.0	350	0	1.0	1.0	0.0	1	left	1.0	1.0	1.0	0	-0.0598140851408	blockFiles/set_42/main_unc/rightBlue\GB_RB_5.xlsx
278	main_unc	True	0.0	350	0	1.0	1.0	0.0	0	left	1.0	0.0	0.0	1	0.0125734152831	blockFiles/set_42/main_unc/rightBlue\GB_RB_5.xlsx
279	main_unc	True	0.0	350	0	1.0	1.0	0.0	1	left	1.0	0.0	1.0	0	-0.015948584638499998	blockFiles/set_42/main_unc/rightBlue\GB_RB_5.xlsx
280	main_unc	True	0.0	350	0	1.0	1.0	0.0	1	left	2.0	0.0	0.0	0	-0.0656492218003	blockFiles/set_42/main_unc/rightBlue\GB_RB_5.xlsx
281	main_unc	True	0.0	350	0	1.0	1.0	0.0	1	left	2.0	0.0	0.0	0	-0.0681696933694	blockFiles/set_42/main_unc/rightBlue\GB_RB_5.xlsx
282	main_unc	True	0.0	350	0	1.0	1.0	0.0	1	left	1.0	1.0	1.0	0	-0.0521425826475	blockFiles/set_42/main_unc/rightBlue\GB_RB_5.xlsx
283	main_unc	True	0.0	350	0	1.0	1.0	0.0	1	left	1.0	1.0	1.0	0	-0.0321504205838	blockFiles/set_42/main_unc/rightBlue\GB_RB_5.xlsx
284	main_unc	True	0.0	350	0	1.0	1.0	1.0	1	right	1.0	0.0	0.0	1	0.0369596294686	blockFiles/set_42/main_unc/rightBlue\GB_RB_5.xlsx
285	main_unc	True	0.0	350	0	1.0	1.0	0.0	1	left	2.0	0.0	0.0	0	-0.038251883816	blockFiles/set_42/main_unc/rightBlue\GB_RB_5.xlsx
286	main_unc	True	0.0	350	0	1.0	1.0	1.0	1	right	2.0	0.0	1.0	1	0.0323256339133	blockFiles/set_42/main_unc/rightBlue\GB_RB_5.xlsx
287	main_unc	True	0.0	350	0	1.0	1.0	0.0	1	left	1.0	1.0	1.0	0	-0.0468861920945	blockFiles/set_42/main_unc/rightBlue\GB_RB_5.xlsx
288	main_unc	True	0.0	350	0	1.0	1.0	1.0	1	right	2.0	1.0	1.0	1	0.058785766288599994	blockFiles/set_42/main_unc/rightBlue\GB_RB_5.xlsx
289	main_unc	True	0.0	350	0	1.0	1.0	1.0	1	right	2.0	0.0	1.0	1	0.0375826387852	blockFiles/set_42/main_unc/rightBlue\GB_RB_5.xlsx
290	main_unc	True	0.0	350	0	1.0	1.0	1.0	1	right	2.0	1.0	1.0	1	0.0406494078971	blockFiles/set_42/main_unc/rightBlue\GB_RB_5.xlsx
291	main_unc	True	0.0	350	0	1.0	1.0	1.0	1	right	2.0	0.0	1.0	1	0.0314625572227	blockFiles/set_42/main_unc/rightBlue\GB_RB_5.xlsx
292	main_unc	True	0.0	350	0	1.0	1.0	1.0	1	right	2.0	1.0	1.0	1	0.00530742265284	blockFiles/set_42/main_unc/rightBlue\GB_RB_5.xlsx
293	main_unc	True	0.0	350	0	1.0	1.0	0.0	1	left	1.0	1.0	1.0	0	-0.07984937243160001	blockFiles/set_42/main_unc/rightBlue\GB_RB_5.xlsx
294	main_unc	True	0.0	350	0	1.0	1.0	0.0	1	left	1.0	1.0	1.0	0	-0.07674082014710001	blockFiles/set_42/main_unc/rightBlue\GB_RB_5.xlsx
295	main_unc	True	0.0	350	0	1.0	1.0	0.0	1	left	1.0	1.0	1.0	0	-0.0189555685781	blockFiles/set_42/main_unc/rightBlue\GB_RB_5.xlsx
296	main_unc	True	0.0	350	0	1.0	1.0	1.0	1	right	2.0	1.0	1.0	1	0.012714584358	blockFiles/set_42/main_unc/rightBlue\GB_RB_5.xlsx
297	main_unc	True	0.0	350	0	1.0	1.0	1.0	1	right	2.0	1.0	1.0	1	0.0517726096325	blockFiles/set_42/main_unc/rightBlue\GB_RB_5.xlsx
298	main_unc	True	0.0	350	0	1.0	1.0	0.0	1	left	1.0	1.0	1.0	0	-0.0447811507992	blockFiles/set_42/main_unc/rightBlue\GB_RB_5.xlsx
299	main_unc	True	1.0	350	0	1.0	1.0	0.0	0	left	n/a	0.0	n/a	1	0.0467958593369	blockFiles/set_42/main_unc/rightBlue\GB_RB_5.xlsx
300	main_unc	True	0.0	350	0	1.0	1.0	1.0	1	right	2.0	1.0	1.0	1	0.028475409187400002	blockFiles/set_42/main_unc/rightBlue\GB_RB_5.xlsx
301	main_unc	True	0.0	350	0	1.0	1.0	0.0	1	left	1.0	1.0	1.0	0	-0.07546300698069999	blockFiles/set_42/main_unc/rightBlue\GB_RB_5.xlsx
302	main_unc	True	0.0	350	0	1.0	1.0	1.0	1	right	2.0	1.0	1.0	1	0.0467958593369	blockFiles/set_42/main_unc/rightBlue\GB_RB_5.xlsx
303	main_unc	True	0.0	350	0	2.0	2.0	0.0	1	left	1.0	1.0	1.0	0	-0.065002898369	blockFiles/set_42/main_unc/rightBlue\GB_RB_3.xlsx
304	main_unc	True	0.0	350	0	2.0	2.0	0.0	1	left	1.0	1.0	1.0	0	-0.0123143588752	blockFiles/set_42/main_unc/rightBlue\GB_RB_3.xlsx
305	main_unc	True	0.0	350	0	2.0	2.0	0.0	1	left	1.0	1.0	1.0	0	-0.020992451030799997	blockFiles/set_42/main_unc/rightBlue\GB_RB_3.xlsx
306	main_unc	True	0.0	350	0	2.0	2.0	1.0	1	right	2.0	1.0	1.0	1	0.024443686381	blockFiles/set_42/main_unc/rightBlue\GB_RB_3.xlsx
307	main_unc	True	0.0	350	0	2.0	2.0	0.0	1	left	1.0	0.0	1.0	0	-0.053344675991699994	blockFiles/set_42/main_unc/rightBlue\GB_RB_3.xlsx
308	main_unc	True	0.0	350	0	2.0	2.0	1.0	1	right	2.0	1.0	1.0	1	0.0220818250254	blockFiles/set_42/main_unc/rightBlue\GB_RB_3.xlsx
309	main_unc	True	0.0	350	0	2.0	2.0	0.0	1	left	1.0	0.0	1.0	0	-0.0305750839971	blockFiles/set_42/main_unc/rightBlue\GB_RB_3.xlsx
310	main_unc	True	0.0	350	0	2.0	2.0	0.0	1	left	1.0	1.0	1.0	0	-0.0461123095639	blockFiles/set_42/main_unc/rightBlue\GB_RB_3.xlsx
311	main_unc	True	0.0	350	0	2.0	2.0	0.0	1	left	1.0	1.0	1.0	0	-0.0784006783739	blockFiles/set_42/main_unc/rightBlue\GB_RB_3.xlsx
312	main_unc	True	0.0	350	0	2.0	2.0	1.0	1	right	2.0	1.0	1.0	1	0.051869081500900006	blockFiles/set_42/main_unc/rightBlue\GB_RB_3.xlsx
313	main_unc	True	0.0	350	0	2.0	2.0	0.0	1	left	1.0	1.0	1.0	0	-0.0157338117622	blockFiles/set_42/main_unc/rightBlue\GB_RB_3.xlsx
314	main_unc	True	0.0	350	0	2.0	2.0	0.0	1	left	1.0	1.0	1.0	0	-0.062436287757000004	blockFiles/set_42/main_unc/rightBlue\GB_RB_3.xlsx
315	main_unc	True	0.0	350	0	2.0	2.0	0.0	1	left	1.0	0.0	1.0	0	-0.0511307317019	blockFiles/set_42/main_unc/rightBlue\GB_RB_3.xlsx
316	main_unc	True	0.0	350	0	2.0	2.0	1.0	1	right	2.0	1.0	1.0	1	0.037504921369300004	blockFiles/set_42/main_unc/rightBlue\GB_RB_3.xlsx
317	main_unc	True	0.0	350	0	2.0	2.0	1.0	1	right	2.0	1.0	1.0	1	0.052576529942500005	blockFiles/set_42/main_unc/rightBlue\GB_RB_3.xlsx
318	main_unc	True	0.0	350	0	2.0	2.0	1.0	1	right	2.0	1.0	1.0	1	0.0113507308997	blockFiles/set_42/main_unc/rightBlue\GB_RB_3.xlsx
319	main_unc	True	0.0	350	0	2.0	2.0	0.0	1	left	1.0	1.0	1.0	0	-0.0437829852663	blockFiles/set_42/main_unc/rightBlue\GB_RB_3.xlsx
320	main_unc	True	0.0	350	0	2.0	2.0	0.0	1	left	1.0	1.0	1.0	0	-0.079936398454	blockFiles/set_42/main_unc/rightBlue\GB_RB_3.xlsx
321	main_unc	True	0.0	350	0	2.0	2.0	1.0	1	right	2.0	0.0	1.0	1	0.051454332787499994	blockFiles/set_42/main_unc/rightBlue\GB_RB_3.xlsx
322	main_unc	True	1.0	350	0	2.0	2.0	n/a	0	None	n/a	0.0	n/a	1	0.013859338574099999	blockFiles/set_42/main_unc/rightBlue\GB_RB_3.xlsx
323	main_unc	True	0.0	350	0	2.0	2.0	1.0	1	right	2.0	1.0	1.0	1	0.0703348431736	blockFiles/set_42/main_unc/rightBlue\GB_RB_3.xlsx
324	main_unc	True	0.0	350	0	2.0	2.0	1.0	1	right	2.0	1.0	1.0	1	0.0240311272629	blockFiles/set_42/main_unc/rightBlue\GB_RB_3.xlsx
325	main_unc	True	0.0	350	0	2.0	2.0	1.0	1	right	2.0	1.0	1.0	1	0.05302130969240001	blockFiles/set_42/main_unc/rightBlue\GB_RB_3.xlsx
326	main_unc	True	0.0	350	0	2.0	2.0	1.0	1	right	2.0	1.0	1.0	1	0.06241030771290001	blockFiles/set_42/main_unc/rightBlue\GB_RB_3.xlsx
327	main_unc	True	0.0	350	0	2.0	2.0	0.0	1	left	1.0	1.0	1.0	0	-0.022325271144500003	blockFiles/set_42/main_unc/rightBlue\GB_RB_3.xlsx
328	main_unc	True	0.0	350	0	2.0	2.0	1.0	1	right	2.0	1.0	1.0	1	0.013859338574099999	blockFiles/set_42/main_unc/rightBlue\GB_RB_3.xlsx
329	main_unc	True	0.0	350	0	3.0	3.0	0.0	1	left	1.0	0.0	0.0	0	-0.078394690603	blockFiles/set_42/main_unc/leftBlue\GB_LB_5.xlsx
330	main_unc	True	0.0	350	0	3.0	3.0	1.0	1	right	1.0	1.0	1.0	1	0.0445157205686	blockFiles/set_42/main_unc/leftBlue\GB_LB_5.xlsx
331	main_unc	True	0.0	350	0	3.0	3.0	0.0	1	left	2.0	0.0	1.0	0	-0.049450233150300005	blockFiles/set_42/main_unc/leftBlue\GB_LB_5.xlsx
332	main_unc	True	0.0	350	0	3.0	3.0	1.0	0	right	2.0	1.0	1.0	0	-0.012877809777899998	blockFiles/set_42/main_unc/leftBlue\GB_LB_5.xlsx
333	main_unc	True	0.0	350	0	3.0	3.0	0.0	1	left	1.0	1.0	0.0	0	-0.028809100519900002	blockFiles/set_42/main_unc/leftBlue\GB_LB_5.xlsx
334	main_unc	True	0.0	350	0	3.0	3.0	1.0	1	right	2.0	0.0	0.0	1	0.05099368527530001	blockFiles/set_42/main_unc/leftBlue\GB_LB_5.xlsx
335	main_unc	True	0.0	350	0	3.0	3.0	0.0	1	left	1.0	0.0	0.0	0	-0.0314992409758	blockFiles/set_42/main_unc/leftBlue\GB_LB_5.xlsx
336	main_unc	True	0.0	350	0	3.0	3.0	0.0	0	left	2.0	0.0	0.0	1	0.011769287083299999	blockFiles/set_42/main_unc/leftBlue\GB_LB_5.xlsx
337	main_unc	True	0.0	350	0	3.0	3.0	1.0	1	right	2.0	0.0	0.0	1	0.05768586723130001	blockFiles/set_42/main_unc/leftBlue\GB_LB_5.xlsx
338	main_unc	True	0.0	350	0	3.0	3.0	1.0	1	right	2.0	0.0	0.0	1	0.0704892683774	blockFiles/set_42/main_unc/leftBlue\GB_LB_5.xlsx
339	main_unc	True	0.0	350	0	3.0	3.0	1.0	1	right	1.0	1.0	1.0	1	0.023864545002599998	blockFiles/set_42/main_unc/leftBlue\GB_LB_5.xlsx
340	main_unc	True	0.0	350	0	3.0	3.0	0.0	1	left	2.0	1.0	1.0	0	-0.028084352389000002	blockFiles/set_42/main_unc/leftBlue\GB_LB_5.xlsx
341	main_unc	True	0.0	350	0	3.0	3.0	0.0	1	left	2.0	1.0	1.0	0	-0.013445143941799999	blockFiles/set_42/main_unc/leftBlue\GB_LB_5.xlsx
342	main_unc	True	0.0	350	0	3.0	3.0	0.0	1	left	2.0	1.0	1.0	0	-0.0401551196352	blockFiles/set_42/main_unc/leftBlue\GB_LB_5.xlsx
343	main_unc	True	0.0	350	0	3.0	3.0	0.0	1	left	2.0	1.0	1.0	0	-0.0443844638765	blockFiles/set_42/main_unc/leftBlue\GB_LB_5.xlsx
344	main_unc	True	0.0	350	0	3.0	3.0	1.0	1	right	1.0	1.0	1.0	1	0.06540178971369999	blockFiles/set_42/main_unc/leftBlue\GB_LB_5.xlsx
345	main_unc	True	0.0	350	0	3.0	3.0	1.0	1	right	1.0	1.0	1.0	1	0.0583666707948	blockFiles/set_42/main_unc/leftBlue\GB_LB_5.xlsx
346	main_unc	True	0.0	350	0	3.0	3.0	0.0	1	left	2.0	1.0	1.0	0	-0.050250072646900006	blockFiles/set_42/main_unc/leftBlue\GB_LB_5.xlsx
347	main_unc	True	0.0	350	0	3.0	3.0	1.0	1	right	1.0	1.0	1.0	1	0.00028386147692799997	blockFiles/set_42/main_unc/leftBlue\GB_LB_5.xlsx
348	main_unc	True	0.0	350	0	3.0	3.0	1.0	1	right	1.0	1.0	1.0	1	0.0425156393275	blockFiles/set_42/main_unc/leftBlue\GB_LB_5.xlsx
349	main_unc	True	0.0	350	0	3.0	3.0	1.0	1	right	1.0	0.0	1.0	1	0.0268819481879	blockFiles/set_42/main_unc/leftBlue\GB_LB_5.xlsx
350	main_unc	True	0.0	350	0	3.0	3.0	1.0	1	right	1.0	0.0	1.0	1	0.0338734166138	blockFiles/set_42/main_unc/leftBlue\GB_LB_5.xlsx
351	main_unc	True	0.0	350	0	3.0	3.0	1.0	1	right	1.0	1.0	1.0	1	0.0019256987981500003	blockFiles/set_42/main_unc/leftBlue\GB_LB_5.xlsx
352	main_unc	True	0.0	350	0	3.0	3.0	0.0	1	left	2.0	1.0	1.0	0	-0.073140792083	blockFiles/set_42/main_unc/leftBlue\GB_LB_5.xlsx
353	main_unc	True	0.0	350	0	3.0	3.0	1.0	1	right	1.0	1.0	1.0	1	0.0518408004567	blockFiles/set_42/main_unc/leftBlue\GB_LB_5.xlsx
354	main_unc	True	0.0	350	0	4.0	4.0	1.0	1	right	2.0	0.0	1.0	1	0.050500940661899994	blockFiles/set_42/main_unc/rightBlue\GB_RB_6.xlsx
355	main_unc	True	0.0	350	0	4.0	4.0	0.0	1	left	2.0	0.0	0.0	0	-0.0467801348865	blockFiles/set_42/main_unc/rightBlue\GB_RB_6.xlsx
356	main_unc	True	1.0	350	0	4.0	4.0	0.0	0	left	n/a	0.0	n/a	1	0.00434981105849	blockFiles/set_42/main_unc/rightBlue\GB_RB_6.xlsx
357	main_unc	True	0.0	350	0	4.0	4.0	0.0	1	left	1.0	1.0	1.0	0	-0.0152865433879	blockFiles/set_42/main_unc/rightBlue\GB_RB_6.xlsx
358	main_unc	True	0.0	350	0	4.0	4.0	1.0	1	right	2.0	1.0	1.0	1	0.060947117116300006	blockFiles/set_42/main_unc/rightBlue\GB_RB_6.xlsx
359	main_unc	True	0.0	350	0	4.0	4.0	0.0	1	left	1.0	1.0	1.0	0	-0.07298499703410001	blockFiles/set_42/main_unc/rightBlue\GB_RB_6.xlsx
360	main_unc	True	0.0	350	0	4.0	4.0	1.0	1	right	2.0	1.0	1.0	1	0.0314920190535	blockFiles/set_42/main_unc/rightBlue\GB_RB_6.xlsx
361	main_unc	True	0.0	350	0	4.0	4.0	0.0	0	left	1.0	0.0	0.0	1	0.0031534948013699996	blockFiles/set_42/main_unc/rightBlue\GB_RB_6.xlsx
362	main_unc	True	0.0	350	0	4.0	4.0	1.0	1	right	2.0	1.0	1.0	1	0.050779931712899996	blockFiles/set_42/main_unc/rightBlue\GB_RB_6.xlsx
363	main_unc	True	0.0	350	0	4.0	4.0	0.0	1	left	1.0	0.0	1.0	0	-0.0392570728436	blockFiles/set_42/main_unc/rightBlue\GB_RB_6.xlsx
364	main_unc	True	0.0	350	0	4.0	4.0	0.0	1	left	1.0	1.0	1.0	0	-0.0501990089752	blockFiles/set_42/main_unc/rightBlue\GB_RB_6.xlsx
365	main_unc	True	0.0	350	0	4.0	4.0	1.0	1	right	2.0	0.0	1.0	1	0.0443582439795	blockFiles/set_42/main_unc/rightBlue\GB_RB_6.xlsx
366	main_unc	True	1.0	350	0	4.0	4.0	0.0	1	left	n/a	0.0	n/a	0	-0.017985693831	blockFiles/set_42/main_unc/rightBlue\GB_RB_6.xlsx
367	main_unc	True	0.0	350	0	4.0	4.0	1.0	1	right	2.0	1.0	1.0	1	0.00552753603086	blockFiles/set_42/main_unc/rightBlue\GB_RB_6.xlsx
368	main_unc	True	0.0	350	0	4.0	4.0	1.0	1	right	2.0	0.0	1.0	1	0.035471659135099996	blockFiles/set_42/main_unc/rightBlue\GB_RB_6.xlsx
369	main_unc	True	0.0	350	0	4.0	4.0	0.0	1	left	1.0	1.0	1.0	0	-0.0547222269699	blockFiles/set_42/main_unc/rightBlue\GB_RB_6.xlsx
370	main_unc	True	0.0	350	0	4.0	4.0	0.0	1	left	1.0	1.0	1.0	0	-0.00546843701974	blockFiles/set_42/main_unc/rightBlue\GB_RB_6.xlsx
371	main_unc	True	0.0	350	0	4.0	4.0	1.0	1	right	2.0	1.0	1.0	1	0.0690403736569	blockFiles/set_42/main_unc/rightBlue\GB_RB_6.xlsx
372	main_unc	True	0.0	350	0	4.0	4.0	1.0	1	right	2.0	1.0	1.0	1	0.0289100885764	blockFiles/set_42/main_unc/rightBlue\GB_RB_6.xlsx
373	main_unc	True	0.0	350	0	4.0	4.0	0.0	1	left	1.0	1.0	1.0	0	-0.0410604487546	blockFiles/set_42/main_unc/rightBlue\GB_RB_6.xlsx
374	main_unc	True	0.0	350	0	4.0	4.0	0.0	1	left	1.0	1.0	1.0	0	-0.033338827956500006	blockFiles/set_42/main_unc/rightBlue\GB_RB_6.xlsx
375	main_unc	True	0.0	350	0	4.0	4.0	1.0	1	right	2.0	1.0	1.0	1	0.028795341998299997	blockFiles/set_42/main_unc/rightBlue\GB_RB_6.xlsx
376	main_unc	True	0.0	350	0	4.0	4.0	0.0	1	left	1.0	1.0	1.0	0	-0.0168136675283	blockFiles/set_42/main_unc/rightBlue\GB_RB_6.xlsx
377	main_unc	True	0.0	350	0	4.0	4.0	1.0	0	right	1.0	1.0	1.0	0	-0.0185768095776	blockFiles/set_42/main_unc/rightBlue\GB_RB_6.xlsx
378	main_unc	True	0.0	350	0	4.0	4.0	1.0	1	right	2.0	1.0	1.0	1	0.0684011223726	blockFiles/set_42/main_unc/rightBlue\GB_RB_6.xlsx
379	main_unc	True	0.0	350	0	4.0	4.0	1.0	1	right	2.0	0.0	1.0	1	0.00434981105849	blockFiles/set_42/main_unc/rightBlue\GB_RB_6.xlsx
380	main_unc	True	0.0	350	0	4.0	4.0	0.0	1	left	2.0	0.0	0.0	0	-0.017985693831	blockFiles/set_42/main_unc/rightBlue\GB_RB_6.xlsx
381	main_unc	True	0.0	350	0	5.0	5.0	0.0	1	left	2.0	1.0	1.0	0	-0.0531253705174	blockFiles/set_42/main_unc/leftBlue\GB_LB_2.xlsx
382	main_unc	True	0.0	350	0	5.0	5.0	0.0	1	left	2.0	1.0	1.0	0	-0.0410307584144	blockFiles/set_42/main_unc/leftBlue\GB_LB_2.xlsx
383	main_unc	True	0.0	350	0	5.0	5.0	1.0	1	right	1.0	1.0	1.0	1	0.013439804539099999	blockFiles/set_42/main_unc/leftBlue\GB_LB_2.xlsx
384	main_unc	True	0.0	350	0	5.0	5.0	1.0	1	right	1.0	0.0	1.0	1	0.0651698136702	blockFiles/set_42/main_unc/leftBlue\GB_LB_2.xlsx
385	main_unc	True	0.0	350	0	5.0	5.0	1.0	1	right	1.0	1.0	1.0	1	0.0105921060592	blockFiles/set_42/main_unc/leftBlue\GB_LB_2.xlsx
386	main_unc	True	0.0	350	0	5.0	5.0	1.0	1	right	1.0	1.0	1.0	1	0.0262107924931	blockFiles/set_42/main_unc/leftBlue\GB_LB_2.xlsx
387	main_unc	True	0.0	350	0	5.0	5.0	1.0	1	right	1.0	1.0	1.0	1	0.0639758714661	blockFiles/set_42/main_unc/leftBlue\GB_LB_2.xlsx
388	main_unc	True	0.0	350	0	5.0	5.0	1.0	1	right	1.0	1.0	1.0	1	0.020487479511599998	blockFiles/set_42/main_unc/leftBlue\GB_LB_2.xlsx
389	main_unc	True	0.0	350	0	5.0	5.0	1.0	1	right	1.0	1.0	1.0	1	0.0598101778328	blockFiles/set_42/main_unc/leftBlue\GB_LB_2.xlsx
390	main_unc	True	0.0	350	0	5.0	5.0	1.0	1	right	1.0	1.0	1.0	1	0.007064815126359999	blockFiles/set_42/main_unc/leftBlue\GB_LB_2.xlsx
391	main_unc	True	0.0	350	0	5.0	5.0	1.0	1	right	1.0	1.0	1.0	1	0.0533112322167	blockFiles/set_42/main_unc/leftBlue\GB_LB_2.xlsx
392	main_unc	True	0.0	350	0	5.0	5.0	1.0	1	right	1.0	1.0	1.0	1	0.0195191100612	blockFiles/set_42/main_unc/leftBlue\GB_LB_2.xlsx
393	main_unc	True	0.0	350	0	5.0	5.0	0.0	1	left	2.0	0.0	1.0	0	-0.0688719769754	blockFiles/set_42/main_unc/leftBlue\GB_LB_2.xlsx
394	main_unc	True	0.0	350	0	5.0	5.0	0.0	1	left	2.0	1.0	1.0	0	-0.07089597580950001	blockFiles/set_42/main_unc/leftBlue\GB_LB_2.xlsx
395	main_unc	True	0.0	350	0	5.0	5.0	1.0	1	right	1.0	1.0	1.0	1	0.016467105597299997	blockFiles/set_42/main_unc/leftBlue\GB_LB_2.xlsx
396	main_unc	True	0.0	350	0	5.0	5.0	0.0	1	left	2.0	0.0	1.0	0	-0.0566381958686	blockFiles/set_42/main_unc/leftBlue\GB_LB_2.xlsx
397	main_unc	True	0.0	350	0	5.0	5.0	0.0	1	left	2.0	0.0	1.0	0	-0.0281195826828	blockFiles/set_42/main_unc/leftBlue\GB_LB_2.xlsx
398	main_unc	True	0.0	350	0	5.0	5.0	0.0	1	left	2.0	1.0	1.0	0	-0.0069325315021	blockFiles/set_42/main_unc/leftBlue\GB_LB_2.xlsx
399	main_unc	True	0.0	350	0	5.0	5.0	0.0	1	left	2.0	0.0	1.0	0	-0.016318458076599998	blockFiles/set_42/main_unc/leftBlue\GB_LB_2.xlsx
400	main_unc	True	0.0	350	0	5.0	5.0	0.0	1	left	2.0	1.0	1.0	0	-0.030214531496200004	blockFiles/set_42/main_unc/leftBlue\GB_LB_2.xlsx
401	main_unc	True	0.0	350	0	5.0	5.0	0.0	1	left	2.0	1.0	1.0	0	-0.0715200378187	blockFiles/set_42/main_unc/leftBlue\GB_LB_2.xlsx
402	main_unc	True	0.0	350	0	5.0	5.0	1.0	1	right	1.0	1.0	1.0	1	0.047276838570800006	blockFiles/set_42/main_unc/leftBlue\GB_LB_2.xlsx
403	main_unc	True	0.0	350	0	5.0	5.0	0.0	1	left	2.0	1.0	1.0	0	-0.0771788228303	blockFiles/set_42/main_unc/leftBlue\GB_LB_2.xlsx
404	main_unc	True	0.0	350	0	5.0	5.0	1.0	1	right	1.0	1.0	1.0	1	0.07684920011089999	blockFiles/set_42/main_unc/leftBlue\GB_LB_2.xlsx
405	main_unc	True	0.0	350	0	5.0	5.0	0.0	1	left	2.0	1.0	1.0	0	-0.0306731715053	blockFiles/set_42/main_unc/leftBlue\GB_LB_2.xlsx
406	main_unc	True	0.0	350	0	6.0	6.0	0.0	1	left	1.0	0.0	0.0	0	-0.0328687815554	blockFiles/set_42/main_unc/leftBlue\GB_LB_3.xlsx
407	main_unc	True	0.0	350	0	6.0	6.0	1.0	1	right	1.0	0.0	1.0	1	0.024228141140200003	blockFiles/set_42/main_unc/leftBlue\GB_LB_3.xlsx
408	main_unc	True	0.0	350	0	6.0	6.0	1.0	1	right	2.0	0.0	0.0	1	0.041381942369	blockFiles/set_42/main_unc/leftBlue\GB_LB_3.xlsx
409	main_unc	True	0.0	350	0	6.0	6.0	0.0	1	left	2.0	1.0	1.0	0	-0.046234306022500005	blockFiles/set_42/main_unc/leftBlue\GB_LB_3.xlsx
410	main_unc	True	0.0	350	0	6.0	6.0	1.0	1	right	1.0	0.0	1.0	1	0.042211533039800006	blockFiles/set_42/main_unc/leftBlue\GB_LB_3.xlsx
411	main_unc	True	0.0	350	0	6.0	6.0	0.0	1	left	2.0	1.0	1.0	0	-0.055046960767400004	blockFiles/set_42/main_unc/leftBlue\GB_LB_3.xlsx
412	main_unc	True	0.0	350	0	6.0	6.0	1.0	1	right	1.0	0.0	1.0	1	0.033901236858200005	blockFiles/set_42/main_unc/leftBlue\GB_LB_3.xlsx
413	main_unc	True	0.0	350	0	6.0	6.0	0.0	1	left	2.0	1.0	1.0	0	-0.0199565745518	blockFiles/set_42/main_unc/leftBlue\GB_LB_3.xlsx
414	main_unc	True	0.0	350	0	6.0	6.0	1.0	1	right	1.0	0.0	1.0	1	0.030002744439999996	blockFiles/set_42/main_unc/leftBlue\GB_LB_3.xlsx
415	main_unc	True	0.0	350	0	6.0	6.0	1.0	1	right	1.0	1.0	1.0	1	0.0684776656888	blockFiles/set_42/main_unc/leftBlue\GB_LB_3.xlsx
416	main_unc	True	0.0	350	0	6.0	6.0	0.0	1	left	2.0	1.0	1.0	0	-0.059206359852099995	blockFiles/set_42/main_unc/leftBlue\GB_LB_3.xlsx
417	main_unc	True	0.0	350	0	6.0	6.0	1.0	1	right	1.0	1.0	1.0	1	0.0618580756336	blockFiles/set_42/main_unc/leftBlue\GB_LB_3.xlsx
418	main_unc	True	0.0	350	0	6.0	6.0	1.0	1	right	1.0	1.0	1.0	1	0.0504695079289	blockFiles/set_42/main_unc/leftBlue\GB_LB_3.xlsx
419	main_unc	True	0.0	350	0	6.0	6.0	0.0	1	left	2.0	1.0	1.0	0	-0.0633438235894	blockFiles/set_42/main_unc/leftBlue\GB_LB_3.xlsx
420	main_unc	True	0.0	350	0	6.0	6.0	1.0	0	right	1.0	0.0	0.0	0	-0.0015645932965	blockFiles/set_42/main_unc/leftBlue\GB_LB_3.xlsx
421	main_unc	True	0.0	350	0	6.0	6.0	1.0	1	right	1.0	1.0	1.0	1	0.0029841945879200004	blockFiles/set_42/main_unc/leftBlue\GB_LB_3.xlsx
422	main_unc	True	0.0	350	0	6.0	6.0	1.0	1	right	1.0	1.0	1.0	1	0.024963667262300003	blockFiles/set_42/main_unc/leftBlue\GB_LB_3.xlsx
423	main_unc	True	0.0	350	0	6.0	6.0	0.0	1	left	2.0	1.0	1.0	0	-0.016356479264799998	blockFiles/set_42/main_unc/leftBlue\GB_LB_3.xlsx
424	main_unc	True	0.0	350	0	6.0	6.0	1.0	1	right	1.0	1.0	1.0	1	0.07240894632410001	blockFiles/set_42/main_unc/leftBlue\GB_LB_3.xlsx
425	main_unc	True	0.0	350	0	6.0	6.0	0.0	1	left	2.0	1.0	1.0	0	-0.07447239089760001	blockFiles/set_42/main_unc/leftBlue\GB_LB_3.xlsx
426	main_unc	True	0.0	350	0	6.0	6.0	0.0	1	left	2.0	1.0	1.0	0	-0.070957262814	blockFiles/set_42/main_unc/leftBlue\GB_LB_3.xlsx
427	main_unc	True	0.0	350	0	6.0	6.0	1.0	1	right	1.0	1.0	1.0	1	0.048966464214000006	blockFiles/set_42/main_unc/leftBlue\GB_LB_3.xlsx
428	main_unc	True	0.0	350	0	6.0	6.0	1.0	1	right	1.0	1.0	1.0	1	0.0466333149187	blockFiles/set_42/main_unc/leftBlue\GB_LB_3.xlsx
429	main_unc	True	0.0	350	0	6.0	6.0	0.0	1	left	2.0	1.0	1.0	0	-0.0141124162264	blockFiles/set_42/main_unc/leftBlue\GB_LB_3.xlsx
430	main_unc	True	0.0	350	0	6.0	6.0	0.0	1	left	2.0	1.0	1.0	0	-0.030825241319800002	blockFiles/set_42/main_unc/leftBlue\GB_LB_3.xlsx
431	main_unc	True	0.0	350	0	7.0	7.0	1.0	1	right	2.0	0.0	0.0	1	0.0667380349338	blockFiles/set_42/main_unc/leftBlue\GB_LB_1.xlsx
432	main_unc	True	0.0	350	0	7.0	7.0	0.0	1	left	2.0	1.0	1.0	0	-0.041559936069	blockFiles/set_42/main_unc/leftBlue\GB_LB_1.xlsx
433	main_unc	True	0.0	350	0	7.0	7.0	1.0	1	right	1.0	1.0	1.0	1	0.019267498739099997	blockFiles/set_42/main_unc/leftBlue\GB_LB_1.xlsx
434	main_unc	True	0.0	350	0	7.0	7.0	0.0	1	left	2.0	0.0	1.0	0	-0.060217573214300005	blockFiles/set_42/main_unc/leftBlue\GB_LB_1.xlsx
435	main_unc	True	0.0	350	0	7.0	7.0	0.0	1	left	1.0	0.0	0.0	0	-0.057567218598	blockFiles/set_42/main_unc/leftBlue\GB_LB_1.xlsx
436	main_unc	True	0.0	350	0	7.0	7.0	0.0	1	left	2.0	1.0	1.0	0	-0.055661515370000005	blockFiles/set_42/main_unc/leftBlue\GB_LB_1.xlsx
437	main_unc	True	0.0	350	0	7.0	7.0	0.0	1	left	2.0	1.0	1.0	0	-0.00943571833894	blockFiles/set_42/main_unc/leftBlue\GB_LB_1.xlsx
438	main_unc	True	0.0	350	0	7.0	7.0	0.0	1	left	1.0	0.0	0.0	0	-0.013476945124600001	blockFiles/set_42/main_unc/leftBlue\GB_LB_1.xlsx
439	main_unc	True	0.0	350	0	7.0	7.0	0.0	1	left	2.0	1.0	1.0	0	-0.046105379611300006	blockFiles/set_42/main_unc/leftBlue\GB_LB_1.xlsx
440	main_unc	True	0.0	350	0	7.0	7.0	0.0	1	left	2.0	0.0	1.0	0	-0.05024844473230001	blockFiles/set_42/main_unc/leftBlue\GB_LB_1.xlsx
441	main_unc	True	0.0	350	0	7.0	7.0	1.0	1	right	1.0	1.0	1.0	1	0.0630302554555	blockFiles/set_42/main_unc/leftBlue\GB_LB_1.xlsx
442	main_unc	True	0.0	350	0	7.0	7.0	0.0	1	left	2.0	1.0	1.0	0	-0.0499379353039	blockFiles/set_42/main_unc/leftBlue\GB_LB_1.xlsx
443	main_unc	True	0.0	350	0	7.0	7.0	0.0	1	left	2.0	1.0	1.0	0	-0.0605398186669	blockFiles/set_42/main_unc/leftBlue\GB_LB_1.xlsx
444	main_unc	True	0.0	350	0	7.0	7.0	0.0	0	left	1.0	1.0	1.0	1	0.00187892172486	blockFiles/set_42/main_unc/leftBlue\GB_LB_1.xlsx
445	main_unc	True	0.0	350	0	7.0	7.0	0.0	0	left	1.0	1.0	1.0	1	0.0110592807643	blockFiles/set_42/main_unc/leftBlue\GB_LB_1.xlsx
446	main_unc	True	0.0	350	0	7.0	7.0	1.0	1	right	1.0	1.0	1.0	1	0.0370338751189	blockFiles/set_42/main_unc/leftBlue\GB_LB_1.xlsx
447	main_unc	True	0.0	350	0	7.0	7.0	0.0	1	left	2.0	0.0	1.0	0	-0.07373193388799999	blockFiles/set_42/main_unc/leftBlue\GB_LB_1.xlsx
448	main_unc	True	0.0	350	0	7.0	7.0	1.0	1	right	1.0	0.0	1.0	1	0.041904455963499995	blockFiles/set_42/main_unc/leftBlue\GB_LB_1.xlsx
449	main_unc	True	0.0	350	0	7.0	7.0	1.0	0	right	1.0	0.0	0.0	0	-0.0194759101421	blockFiles/set_42/main_unc/leftBlue\GB_LB_1.xlsx
450	main_unc	True	0.0	350	0	7.0	7.0	0.0	1	left	2.0	1.0	1.0	0	-0.0579322782904	blockFiles/set_42/main_unc/leftBlue\GB_LB_1.xlsx
451	main_unc	True	0.0	350	0	7.0	7.0	1.0	1	right	1.0	1.0	1.0	1	0.0469053979777	blockFiles/set_42/main_unc/leftBlue\GB_LB_1.xlsx
452	main_unc	True	0.0	350	0	7.0	7.0	1.0	1	right	1.0	0.0	1.0	1	0.020992238875500002	blockFiles/set_42/main_unc/leftBlue\GB_LB_1.xlsx
453	main_unc	True	0.0	350	0	7.0	7.0	1.0	1	right	1.0	1.0	1.0	1	0.0714569562674	blockFiles/set_42/main_unc/leftBlue\GB_LB_1.xlsx
454	main_unc	True	0.0	350	0	7.0	7.0	1.0	1	right	1.0	1.0	1.0	1	0.0547483012825	blockFiles/set_42/main_unc/leftBlue\GB_LB_1.xlsx
455	main_unc	True	0.0	350	0	7.0	7.0	1.0	1	right	1.0	1.0	1.0	1	0.0416622695141	blockFiles/set_42/main_unc/leftBlue\GB_LB_1.xlsx
456	main_unc	True	0.0	350	0	8.0	8.0	0.0	1	left	1.0	1.0	1.0	0	-0.0012608232907999999	blockFiles/set_42/main_unc/rightBlue\GB_RB_1.xlsx
457	main_unc	True	0.0	350	0	8.0	8.0	1.0	1	right	2.0	0.0	1.0	1	0.069710616041	blockFiles/set_42/main_unc/rightBlue\GB_RB_1.xlsx
458	main_unc	True	0.0	350	0	8.0	8.0	0.0	1	left	1.0	1.0	1.0	0	-0.0173596390709	blockFiles/set_42/main_unc/rightBlue\GB_RB_1.xlsx
459	main_unc	True	0.0	350	0	8.0	8.0	1.0	1	right	2.0	1.0	1.0	1	0.0401688244008	blockFiles/set_42/main_unc/rightBlue\GB_RB_1.xlsx
460	main_unc	True	0.0	350	0	8.0	8.0	1.0	1	right	2.0	1.0	1.0	1	0.0504551013	blockFiles/set_42/main_unc/rightBlue\GB_RB_1.xlsx
461	main_unc	True	0.0	350	0	8.0	8.0	1.0	1	right	2.0	1.0	1.0	1	0.00865184228867	blockFiles/set_42/main_unc/rightBlue\GB_RB_1.xlsx
462	main_unc	True	0.0	350	0	8.0	8.0	1.0	1	right	2.0	1.0	1.0	1	0.029253529868999997	blockFiles/set_42/main_unc/rightBlue\GB_RB_1.xlsx
463	main_unc	True	0.0	350	0	8.0	8.0	1.0	1	right	2.0	1.0	1.0	1	0.045459563918399996	blockFiles/set_42/main_unc/rightBlue\GB_RB_1.xlsx
464	main_unc	True	0.0	350	0	8.0	8.0	0.0	1	left	1.0	1.0	1.0	0	-0.0481078268215	blockFiles/set_42/main_unc/rightBlue\GB_RB_1.xlsx
465	main_unc	True	0.0	350	0	8.0	8.0	0.0	0	left	1.0	0.0	0.0	1	0.010718530118499998	blockFiles/set_42/main_unc/rightBlue\GB_RB_1.xlsx
466	main_unc	True	0.0	350	0	8.0	8.0	1.0	1	right	2.0	1.0	1.0	1	0.0389900023304	blockFiles/set_42/main_unc/rightBlue\GB_RB_1.xlsx
467	main_unc	True	0.0	350	0	8.0	8.0	0.0	1	left	1.0	1.0	1.0	0	-0.0230862374045	blockFiles/set_42/main_unc/rightBlue\GB_RB_1.xlsx
468	main_unc	True	0.0	350	0	8.0	8.0	1.0	1	right	1.0	0.0	0.0	1	0.0698990816809	blockFiles/set_42/main_unc/rightBlue\GB_RB_1.xlsx
469	main_unc	True	0.0	350	0	8.0	8.0	0.0	1	left	1.0	0.0	1.0	0	-0.043542964682	blockFiles/set_42/main_unc/rightBlue\GB_RB_1.xlsx
470	main_unc	True	0.0	350	0	8.0	8.0	1.0	0	right	2.0	0.0	0.0	0	-0.0101475753263	blockFiles/set_42/main_unc/rightBlue\GB_RB_1.xlsx
471	main_unc	True	0.0	350	0	8.0	8.0	0.0	1	left	1.0	1.0	1.0	0	-0.046212305259	blockFiles/set_42/main_unc/rightBlue\GB_RB_1.xlsx
472	main_unc	True	0.0	350	0	8.0	8.0	0.0	1	left	1.0	1.0	1.0	0	-0.014302207138399999	blockFiles/set_42/main_unc/rightBlue\GB_RB_1.xlsx
473	main_unc	True	0.0	350	0	8.0	8.0	1.0	1	right	2.0	0.0	1.0	1	0.0508763069101	blockFiles/set_42/main_unc/rightBlue\GB_RB_1.xlsx
474	main_unc	True	0.0	350	0	8.0	8.0	0.0	1	left	1.0	1.0	1.0	0	-0.0685800695419	blockFiles/set_42/main_unc/rightBlue\GB_RB_1.xlsx
475	main_unc	True	0.0	350	0	8.0	8.0	0.0	0	left	1.0	0.0	0.0	1	0.00351678032428	blockFiles/set_42/main_unc/rightBlue\GB_RB_1.xlsx
476	main_unc	True	0.0	350	0	8.0	8.0	0.0	1	left	1.0	1.0	1.0	0	-0.0407506003976	blockFiles/set_42/main_unc/rightBlue\GB_RB_1.xlsx
477	main_unc	True	0.0	350	0	8.0	8.0	1.0	1	right	2.0	1.0	1.0	1	0.0487178490125	blockFiles/set_42/main_unc/rightBlue\GB_RB_1.xlsx
478	main_unc	True	0.0	350	0	8.0	8.0	0.0	1	left	1.0	1.0	1.0	0	-0.0791818860359	blockFiles/set_42/main_unc/rightBlue\GB_RB_1.xlsx
479	main_unc	True	0.0	350	0	8.0	8.0	0.0	1	left	1.0	1.0	1.0	0	-0.041943380702300005	blockFiles/set_42/main_unc/rightBlue\GB_RB_1.xlsx
480	main_unc	True	0.0	350	0	8.0	8.0	0.0	1	left	1.0	1.0	1.0	0	-0.0567719691806	blockFiles/set_42/main_unc/rightBlue\GB_RB_1.xlsx
481	main_unc	True	1.0	350	0	9.0	9.0	n/a	0	None	n/a	0.0	n/a	0	-0.04489294154569999	blockFiles/set_42/main_unc/rightBlue\GB_RB_4.xlsx
482	main_unc	True	0.0	350	0	9.0	9.0	0.0	1	left	1.0	1.0	1.0	0	-0.07353006258610001	blockFiles/set_42/main_unc/rightBlue\GB_RB_4.xlsx
483	main_unc	True	0.0	350	0	9.0	9.0	0.0	1	left	1.0	1.0	1.0	0	-0.028544607777100002	blockFiles/set_42/main_unc/rightBlue\GB_RB_4.xlsx
484	main_unc	True	0.0	350	0	9.0	9.0	1.0	1	right	2.0	1.0	1.0	1	0.0796079736017	blockFiles/set_42/main_unc/rightBlue\GB_RB_4.xlsx
485	main_unc	True	0.0	350	0	9.0	9.0	1.0	1	right	2.0	1.0	1.0	1	0.037655111346400004	blockFiles/set_42/main_unc/rightBlue\GB_RB_4.xlsx
486	main_unc	True	1.0	350	0	9.0	9.0	0.0	0	left	n/a	0.0	n/a	1	0.00500907123089	blockFiles/set_42/main_unc/rightBlue\GB_RB_4.xlsx
487	main_unc	True	0.0	350	0	9.0	9.0	0.0	1	left	1.0	1.0	1.0	0	-0.0659334958531	blockFiles/set_42/main_unc/rightBlue\GB_RB_4.xlsx
488	main_unc	True	0.0	350	0	9.0	9.0	0.0	1	left	1.0	0.0	1.0	0	-0.024166817124900004	blockFiles/set_42/main_unc/rightBlue\GB_RB_4.xlsx
489	main_unc	True	0.0	350	0	9.0	9.0	1.0	1	right	2.0	0.0	1.0	1	0.051471991092	blockFiles/set_42/main_unc/rightBlue\GB_RB_4.xlsx
490	main_unc	True	0.0	350	0	9.0	9.0	1.0	1	right	2.0	1.0	1.0	1	0.0244038052484	blockFiles/set_42/main_unc/rightBlue\GB_RB_4.xlsx
491	main_unc	True	0.0	350	0	9.0	9.0	0.0	1	left	1.0	1.0	1.0	0	-0.0532797198929	blockFiles/set_42/main_unc/rightBlue\GB_RB_4.xlsx
492	main_unc	True	0.0	350	0	9.0	9.0	1.0	1	right	2.0	1.0	1.0	1	0.0491998563334	blockFiles/set_42/main_unc/rightBlue\GB_RB_4.xlsx
493	main_unc	True	0.0	350	0	9.0	9.0	0.0	1	left	1.0	1.0	1.0	0	-0.07125781549139999	blockFiles/set_42/main_unc/rightBlue\GB_RB_4.xlsx
494	main_unc	True	0.0	350	0	9.0	9.0	0.0	1	left	1.0	1.0	1.0	0	-0.034501445964	blockFiles/set_42/main_unc/rightBlue\GB_RB_4.xlsx
495	main_unc	True	0.0	350	0	9.0	9.0	0.0	1	left	1.0	0.0	1.0	0	-0.021024869605900002	blockFiles/set_42/main_unc/rightBlue\GB_RB_4.xlsx
496	main_unc	True	0.0	350	0	9.0	9.0	0.0	1	left	1.0	1.0	1.0	0	-0.0579131378233	blockFiles/set_42/main_unc/rightBlue\GB_RB_4.xlsx
497	main_unc	True	0.0	350	0	9.0	9.0	1.0	1	right	2.0	0.0	1.0	1	0.0186971087009	blockFiles/set_42/main_unc/rightBlue\GB_RB_4.xlsx
498	main_unc	True	0.0	350	0	9.0	9.0	1.0	1	right	2.0	1.0	1.0	1	0.0672675838508	blockFiles/set_42/main_unc/rightBlue\GB_RB_4.xlsx
499	main_unc	True	0.0	350	0	9.0	9.0	0.0	1	left	1.0	1.0	1.0	0	-0.051605762988300004	blockFiles/set_42/main_unc/rightBlue\GB_RB_4.xlsx
500	main_unc	True	0.0	350	0	9.0	9.0	1.0	1	right	2.0	1.0	1.0	1	0.0333643686958	blockFiles/set_42/main_unc/rightBlue\GB_RB_4.xlsx
501	main_unc	True	0.0	350	0	9.0	9.0	1.0	1	right	2.0	1.0	1.0	1	0.00773424038664	blockFiles/set_42/main_unc/rightBlue\GB_RB_4.xlsx
502	main_unc	True	0.0	350	0	9.0	9.0	1.0	1	right	2.0	1.0	1.0	1	0.0352948474139	blockFiles/set_42/main_unc/rightBlue\GB_RB_4.xlsx
503	main_unc	True	0.0	350	0	9.0	9.0	1.0	1	right	2.0	1.0	1.0	1	0.0154972070083	blockFiles/set_42/main_unc/rightBlue\GB_RB_4.xlsx
504	main_unc	True	0.0	350	0	9.0	9.0	0.0	1	left	2.0	1.0	0.0	0	-0.0199980221689	blockFiles/set_42/main_unc/rightBlue\GB_RB_4.xlsx
505	main_unc	True	0.0	350	0	9.0	9.0	0.0	1	left	2.0	0.0	0.0	0	-0.052659604158300004	blockFiles/set_42/main_unc/rightBlue\GB_RB_4.xlsx
506	main_unc	True	0.0	350	0	9.0	9.0	0.0	1	left	1.0	1.0	1.0	0	-0.04489294154569999	blockFiles/set_42/main_unc/rightBlue\GB_RB_4.xlsx
507	main_unc	True	0.0	350	0	9.0	9.0	0.0	0	left	2.0	1.0	1.0	1	0.00500907123089	blockFiles/set_42/main_unc/rightBlue\GB_RB_4.xlsx
508	main_unc	True	0.0	350	0	10.0	10.0	0.0	1	left	1.0	0.0	0.0	0	-0.0562229269557	blockFiles/set_42/main_unc/leftBlue\GB_LB_4.xlsx
509	main_unc	True	0.0	350	0	10.0	10.0	1.0	1	right	1.0	1.0	1.0	1	0.05351447489109999	blockFiles/set_42/main_unc/leftBlue\GB_LB_4.xlsx
510	main_unc	True	0.0	350	0	10.0	10.0	0.0	1	left	2.0	0.0	1.0	0	-0.0747904201411	blockFiles/set_42/main_unc/leftBlue\GB_LB_4.xlsx
511	main_unc	True	0.0	350	0	10.0	10.0	0.0	1	left	2.0	1.0	1.0	0	-0.039330617208	blockFiles/set_42/main_unc/leftBlue\GB_LB_4.xlsx
512	main_unc	True	0.0	350	0	10.0	10.0	1.0	1	right	1.0	1.0	1.0	1	0.027002595868000002	blockFiles/set_42/main_unc/leftBlue\GB_LB_4.xlsx
513	main_unc	True	0.0	350	0	10.0	10.0	1.0	1	right	1.0	1.0	1.0	1	0.013125671781600002	blockFiles/set_42/main_unc/leftBlue\GB_LB_4.xlsx
514	main_unc	True	0.0	350	0	10.0	10.0	1.0	1	right	1.0	1.0	1.0	1	0.024716122243599998	blockFiles/set_42/main_unc/leftBlue\GB_LB_4.xlsx
515	main_unc	True	0.0	350	0	10.0	10.0	0.0	1	left	2.0	1.0	1.0	0	-0.0454957784526	blockFiles/set_42/main_unc/leftBlue\GB_LB_4.xlsx
516	main_unc	True	0.0	350	0	10.0	10.0	1.0	1	right	1.0	1.0	1.0	1	0.0384642752074	blockFiles/set_42/main_unc/leftBlue\GB_LB_4.xlsx
517	main_unc	True	0.0	350	0	10.0	10.0	0.0	1	left	2.0	1.0	1.0	0	-0.036221348624699994	blockFiles/set_42/main_unc/leftBlue\GB_LB_4.xlsx
518	main_unc	True	0.0	350	0	10.0	10.0	1.0	1	right	1.0	1.0	1.0	1	0.0613351739384	blockFiles/set_42/main_unc/leftBlue\GB_LB_4.xlsx
519	main_unc	True	0.0	350	0	10.0	10.0	0.0	1	left	2.0	1.0	1.0	0	-0.0131405855902	blockFiles/set_42/main_unc/leftBlue\GB_LB_4.xlsx
520	main_unc	True	0.0	350	0	10.0	10.0	1.0	1	right	1.0	1.0	1.0	1	0.0530935018696	blockFiles/set_42/main_unc/leftBlue\GB_LB_4.xlsx
521	main_unc	True	0.0	350	0	10.0	10.0	1.0	0	right	1.0	0.0	0.0	0	-0.0008153715729710001	blockFiles/set_42/main_unc/leftBlue\GB_LB_4.xlsx
522	main_unc	True	0.0	350	0	10.0	10.0	0.0	1	left	2.0	0.0	1.0	0	-0.0424162033014	blockFiles/set_42/main_unc/leftBlue\GB_LB_4.xlsx
523	main_unc	True	0.0	350	0	10.0	10.0	1.0	1	right	1.0	1.0	1.0	1	0.0122424534522	blockFiles/set_42/main_unc/leftBlue\GB_LB_4.xlsx
524	main_unc	True	0.0	350	0	10.0	10.0	0.0	1	left	2.0	1.0	1.0	0	-0.0404334189743	blockFiles/set_42/main_unc/leftBlue\GB_LB_4.xlsx
525	main_unc	True	0.0	350	0	10.0	10.0	1.0	1	right	1.0	1.0	1.0	1	0.07302031552419999	blockFiles/set_42/main_unc/leftBlue\GB_LB_4.xlsx
526	main_unc	True	0.0	350	0	10.0	10.0	1.0	1	right	1.0	0.0	1.0	1	0.028541777450599996	blockFiles/set_42/main_unc/leftBlue\GB_LB_4.xlsx
527	main_unc	True	0.0	350	0	10.0	10.0	1.0	1	right	1.0	1.0	1.0	1	0.0294283485971	blockFiles/set_42/main_unc/leftBlue\GB_LB_4.xlsx
528	main_unc	True	0.0	350	0	10.0	10.0	1.0	1	right	1.0	1.0	1.0	1	0.028491659089900003	blockFiles/set_42/main_unc/leftBlue\GB_LB_4.xlsx
529	main_unc	True	0.0	350	0	10.0	10.0	0.0	1	left	2.0	1.0	1.0	0	-0.0343685097806	blockFiles/set_42/main_unc/leftBlue\GB_LB_4.xlsx
530	main_unc	True	0.0	350	0	10.0	10.0	0.0	1	left	2.0	1.0	1.0	0	-0.0792498857901	blockFiles/set_42/main_unc/leftBlue\GB_LB_4.xlsx
531	main_unc	True	0.0	350	0	10.0	10.0	0.0	1	left	2.0	1.0	1.0	0	-0.07369545627389999	blockFiles/set_42/main_unc/leftBlue\GB_LB_4.xlsx
532	main_unc	True	0.0	350	0	10.0	10.0	0.0	1	left	1.0	1.0	0.0	0	-0.0111820120551	blockFiles/set_42/main_unc/leftBlue\GB_LB_4.xlsx
533	main_unc	True	1.0	350	0	11.0	11.0	n/a	0	None	n/a	0.0	n/a	0	-0.027491464391400003	blockFiles/set_42/main_unc/rightBlue\GB_RB_2.xlsx
534	main_unc	True	0.0	350	0	11.0	11.0	1.0	1	right	2.0	0.0	1.0	1	0.0369083856419	blockFiles/set_42/main_unc/rightBlue\GB_RB_2.xlsx
535	main_unc	True	1.0	350	0	11.0	11.0	n/a	0	None	n/a	0.0	n/a	0	-0.017844715584099998	blockFiles/set_42/main_unc/rightBlue\GB_RB_2.xlsx
536	main_unc	True	0.0	350	0	11.0	11.0	0.0	1	left	2.0	0.0	0.0	0	-0.047491709999699996	blockFiles/set_42/main_unc/rightBlue\GB_RB_2.xlsx
537	main_unc	True	0.0	350	0	11.0	11.0	1.0	1	right	1.0	0.0	0.0	1	0.04815732209009999	blockFiles/set_42/main_unc/rightBlue\GB_RB_2.xlsx
538	main_unc	True	0.0	350	0	11.0	11.0	0.0	1	left	1.0	1.0	1.0	0	-0.07347032351419999	blockFiles/set_42/main_unc/rightBlue\GB_RB_2.xlsx
539	main_unc	True	0.0	350	0	11.0	11.0	0.0	1	left	1.0	1.0	1.0	0	-0.0432527665049	blockFiles/set_42/main_unc/rightBlue\GB_RB_2.xlsx
540	main_unc	True	0.0	350	0	11.0	11.0	1.0	1	right	2.0	0.0	1.0	1	0.00776027940214	blockFiles/set_42/main_unc/rightBlue\GB_RB_2.xlsx
541	main_unc	True	0.0	350	0	11.0	11.0	1.0	1	right	2.0	0.0	1.0	1	0.0354712408222	blockFiles/set_42/main_unc/rightBlue\GB_RB_2.xlsx
542	main_unc	True	0.0	350	0	11.0	11.0	0.0	1	left	2.0	0.0	0.0	0	-0.06509223610159999	blockFiles/set_42/main_unc/rightBlue\GB_RB_2.xlsx
543	main_unc	True	0.0	350	0	11.0	11.0	0.0	1	left	1.0	1.0	1.0	0	-0.0143671436794	blockFiles/set_42/main_unc/rightBlue\GB_RB_2.xlsx
544	main_unc	True	0.0	350	0	11.0	11.0	1.0	1	right	2.0	1.0	1.0	1	0.0463572900183	blockFiles/set_42/main_unc/rightBlue\GB_RB_2.xlsx
545	main_unc	True	0.0	350	0	11.0	11.0	1.0	1	right	2.0	1.0	1.0	1	0.050813667327199996	blockFiles/set_42/main_unc/rightBlue\GB_RB_2.xlsx
546	main_unc	True	0.0	350	0	11.0	11.0	0.0	0	left	2.0	1.0	1.0	1	0.007548140343279999	blockFiles/set_42/main_unc/rightBlue\GB_RB_2.xlsx
547	main_unc	True	0.0	350	0	11.0	11.0	0.0	1	left	1.0	0.0	1.0	0	-0.07982337087389998	blockFiles/set_42/main_unc/rightBlue\GB_RB_2.xlsx
548	main_unc	True	0.0	350	0	11.0	11.0	1.0	1	right	2.0	1.0	1.0	1	0.0637700365111	blockFiles/set_42/main_unc/rightBlue\GB_RB_2.xlsx
549	main_unc	True	0.0	350	0	11.0	11.0	0.0	1	left	1.0	1.0	1.0	0	-0.0230861668661	blockFiles/set_42/main_unc/rightBlue\GB_RB_2.xlsx
550	main_unc	True	0.0	350	0	11.0	11.0	1.0	1	right	2.0	1.0	1.0	1	0.0354841524735	blockFiles/set_42/main_unc/rightBlue\GB_RB_2.xlsx
551	main_unc	True	0.0	350	0	11.0	11.0	0.0	1	left	1.0	0.0	1.0	0	-0.0460317847133	blockFiles/set_42/main_unc/rightBlue\GB_RB_2.xlsx
552	main_unc	True	0.0	350	0	11.0	11.0	0.0	1	left	1.0	1.0	1.0	0	-0.0166166448966	blockFiles/set_42/main_unc/rightBlue\GB_RB_2.xlsx
553	main_unc	True	0.0	350	0	11.0	11.0	1.0	1	right	2.0	0.0	1.0	1	0.0659243442118	blockFiles/set_42/main_unc/rightBlue\GB_RB_2.xlsx
554	main_unc	True	0.0	350	0	11.0	11.0	1.0	1	right	2.0	1.0	1.0	1	0.0676234536245	blockFiles/set_42/main_unc/rightBlue\GB_RB_2.xlsx
555	main_unc	True	0.0	350	0	11.0	11.0	0.0	1	left	1.0	1.0	1.0	0	-0.0372057406418	blockFiles/set_42/main_unc/rightBlue\GB_RB_2.xlsx
556	main_unc	True	0.0	350	0	11.0	11.0	1.0	1	right	2.0	1.0	1.0	1	0.0445884564519	blockFiles/set_42/main_unc/rightBlue\GB_RB_2.xlsx
557	main_unc	True	0.0	350	0	11.0	11.0	0.0	0	left	1.0	0.0	0.0	1	0.017869703285400003	blockFiles/set_42/main_unc/rightBlue\GB_RB_2.xlsx
558	main_unc	True	0.0	350	0	11.0	11.0	0.0	1	left	1.0	1.0	1.0	0	-0.027491464391400003	blockFiles/set_42/main_unc/rightBlue\GB_RB_2.xlsx
559	main_unc	True	0.0	350	0	11.0	11.0	0.0	1	left	1.0	1.0	1.0	0	-0.017844715584099998	blockFiles/set_42/main_unc/rightBlue\GB_RB_2.xlsx
