	trial_type	complete	missIndex	participant	id	blockNumber	b_t	d_t	decision1.corr	decision1.keys	a_t	r_t	decision2.corr	s_t	u_t	block_file
0	main_safe	True	0.0	706	0	0.0	0.0	1.0	1	right	2.0	0.0	1.0	1	0.08	blockFiles/set_10/main_safe/rightBlue\GB_RB_2.xlsx
1	main_safe	True	0.0	706	0	0.0	0.0	1.0	1	right	1.0	0.0	0.0	1	0.08	blockFiles/set_10/main_safe/rightBlue\GB_RB_2.xlsx
2	main_safe	True	1.0	706	0	0.0	0.0	n/a	0	None	n/a	0.0	n/a	0	-0.08	blockFiles/set_10/main_safe/rightBlue\GB_RB_2.xlsx
3	main_safe	True	0.0	706	0	0.0	0.0	0.0	1	left	2.0	0.0	0.0	0	-0.08	blockFiles/set_10/main_safe/rightBlue\GB_RB_2.xlsx
4	main_safe	True	0.0	706	0	0.0	0.0	1.0	1	right	2.0	0.0	1.0	1	0.08	blockFiles/set_10/main_safe/rightBlue\GB_RB_2.xlsx
5	main_safe	True	0.0	706	0	0.0	0.0	0.0	1	left	1.0	0.0	1.0	0	-0.08	blockFiles/set_10/main_safe/rightBlue\GB_RB_2.xlsx
6	main_safe	True	0.0	706	0	0.0	0.0	0.0	1	left	2.0	0.0	0.0	0	-0.08	blockFiles/set_10/main_safe/rightBlue\GB_RB_2.xlsx
7	main_safe	True	0.0	706	0	0.0	0.0	1.0	1	right	1.0	0.0	0.0	1	0.08	blockFiles/set_10/main_safe/rightBlue\GB_RB_2.xlsx
8	main_safe	True	0.0	706	0	0.0	0.0	0.0	1	left	1.0	1.0	1.0	0	-0.08	blockFiles/set_10/main_safe/rightBlue\GB_RB_2.xlsx
9	main_safe	True	0.0	706	0	0.0	0.0	1.0	1	right	2.0	1.0	1.0	1	0.08	blockFiles/set_10/main_safe/rightBlue\GB_RB_2.xlsx
10	main_safe	True	0.0	706	0	0.0	0.0	0.0	1	left	1.0	1.0	1.0	0	-0.08	blockFiles/set_10/main_safe/rightBlue\GB_RB_2.xlsx
11	main_safe	True	0.0	706	0	0.0	0.0	1.0	1	right	2.0	1.0	1.0	1	0.08	blockFiles/set_10/main_safe/rightBlue\GB_RB_2.xlsx
12	main_safe	True	0.0	706	0	0.0	0.0	0.0	1	left	1.0	1.0	1.0	0	-0.08	blockFiles/set_10/main_safe/rightBlue\GB_RB_2.xlsx
13	main_safe	True	0.0	706	0	0.0	0.0	1.0	1	right	2.0	0.0	1.0	1	0.08	blockFiles/set_10/main_safe/rightBlue\GB_RB_2.xlsx
14	main_safe	True	0.0	706	0	0.0	0.0	1.0	1	right	2.0	1.0	1.0	1	0.08	blockFiles/set_10/main_safe/rightBlue\GB_RB_2.xlsx
15	main_safe	True	0.0	706	0	0.0	0.0	0.0	1	left	1.0	1.0	1.0	0	-0.08	blockFiles/set_10/main_safe/rightBlue\GB_RB_2.xlsx
16	main_safe	True	0.0	706	0	0.0	0.0	1.0	1	right	2.0	1.0	1.0	1	0.08	blockFiles/set_10/main_safe/rightBlue\GB_RB_2.xlsx
17	main_safe	True	0.0	706	0	0.0	0.0	1.0	1	right	2.0	1.0	1.0	1	0.08	blockFiles/set_10/main_safe/rightBlue\GB_RB_2.xlsx
18	main_safe	True	0.0	706	0	0.0	0.0	0.0	1	left	1.0	1.0	1.0	0	-0.08	blockFiles/set_10/main_safe/rightBlue\GB_RB_2.xlsx
19	main_safe	True	1.0	706	0	0.0	0.0	0.0	1	left	n/a	0.0	n/a	0	-0.08	blockFiles/set_10/main_safe/rightBlue\GB_RB_2.xlsx
20	main_safe	True	0.0	706	0	0.0	0.0	1.0	1	right	2.0	1.0	1.0	1	0.08	blockFiles/set_10/main_safe/rightBlue\GB_RB_2.xlsx
21	main_safe	True	0.0	706	0	0.0	0.0	0.0	1	left	1.0	1.0	1.0	0	-0.08	blockFiles/set_10/main_safe/rightBlue\GB_RB_2.xlsx
22	main_safe	True	0.0	706	0	0.0	0.0	1.0	1	right	2.0	0.0	1.0	1	0.08	blockFiles/set_10/main_safe/rightBlue\GB_RB_2.xlsx
23	main_safe	True	0.0	706	0	0.0	0.0	1.0	1	right	2.0	1.0	1.0	1	0.08	blockFiles/set_10/main_safe/rightBlue\GB_RB_2.xlsx
24	main_safe	True	0.0	706	0	0.0	0.0	0.0	1	left	1.0	1.0	1.0	0	-0.08	blockFiles/set_10/main_safe/rightBlue\GB_RB_2.xlsx
25	main_safe	True	0.0	706	0	0.0	0.0	0.0	1	left	n/a	0.0	n/a	0	-0.08	blockFiles/set_10/main_safe/rightBlue\GB_RB_2.xlsx
26	main_safe	True	0.0	706	0	0.0	0.0	0.0	1	left	1.0	1.0	1.0	0	-0.08	blockFiles/set_10/main_safe/rightBlue\GB_RB_2.xlsx
27	main_safe	True	0.0	706	0	0.0	0.0	0.0	1	left	1.0	1.0	1.0	0	-0.08	blockFiles/set_10/main_safe/rightBlue\GB_RB_2.xlsx
28	main_safe	True	0.0	706	0	1.0	1.0	0.0	1	left	2.0	1.0	1.0	0	-0.08	blockFiles/set_10/main_safe/leftBlue\GB_LB_3.xlsx
29	main_safe	True	0.0	706	0	1.0	1.0	1.0	1	right	1.0	1.0	1.0	1	0.08	blockFiles/set_10/main_safe/leftBlue\GB_LB_3.xlsx
30	main_safe	True	0.0	706	0	1.0	1.0	0.0	1	left	2.0	0.0	1.0	0	-0.08	blockFiles/set_10/main_safe/leftBlue\GB_LB_3.xlsx
31	main_safe	True	0.0	706	0	1.0	1.0	1.0	1	right	1.0	1.0	1.0	1	0.08	blockFiles/set_10/main_safe/leftBlue\GB_LB_3.xlsx
32	main_safe	True	0.0	706	0	1.0	1.0	1.0	1	right	1.0	0.0	1.0	1	0.08	blockFiles/set_10/main_safe/leftBlue\GB_LB_3.xlsx
33	main_safe	True	0.0	706	0	1.0	1.0	1.0	1	right	1.0	0.0	1.0	1	0.08	blockFiles/set_10/main_safe/leftBlue\GB_LB_3.xlsx
34	main_safe	True	0.0	706	0	1.0	1.0	0.0	1	left	2.0	1.0	1.0	0	-0.08	blockFiles/set_10/main_safe/leftBlue\GB_LB_3.xlsx
35	main_safe	True	0.0	706	0	1.0	1.0	0.0	1	left	2.0	0.0	1.0	0	-0.08	blockFiles/set_10/main_safe/leftBlue\GB_LB_3.xlsx
36	main_safe	True	0.0	706	0	1.0	1.0	1.0	1	right	2.0	0.0	0.0	1	0.08	blockFiles/set_10/main_safe/leftBlue\GB_LB_3.xlsx
37	main_safe	True	0.0	706	0	1.0	1.0	1.0	1	right	1.0	1.0	1.0	1	0.08	blockFiles/set_10/main_safe/leftBlue\GB_LB_3.xlsx
38	main_safe	True	0.0	706	0	1.0	1.0	1.0	1	right	1.0	1.0	1.0	1	0.08	blockFiles/set_10/main_safe/leftBlue\GB_LB_3.xlsx
39	main_safe	True	0.0	706	0	1.0	1.0	1.0	1	right	1.0	1.0	1.0	1	0.08	blockFiles/set_10/main_safe/leftBlue\GB_LB_3.xlsx
40	main_safe	True	0.0	706	0	1.0	1.0	1.0	1	right	1.0	1.0	1.0	1	0.08	blockFiles/set_10/main_safe/leftBlue\GB_LB_3.xlsx
41	main_safe	True	0.0	706	0	1.0	1.0	1.0	1	right	1.0	1.0	1.0	1	0.08	blockFiles/set_10/main_safe/leftBlue\GB_LB_3.xlsx
42	main_safe	True	0.0	706	0	1.0	1.0	0.0	1	left	2.0	1.0	1.0	0	-0.08	blockFiles/set_10/main_safe/leftBlue\GB_LB_3.xlsx
43	main_safe	True	0.0	706	0	1.0	1.0	1.0	1	right	1.0	1.0	1.0	1	0.08	blockFiles/set_10/main_safe/leftBlue\GB_LB_3.xlsx
44	main_safe	True	0.0	706	0	1.0	1.0	0.0	1	left	2.0	1.0	1.0	0	-0.08	blockFiles/set_10/main_safe/leftBlue\GB_LB_3.xlsx
45	main_safe	True	0.0	706	0	1.0	1.0	0.0	1	left	2.0	1.0	1.0	0	-0.08	blockFiles/set_10/main_safe/leftBlue\GB_LB_3.xlsx
46	main_safe	True	1.0	706	0	1.0	1.0	0.0	1	left	n/a	0.0	n/a	0	-0.08	blockFiles/set_10/main_safe/leftBlue\GB_LB_3.xlsx
47	main_safe	True	0.0	706	0	1.0	1.0	1.0	1	right	1.0	1.0	1.0	1	0.08	blockFiles/set_10/main_safe/leftBlue\GB_LB_3.xlsx
48	main_safe	True	0.0	706	0	1.0	1.0	0.0	1	left	2.0	1.0	1.0	0	-0.08	blockFiles/set_10/main_safe/leftBlue\GB_LB_3.xlsx
49	main_safe	True	0.0	706	0	1.0	1.0	0.0	1	left	2.0	1.0	1.0	0	-0.08	blockFiles/set_10/main_safe/leftBlue\GB_LB_3.xlsx
50	main_safe	True	0.0	706	0	1.0	1.0	0.0	1	left	2.0	0.0	1.0	0	-0.08	blockFiles/set_10/main_safe/leftBlue\GB_LB_3.xlsx
51	main_safe	True	0.0	706	0	1.0	1.0	0.0	1	left	2.0	1.0	1.0	0	-0.08	blockFiles/set_10/main_safe/leftBlue\GB_LB_3.xlsx
52	main_safe	True	0.0	706	0	1.0	1.0	1.0	1	right	1.0	1.0	1.0	1	0.08	blockFiles/set_10/main_safe/leftBlue\GB_LB_3.xlsx
53	main_safe	True	0.0	706	0	1.0	1.0	0.0	1	left	2.0	1.0	1.0	0	-0.08	blockFiles/set_10/main_safe/leftBlue\GB_LB_3.xlsx
54	main_safe	True	0.0	706	0	2.0	2.0	1.0	1	right	2.0	0.0	1.0	1	0.08	blockFiles/set_10/main_safe/rightBlue\GB_RB_1.xlsx
55	main_safe	True	0.0	706	0	2.0	2.0	0.0	1	left	2.0	0.0	0.0	0	-0.08	blockFiles/set_10/main_safe/rightBlue\GB_RB_1.xlsx
56	main_safe	True	0.0	706	0	2.0	2.0	1.0	1	right	2.0	1.0	1.0	1	0.08	blockFiles/set_10/main_safe/rightBlue\GB_RB_1.xlsx
57	main_safe	True	0.0	706	0	2.0	2.0	0.0	1	left	1.0	1.0	1.0	0	-0.08	blockFiles/set_10/main_safe/rightBlue\GB_RB_1.xlsx
58	main_safe	True	0.0	706	0	2.0	2.0	0.0	1	left	1.0	1.0	1.0	0	-0.08	blockFiles/set_10/main_safe/rightBlue\GB_RB_1.xlsx
59	main_safe	True	0.0	706	0	2.0	2.0	1.0	1	right	2.0	0.0	1.0	1	0.08	blockFiles/set_10/main_safe/rightBlue\GB_RB_1.xlsx
60	main_safe	True	0.0	706	0	2.0	2.0	1.0	1	right	2.0	1.0	1.0	1	0.08	blockFiles/set_10/main_safe/rightBlue\GB_RB_1.xlsx
61	main_safe	True	0.0	706	0	2.0	2.0	0.0	1	left	1.0	1.0	1.0	0	-0.08	blockFiles/set_10/main_safe/rightBlue\GB_RB_1.xlsx
62	main_safe	True	0.0	706	0	2.0	2.0	0.0	1	left	1.0	1.0	1.0	0	-0.08	blockFiles/set_10/main_safe/rightBlue\GB_RB_1.xlsx
63	main_safe	True	0.0	706	0	2.0	2.0	1.0	1	right	2.0	1.0	1.0	1	0.08	blockFiles/set_10/main_safe/rightBlue\GB_RB_1.xlsx
64	main_safe	True	0.0	706	0	2.0	2.0	0.0	1	left	1.0	1.0	1.0	0	-0.08	blockFiles/set_10/main_safe/rightBlue\GB_RB_1.xlsx
65	main_safe	True	0.0	706	0	2.0	2.0	1.0	1	right	2.0	1.0	1.0	1	0.08	blockFiles/set_10/main_safe/rightBlue\GB_RB_1.xlsx
66	main_safe	True	0.0	706	0	2.0	2.0	1.0	1	right	2.0	1.0	1.0	1	0.08	blockFiles/set_10/main_safe/rightBlue\GB_RB_1.xlsx
67	main_safe	True	0.0	706	0	2.0	2.0	0.0	1	left	1.0	0.0	1.0	0	-0.08	blockFiles/set_10/main_safe/rightBlue\GB_RB_1.xlsx
68	main_safe	True	0.0	706	0	2.0	2.0	0.0	1	left	1.0	1.0	1.0	0	-0.08	blockFiles/set_10/main_safe/rightBlue\GB_RB_1.xlsx
69	main_safe	True	0.0	706	0	2.0	2.0	1.0	1	right	2.0	1.0	1.0	1	0.08	blockFiles/set_10/main_safe/rightBlue\GB_RB_1.xlsx
70	main_safe	True	0.0	706	0	2.0	2.0	1.0	1	right	2.0	1.0	1.0	1	0.08	blockFiles/set_10/main_safe/rightBlue\GB_RB_1.xlsx
71	main_safe	True	0.0	706	0	2.0	2.0	0.0	1	left	1.0	1.0	1.0	0	-0.08	blockFiles/set_10/main_safe/rightBlue\GB_RB_1.xlsx
72	main_safe	True	0.0	706	0	2.0	2.0	0.0	1	left	1.0	1.0	1.0	0	-0.08	blockFiles/set_10/main_safe/rightBlue\GB_RB_1.xlsx
73	main_safe	True	0.0	706	0	2.0	2.0	1.0	1	right	2.0	0.0	1.0	1	0.08	blockFiles/set_10/main_safe/rightBlue\GB_RB_1.xlsx
74	main_safe	True	0.0	706	0	2.0	2.0	1.0	1	right	2.0	1.0	1.0	1	0.08	blockFiles/set_10/main_safe/rightBlue\GB_RB_1.xlsx
75	main_safe	True	0.0	706	0	2.0	2.0	0.0	1	left	1.0	1.0	1.0	0	-0.08	blockFiles/set_10/main_safe/rightBlue\GB_RB_1.xlsx
76	main_safe	True	0.0	706	0	2.0	2.0	1.0	1	right	2.0	1.0	1.0	1	0.08	blockFiles/set_10/main_safe/rightBlue\GB_RB_1.xlsx
77	main_safe	True	0.0	706	0	2.0	2.0	0.0	1	left	1.0	1.0	1.0	0	-0.08	blockFiles/set_10/main_safe/rightBlue\GB_RB_1.xlsx
78	main_safe	True	0.0	706	0	2.0	2.0	0.0	1	left	1.0	0.0	1.0	0	-0.08	blockFiles/set_10/main_safe/rightBlue\GB_RB_1.xlsx
79	main_safe	True	0.0	706	0	3.0	3.0	1.0	1	right	2.0	0.0	0.0	1	0.08	blockFiles/set_10/main_safe/leftBlue\GB_LB_2.xlsx
80	main_safe	True	0.0	706	0	3.0	3.0	0.0	1	left	2.0	0.0	1.0	0	-0.08	blockFiles/set_10/main_safe/leftBlue\GB_LB_2.xlsx
81	main_safe	True	0.0	706	0	3.0	3.0	0.0	1	left	2.0	1.0	1.0	0	-0.08	blockFiles/set_10/main_safe/leftBlue\GB_LB_2.xlsx
82	main_safe	True	0.0	706	0	3.0	3.0	0.0	1	left	2.0	1.0	1.0	0	-0.08	blockFiles/set_10/main_safe/leftBlue\GB_LB_2.xlsx
83	main_safe	True	0.0	706	0	3.0	3.0	1.0	1	right	1.0	1.0	1.0	1	0.08	blockFiles/set_10/main_safe/leftBlue\GB_LB_2.xlsx
84	main_safe	True	0.0	706	0	3.0	3.0	1.0	1	right	1.0	1.0	1.0	1	0.08	blockFiles/set_10/main_safe/leftBlue\GB_LB_2.xlsx
85	main_safe	True	0.0	706	0	3.0	3.0	0.0	1	left	2.0	1.0	1.0	0	-0.08	blockFiles/set_10/main_safe/leftBlue\GB_LB_2.xlsx
86	main_safe	True	0.0	706	0	3.0	3.0	1.0	1	right	2.0	0.0	0.0	1	0.08	blockFiles/set_10/main_safe/leftBlue\GB_LB_2.xlsx
87	main_safe	True	0.0	706	0	3.0	3.0	1.0	1	right	2.0	0.0	0.0	1	0.08	blockFiles/set_10/main_safe/leftBlue\GB_LB_2.xlsx
88	main_safe	True	0.0	706	0	3.0	3.0	0.0	1	left	1.0	0.0	0.0	0	-0.08	blockFiles/set_10/main_safe/leftBlue\GB_LB_2.xlsx
89	main_safe	True	0.0	706	0	3.0	3.0	1.0	1	right	2.0	0.0	0.0	1	0.08	blockFiles/set_10/main_safe/leftBlue\GB_LB_2.xlsx
90	main_safe	True	0.0	706	0	3.0	3.0	1.0	1	right	1.0	1.0	1.0	1	0.08	blockFiles/set_10/main_safe/leftBlue\GB_LB_2.xlsx
91	main_safe	True	0.0	706	0	3.0	3.0	0.0	1	left	2.0	1.0	1.0	0	-0.08	blockFiles/set_10/main_safe/leftBlue\GB_LB_2.xlsx
92	main_safe	True	0.0	706	0	3.0	3.0	0.0	1	left	2.0	1.0	1.0	0	-0.08	blockFiles/set_10/main_safe/leftBlue\GB_LB_2.xlsx
93	main_safe	True	0.0	706	0	3.0	3.0	0.0	1	left	2.0	1.0	1.0	0	-0.08	blockFiles/set_10/main_safe/leftBlue\GB_LB_2.xlsx
94	main_safe	True	0.0	706	0	3.0	3.0	0.0	1	left	2.0	1.0	1.0	0	-0.08	blockFiles/set_10/main_safe/leftBlue\GB_LB_2.xlsx
95	main_safe	True	0.0	706	0	3.0	3.0	0.0	1	left	2.0	1.0	1.0	0	-0.08	blockFiles/set_10/main_safe/leftBlue\GB_LB_2.xlsx
96	main_safe	True	0.0	706	0	3.0	3.0	1.0	1	right	1.0	0.0	1.0	1	0.08	blockFiles/set_10/main_safe/leftBlue\GB_LB_2.xlsx
97	main_safe	True	0.0	706	0	3.0	3.0	1.0	1	right	1.0	1.0	1.0	1	0.08	blockFiles/set_10/main_safe/leftBlue\GB_LB_2.xlsx
98	main_safe	True	0.0	706	0	3.0	3.0	0.0	1	left	2.0	1.0	1.0	0	-0.08	blockFiles/set_10/main_safe/leftBlue\GB_LB_2.xlsx
99	main_safe	True	0.0	706	0	3.0	3.0	0.0	1	left	2.0	0.0	1.0	0	-0.08	blockFiles/set_10/main_safe/leftBlue\GB_LB_2.xlsx
100	main_safe	True	0.0	706	0	3.0	3.0	1.0	1	right	1.0	1.0	1.0	1	0.08	blockFiles/set_10/main_safe/leftBlue\GB_LB_2.xlsx
101	main_safe	True	0.0	706	0	3.0	3.0	0.0	1	left	2.0	0.0	1.0	0	-0.08	blockFiles/set_10/main_safe/leftBlue\GB_LB_2.xlsx
102	main_safe	True	0.0	706	0	3.0	3.0	1.0	1	right	1.0	1.0	1.0	1	0.08	blockFiles/set_10/main_safe/leftBlue\GB_LB_2.xlsx
103	main_safe	True	0.0	706	0	3.0	3.0	1.0	1	right	1.0	1.0	1.0	1	0.08	blockFiles/set_10/main_safe/leftBlue\GB_LB_2.xlsx
104	main_safe	True	0.0	706	0	4.0	4.0	0.0	1	left	1.0	1.0	1.0	0	-0.08	blockFiles/set_10/main_safe/rightBlue\GB_RB_3.xlsx
105	main_safe	True	0.0	706	0	4.0	4.0	0.0	1	left	1.0	1.0	1.0	0	-0.08	blockFiles/set_10/main_safe/rightBlue\GB_RB_3.xlsx
106	main_safe	True	0.0	706	0	4.0	4.0	0.0	1	left	1.0	1.0	1.0	0	-0.08	blockFiles/set_10/main_safe/rightBlue\GB_RB_3.xlsx
107	main_safe	True	0.0	706	0	4.0	4.0	1.0	1	right	2.0	1.0	1.0	1	0.08	blockFiles/set_10/main_safe/rightBlue\GB_RB_3.xlsx
108	main_safe	True	0.0	706	0	4.0	4.0	1.0	1	right	2.0	1.0	1.0	1	0.08	blockFiles/set_10/main_safe/rightBlue\GB_RB_3.xlsx
109	main_safe	True	0.0	706	0	4.0	4.0	1.0	1	right	2.0	1.0	1.0	1	0.08	blockFiles/set_10/main_safe/rightBlue\GB_RB_3.xlsx
110	main_safe	True	0.0	706	0	4.0	4.0	1.0	1	right	2.0	1.0	1.0	1	0.08	blockFiles/set_10/main_safe/rightBlue\GB_RB_3.xlsx
111	main_safe	True	0.0	706	0	4.0	4.0	0.0	1	left	1.0	1.0	1.0	0	-0.08	blockFiles/set_10/main_safe/rightBlue\GB_RB_3.xlsx
112	main_safe	True	0.0	706	0	4.0	4.0	1.0	1	right	2.0	1.0	1.0	1	0.08	blockFiles/set_10/main_safe/rightBlue\GB_RB_3.xlsx
113	main_safe	True	0.0	706	0	4.0	4.0	1.0	1	right	2.0	1.0	1.0	1	0.08	blockFiles/set_10/main_safe/rightBlue\GB_RB_3.xlsx
114	main_safe	True	0.0	706	0	4.0	4.0	0.0	1	left	1.0	1.0	1.0	0	-0.08	blockFiles/set_10/main_safe/rightBlue\GB_RB_3.xlsx
115	main_safe	True	0.0	706	0	4.0	4.0	1.0	1	right	2.0	1.0	1.0	1	0.08	blockFiles/set_10/main_safe/rightBlue\GB_RB_3.xlsx
116	main_safe	True	0.0	706	0	4.0	4.0	1.0	1	right	2.0	1.0	1.0	1	0.08	blockFiles/set_10/main_safe/rightBlue\GB_RB_3.xlsx
117	main_safe	True	0.0	706	0	4.0	4.0	0.0	1	left	1.0	1.0	1.0	0	-0.08	blockFiles/set_10/main_safe/rightBlue\GB_RB_3.xlsx
118	main_safe	True	0.0	706	0	4.0	4.0	0.0	1	left	1.0	1.0	1.0	0	-0.08	blockFiles/set_10/main_safe/rightBlue\GB_RB_3.xlsx
119	main_safe	True	0.0	706	0	4.0	4.0	1.0	1	right	2.0	1.0	1.0	1	0.08	blockFiles/set_10/main_safe/rightBlue\GB_RB_3.xlsx
120	main_safe	True	0.0	706	0	4.0	4.0	0.0	1	left	1.0	1.0	1.0	0	-0.08	blockFiles/set_10/main_safe/rightBlue\GB_RB_3.xlsx
121	main_safe	True	0.0	706	0	4.0	4.0	1.0	1	right	2.0	0.0	1.0	1	0.08	blockFiles/set_10/main_safe/rightBlue\GB_RB_3.xlsx
122	main_safe	True	0.0	706	0	4.0	4.0	0.0	1	left	1.0	1.0	1.0	0	-0.08	blockFiles/set_10/main_safe/rightBlue\GB_RB_3.xlsx
123	main_safe	True	0.0	706	0	4.0	4.0	0.0	1	left	1.0	1.0	1.0	0	-0.08	blockFiles/set_10/main_safe/rightBlue\GB_RB_3.xlsx
124	main_safe	True	0.0	706	0	4.0	4.0	1.0	1	right	2.0	0.0	1.0	1	0.08	blockFiles/set_10/main_safe/rightBlue\GB_RB_3.xlsx
125	main_safe	True	0.0	706	0	4.0	4.0	1.0	1	right	2.0	0.0	1.0	1	0.08	blockFiles/set_10/main_safe/rightBlue\GB_RB_3.xlsx
126	main_safe	True	0.0	706	0	4.0	4.0	1.0	1	right	2.0	1.0	1.0	1	0.08	blockFiles/set_10/main_safe/rightBlue\GB_RB_3.xlsx
127	main_safe	True	0.0	706	0	4.0	4.0	0.0	1	left	1.0	0.0	1.0	0	-0.08	blockFiles/set_10/main_safe/rightBlue\GB_RB_3.xlsx
128	main_safe	True	0.0	706	0	4.0	4.0	1.0	1	right	2.0	1.0	1.0	1	0.08	blockFiles/set_10/main_safe/rightBlue\GB_RB_3.xlsx
129	main_safe	True	0.0	706	0	5.0	5.0	0.0	1	left	2.0	1.0	1.0	0	-0.08	blockFiles/set_10/main_safe/leftBlue\GB_LB_1.xlsx
130	main_safe	True	0.0	706	0	5.0	5.0	1.0	1	right	1.0	1.0	1.0	1	0.08	blockFiles/set_10/main_safe/leftBlue\GB_LB_1.xlsx
131	main_safe	True	0.0	706	0	5.0	5.0	1.0	1	right	1.0	1.0	1.0	1	0.08	blockFiles/set_10/main_safe/leftBlue\GB_LB_1.xlsx
132	main_safe	True	0.0	706	0	5.0	5.0	1.0	1	right	1.0	1.0	1.0	1	0.08	blockFiles/set_10/main_safe/leftBlue\GB_LB_1.xlsx
133	main_safe	True	0.0	706	0	5.0	5.0	1.0	1	right	1.0	1.0	1.0	1	0.08	blockFiles/set_10/main_safe/leftBlue\GB_LB_1.xlsx
134	main_safe	True	0.0	706	0	5.0	5.0	0.0	1	left	2.0	0.0	1.0	0	-0.08	blockFiles/set_10/main_safe/leftBlue\GB_LB_1.xlsx
135	main_safe	True	0.0	706	0	5.0	5.0	1.0	1	right	1.0	1.0	1.0	1	0.08	blockFiles/set_10/main_safe/leftBlue\GB_LB_1.xlsx
136	main_safe	True	0.0	706	0	5.0	5.0	1.0	1	right	1.0	0.0	1.0	1	0.08	blockFiles/set_10/main_safe/leftBlue\GB_LB_1.xlsx
137	main_safe	True	0.0	706	0	5.0	5.0	0.0	1	left	2.0	0.0	1.0	0	-0.08	blockFiles/set_10/main_safe/leftBlue\GB_LB_1.xlsx
138	main_safe	True	0.0	706	0	5.0	5.0	1.0	1	right	1.0	1.0	1.0	1	0.08	blockFiles/set_10/main_safe/leftBlue\GB_LB_1.xlsx
139	main_safe	True	0.0	706	0	5.0	5.0	0.0	1	left	2.0	1.0	1.0	0	-0.08	blockFiles/set_10/main_safe/leftBlue\GB_LB_1.xlsx
140	main_safe	True	0.0	706	0	5.0	5.0	0.0	1	left	2.0	1.0	1.0	0	-0.08	blockFiles/set_10/main_safe/leftBlue\GB_LB_1.xlsx
141	main_safe	True	0.0	706	0	5.0	5.0	1.0	1	right	1.0	1.0	1.0	1	0.08	blockFiles/set_10/main_safe/leftBlue\GB_LB_1.xlsx
142	main_safe	True	0.0	706	0	5.0	5.0	1.0	1	right	1.0	1.0	1.0	1	0.08	blockFiles/set_10/main_safe/leftBlue\GB_LB_1.xlsx
143	main_safe	True	0.0	706	0	5.0	5.0	0.0	1	left	2.0	1.0	1.0	0	-0.08	blockFiles/set_10/main_safe/leftBlue\GB_LB_1.xlsx
144	main_safe	True	0.0	706	0	5.0	5.0	1.0	1	right	1.0	0.0	1.0	1	0.08	blockFiles/set_10/main_safe/leftBlue\GB_LB_1.xlsx
145	main_safe	True	0.0	706	0	5.0	5.0	0.0	1	left	2.0	1.0	1.0	0	-0.08	blockFiles/set_10/main_safe/leftBlue\GB_LB_1.xlsx
146	main_safe	True	0.0	706	0	5.0	5.0	0.0	1	left	2.0	1.0	1.0	0	-0.08	blockFiles/set_10/main_safe/leftBlue\GB_LB_1.xlsx
147	main_safe	True	0.0	706	0	5.0	5.0	1.0	1	right	1.0	1.0	1.0	1	0.08	blockFiles/set_10/main_safe/leftBlue\GB_LB_1.xlsx
148	main_safe	True	0.0	706	0	5.0	5.0	1.0	1	right	1.0	0.0	1.0	1	0.08	blockFiles/set_10/main_safe/leftBlue\GB_LB_1.xlsx
149	main_safe	True	0.0	706	0	5.0	5.0	1.0	1	right	1.0	1.0	1.0	1	0.08	blockFiles/set_10/main_safe/leftBlue\GB_LB_1.xlsx
150	main_safe	True	0.0	706	0	5.0	5.0	0.0	1	left	2.0	1.0	1.0	0	-0.08	blockFiles/set_10/main_safe/leftBlue\GB_LB_1.xlsx
151	main_safe	True	0.0	706	0	5.0	5.0	0.0	1	left	2.0	1.0	1.0	0	-0.08	blockFiles/set_10/main_safe/leftBlue\GB_LB_1.xlsx
152	main_safe	True	0.0	706	0	5.0	5.0	1.0	1	right	1.0	1.0	1.0	1	0.08	blockFiles/set_10/main_safe/leftBlue\GB_LB_1.xlsx
153	main_safe	True	0.0	706	0	5.0	5.0	0.0	1	left	2.0	0.0	1.0	0	-0.08	blockFiles/set_10/main_safe/leftBlue\GB_LB_1.xlsx
154	patches	True	n/a	706	0	n/a	n/a	n/a	0	None	n/a	n/a	n/a	1	0.00659311810508	blockFiles/set_10/main_PD/GB_runPatches1.xlsx
155	patches	True	n/a	706	0	n/a	n/a	1.0	0	right	n/a	n/a	n/a	0	-0.0357638261281	blockFiles/set_10/main_PD/GB_runPatches1.xlsx
156	patches	True	n/a	706	0	n/a	n/a	1.0	1	right	n/a	n/a	n/a	1	0.06539230037480001	blockFiles/set_10/main_PD/GB_runPatches1.xlsx
157	patches	True	n/a	706	0	n/a	n/a	0.0	1	left	n/a	n/a	n/a	0	-0.0424733773805	blockFiles/set_10/main_PD/GB_runPatches1.xlsx
158	patches	True	n/a	706	0	n/a	n/a	0.0	1	left	n/a	n/a	n/a	0	-0.0016085513867399998	blockFiles/set_10/main_PD/GB_runPatches1.xlsx
159	patches	True	n/a	706	0	n/a	n/a	1.0	1	right	n/a	n/a	n/a	1	0.0781106814742	blockFiles/set_10/main_PD/GB_runPatches1.xlsx
160	patches	True	n/a	706	0	n/a	n/a	1.0	1	right	n/a	n/a	n/a	1	0.045862069018199995	blockFiles/set_10/main_PD/GB_runPatches1.xlsx
161	patches	True	n/a	706	0	n/a	n/a	1.0	0	right	n/a	n/a	n/a	0	-0.013178131822500001	blockFiles/set_10/main_PD/GB_runPatches1.xlsx
162	patches	True	n/a	706	0	n/a	n/a	0.0	1	left	n/a	n/a	n/a	0	-0.0722566164657	blockFiles/set_10/main_PD/GB_runPatches1.xlsx
163	patches	True	n/a	706	0	n/a	n/a	1.0	1	right	n/a	n/a	n/a	1	0.035634712353300006	blockFiles/set_10/main_PD/GB_runPatches1.xlsx
164	patches	True	n/a	706	0	n/a	n/a	1.0	1	right	n/a	n/a	n/a	1	0.0715741936862	blockFiles/set_10/main_PD/GB_runPatches1.xlsx
165	patches	True	n/a	706	0	n/a	n/a	0.0	1	left	n/a	n/a	n/a	0	-0.0137294874899	blockFiles/set_10/main_PD/GB_runPatches1.xlsx
166	patches	True	n/a	706	0	n/a	n/a	0.0	0	left	n/a	n/a	n/a	1	0.015529244896	blockFiles/set_10/main_PD/GB_runPatches1.xlsx
167	patches	True	n/a	706	0	n/a	n/a	0.0	1	left	n/a	n/a	n/a	0	-0.0638482278399	blockFiles/set_10/main_PD/GB_runPatches1.xlsx
168	patches	True	n/a	706	0	n/a	n/a	0.0	1	left	n/a	n/a	n/a	0	-0.0575293563865	blockFiles/set_10/main_PD/GB_runPatches1.xlsx
169	patches	True	n/a	706	0	n/a	n/a	1.0	1	right	n/a	n/a	n/a	1	0.0459339623339	blockFiles/set_10/main_PD/GB_runPatches1.xlsx
170	patches	True	n/a	706	0	n/a	n/a	1.0	1	right	n/a	n/a	n/a	1	0.0686026172712	blockFiles/set_10/main_PD/GB_runPatches1.xlsx
171	patches	True	n/a	706	0	n/a	n/a	1.0	1	right	n/a	n/a	n/a	1	0.0138512158766	blockFiles/set_10/main_PD/GB_runPatches1.xlsx
172	patches	True	n/a	706	0	n/a	n/a	1.0	1	right	n/a	n/a	n/a	1	0.029085279218900004	blockFiles/set_10/main_PD/GB_runPatches1.xlsx
173	patches	True	n/a	706	0	n/a	n/a	1.0	0	right	n/a	n/a	n/a	0	-0.0226091460697	blockFiles/set_10/main_PD/GB_runPatches1.xlsx
174	patches	True	n/a	706	0	n/a	n/a	1.0	1	right	n/a	n/a	n/a	1	0.0691747170873	blockFiles/set_10/main_PD/GB_runPatches1.xlsx
175	patches	True	n/a	706	0	n/a	n/a	1.0	1	right	n/a	n/a	n/a	1	0.07958112021910001	blockFiles/set_10/main_PD/GB_runPatches1.xlsx
176	patches	True	n/a	706	0	n/a	n/a	n/a	0	None	n/a	n/a	n/a	0	-0.00826859759167	blockFiles/set_10/main_PD/GB_runPatches1.xlsx
177	patches	True	n/a	706	0	n/a	n/a	0.0	0	left	n/a	n/a	n/a	1	0.0711423357762	blockFiles/set_10/main_PD/GB_runPatches1.xlsx
178	patches	True	n/a	706	0	n/a	n/a	0.0	1	left	n/a	n/a	n/a	0	-0.0324390964769	blockFiles/set_10/main_PD/GB_runPatches1.xlsx
179	patches	True	n/a	706	0	n/a	n/a	0.0	1	left	n/a	n/a	n/a	0	-0.050827114749699996	blockFiles/set_10/main_PD/GB_runPatches1.xlsx
180	patches	True	n/a	706	0	n/a	n/a	0.0	1	left	n/a	n/a	n/a	0	-0.017702421210700002	blockFiles/set_10/main_PD/GB_runPatches1.xlsx
181	patches	True	n/a	706	0	n/a	n/a	1.0	1	right	n/a	n/a	n/a	1	0.051930939611	blockFiles/set_10/main_PD/GB_runPatches1.xlsx
182	patches	True	n/a	706	0	n/a	n/a	0.0	1	left	n/a	n/a	n/a	0	-0.022580733802200003	blockFiles/set_10/main_PD/GB_runPatches1.xlsx
183	patches	True	n/a	706	0	n/a	n/a	0.0	1	left	n/a	n/a	n/a	0	-0.029510609377200004	blockFiles/set_10/main_PD/GB_runPatches1.xlsx
184	patches	True	n/a	706	0	n/a	n/a	0.0	0	left	n/a	n/a	n/a	1	0.0199456188455	blockFiles/set_10/main_PD/GB_runPatches1.xlsx
185	patches	True	n/a	706	0	n/a	n/a	1.0	1	right	n/a	n/a	n/a	1	0.0240123720467	blockFiles/set_10/main_PD/GB_runPatches1.xlsx
186	patches	True	n/a	706	0	n/a	n/a	1.0	1	right	n/a	n/a	n/a	1	0.0287136169337	blockFiles/set_10/main_PD/GB_runPatches1.xlsx
187	patches	True	n/a	706	0	n/a	n/a	1.0	1	right	n/a	n/a	n/a	1	0.046397540215400004	blockFiles/set_10/main_PD/GB_runPatches1.xlsx
188	patches	True	n/a	706	0	n/a	n/a	1.0	1	right	n/a	n/a	n/a	1	0.028178708571900003	blockFiles/set_10/main_PD/GB_runPatches1.xlsx
189	patches	True	n/a	706	0	n/a	n/a	0.0	1	left	n/a	n/a	n/a	0	-0.07954216199	blockFiles/set_10/main_PD/GB_runPatches1.xlsx
190	patches	True	n/a	706	0	n/a	n/a	1.0	0	right	n/a	n/a	n/a	0	-0.00232363594696	blockFiles/set_10/main_PD/GB_runPatches1.xlsx
191	patches	True	n/a	706	0	n/a	n/a	0.0	1	left	n/a	n/a	n/a	0	-0.0676932701468	blockFiles/set_10/main_PD/GB_runPatches1.xlsx
192	patches	True	n/a	706	0	n/a	n/a	1.0	1	right	n/a	n/a	n/a	1	0.035937826708	blockFiles/set_10/main_PD/GB_runPatches1.xlsx
193	patches	True	n/a	706	0	n/a	n/a	0.0	1	left	n/a	n/a	n/a	0	-0.025868063774	blockFiles/set_10/main_PD/GB_runPatches1.xlsx
194	patches	True	n/a	706	0	n/a	n/a	0.0	1	left	n/a	n/a	n/a	0	-0.04015596224	blockFiles/set_10/main_PD/GB_runPatches1.xlsx
195	patches	True	n/a	706	0	n/a	n/a	0.0	0	left	n/a	n/a	n/a	1	0.05132737599309999	blockFiles/set_10/main_PD/GB_runPatches1.xlsx
196	patches	True	n/a	706	0	n/a	n/a	0.0	1	left	n/a	n/a	n/a	0	-0.0708615714684	blockFiles/set_10/main_PD/GB_runPatches1.xlsx
197	patches	True	n/a	706	0	n/a	n/a	1.0	1	right	n/a	n/a	n/a	1	0.0484408530779	blockFiles/set_10/main_PD/GB_runPatches1.xlsx
198	patches	True	n/a	706	0	n/a	n/a	0.0	1	left	n/a	n/a	n/a	0	-0.0358810061961	blockFiles/set_10/main_PD/GB_runPatches1.xlsx
199	patches	True	n/a	706	0	n/a	n/a	0.0	1	left	n/a	n/a	n/a	0	-0.0344210218824	blockFiles/set_10/main_PD/GB_runPatches1.xlsx
200	patches	True	n/a	706	0	n/a	n/a	0.0	1	left	n/a	n/a	n/a	0	-0.0621358134225	blockFiles/set_10/main_PD/GB_runPatches1.xlsx
201	patches	True	n/a	706	0	n/a	n/a	0.0	0	left	n/a	n/a	n/a	1	0.00731317179278	blockFiles/set_10/main_PD/GB_runPatches1.xlsx
202	patches	True	n/a	706	0	n/a	n/a	1.0	1	right	n/a	n/a	n/a	1	0.0680222550593	blockFiles/set_10/main_PD/GB_runPatches1.xlsx
203	patches	True	n/a	706	0	n/a	n/a	n/a	0	None	n/a	n/a	n/a	0	-0.0234827970713	blockFiles/set_10/main_PD/GB_runPatches1.xlsx
204	patches	True	n/a	706	0	n/a	n/a	1.0	1	right	n/a	n/a	n/a	1	0.0461383622885	blockFiles/set_10/main_PD/GB_runPatches1.xlsx
205	patches	True	n/a	706	0	n/a	n/a	0.0	1	left	n/a	n/a	n/a	0	-0.0038417197391399996	blockFiles/set_10/main_PD/GB_runPatches1.xlsx
206	patches	True	n/a	706	0	n/a	n/a	0.0	0	left	n/a	n/a	n/a	1	0.0523216050863	blockFiles/set_10/main_PD/GB_runPatches1.xlsx
207	patches	True	n/a	706	0	n/a	n/a	0.0	1	left	n/a	n/a	n/a	0	-0.061878596954	blockFiles/set_10/main_PD/GB_runPatches1.xlsx
208	patches	True	n/a	706	0	n/a	n/a	1.0	1	right	n/a	n/a	n/a	1	0.06190575757999999	blockFiles/set_10/main_PD/GB_runPatches1.xlsx
209	patches	True	n/a	706	0	n/a	n/a	0.0	1	left	n/a	n/a	n/a	0	-0.0263549706899	blockFiles/set_10/main_PD/GB_runPatches1.xlsx
210	patches	True	n/a	706	0	n/a	n/a	0.0	1	left	n/a	n/a	n/a	0	-0.069283839073	blockFiles/set_10/main_PD/GB_runPatches1.xlsx
211	patches	True	n/a	706	0	n/a	n/a	0.0	1	left	n/a	n/a	n/a	0	-0.0325313273445	blockFiles/set_10/main_PD/GB_runPatches1.xlsx
212	patches	True	n/a	706	0	n/a	n/a	n/a	0	None	n/a	n/a	n/a	1	0.009939533360299999	blockFiles/set_10/main_PD/GB_runPatches1.xlsx
213	patches	True	n/a	706	0	n/a	n/a	0.0	1	left	n/a	n/a	n/a	0	-0.0784819750488	blockFiles/set_10/main_PD/GB_runPatches1.xlsx
214	patches	True	n/a	706	0	n/a	n/a	0.0	0	left	n/a	n/a	n/a	1	0.00816195815802	blockFiles/set_10/main_PD/GB_runPatches1.xlsx
215	patches	True	n/a	706	0	n/a	n/a	0.0	1	left	n/a	n/a	n/a	0	-0.0271297424659	blockFiles/set_10/main_PD/GB_runPatches1.xlsx
216	patches	True	n/a	706	0	n/a	n/a	1.0	1	right	n/a	n/a	n/a	1	0.051179919075199996	blockFiles/set_10/main_PD/GB_runPatches1.xlsx
217	patches	True	n/a	706	0	n/a	n/a	1.0	1	right	n/a	n/a	n/a	1	0.0539294312149	blockFiles/set_10/main_PD/GB_runPatches1.xlsx
218	patches	True	n/a	706	0	n/a	n/a	1.0	1	right	n/a	n/a	n/a	1	0.0100971772894	blockFiles/set_10/main_PD/GB_runPatches1.xlsx
219	patches	True	n/a	706	0	n/a	n/a	0.0	1	left	n/a	n/a	n/a	0	-0.0562742773816	blockFiles/set_10/main_PD/GB_runPatches1.xlsx
220	patches	True	n/a	706	0	n/a	n/a	0.0	0	left	n/a	n/a	n/a	1	0.019989664666400002	blockFiles/set_10/main_PD/GB_runPatches1.xlsx
221	patches	True	n/a	706	0	n/a	n/a	0.0	1	left	n/a	n/a	n/a	0	-0.0457798436098	blockFiles/set_10/main_PD/GB_runPatches1.xlsx
222	patches	True	n/a	706	0	n/a	n/a	1.0	1	right	n/a	n/a	n/a	1	0.0303085814044	blockFiles/set_10/main_PD/GB_runPatches1.xlsx
223	patches	True	n/a	706	0	n/a	n/a	0.0	1	left	n/a	n/a	n/a	0	-0.0445569044165	blockFiles/set_10/main_PD/GB_runPatches1.xlsx
224	patches	True	n/a	706	0	n/a	n/a	0.0	0	left	n/a	n/a	n/a	1	0.00668283954263	blockFiles/set_10/main_PD/GB_runPatches1.xlsx
225	patches	True	n/a	706	0	n/a	n/a	n/a	0	None	n/a	n/a	n/a	1	0.07478299053389999	blockFiles/set_10/main_PD/GB_runPatches1.xlsx
226	patches	True	n/a	706	0	n/a	n/a	0.0	1	left	n/a	n/a	n/a	0	-0.07117297902700001	blockFiles/set_10/main_PD/GB_runPatches1.xlsx
227	patches	True	n/a	706	0	n/a	n/a	0.0	1	left	n/a	n/a	n/a	0	-0.055575992651300005	blockFiles/set_10/main_PD/GB_runPatches1.xlsx
228	patches	True	n/a	706	0	n/a	n/a	1.0	1	right	n/a	n/a	n/a	1	0.0209440295212	blockFiles/set_10/main_PD/GB_runPatches1.xlsx
229	patches	True	n/a	706	0	n/a	n/a	1.0	1	right	n/a	n/a	n/a	1	0.034727009907400005	blockFiles/set_10/main_PD/GB_runPatches1.xlsx
230	patches	True	n/a	706	0	n/a	n/a	0.0	1	left	n/a	n/a	n/a	0	-0.052969925832000005	blockFiles/set_10/main_PD/GB_runPatches1.xlsx
231	patches	True	n/a	706	0	n/a	n/a	1.0	1	right	n/a	n/a	n/a	1	0.01764987031	blockFiles/set_10/main_PD/GB_runPatches1.xlsx
232	patches	True	n/a	706	0	n/a	n/a	1.0	0	right	n/a	n/a	n/a	0	-0.00172937406227	blockFiles/set_10/main_PD/GB_runPatches1.xlsx
233	patches	True	n/a	706	0	n/a	n/a	n/a	0	None	n/a	n/a	n/a	0	-0.054985487368	blockFiles/set_10/main_PD/GB_runPatches1.xlsx
234	patches	True	n/a	706	0	n/a	n/a	1.0	1	right	n/a	n/a	n/a	1	0.0348073679022	blockFiles/set_10/main_PD/GB_runPatches1.xlsx
235	patches	True	n/a	706	0	n/a	n/a	0.0	1	left	n/a	n/a	n/a	0	-0.0621846919879	blockFiles/set_10/main_PD/GB_runPatches1.xlsx
236	patches	True	n/a	706	0	n/a	n/a	0.0	1	left	n/a	n/a	n/a	0	-0.048104034028900004	blockFiles/set_10/main_PD/GB_runPatches1.xlsx
237	patches	True	n/a	706	0	n/a	n/a	0.0	0	left	n/a	n/a	n/a	1	0.017063734401	blockFiles/set_10/main_PD/GB_runPatches1.xlsx
238	patches	True	n/a	706	0	n/a	n/a	0.0	1	left	n/a	n/a	n/a	0	-0.075932542216	blockFiles/set_10/main_PD/GB_runPatches1.xlsx
239	patches	True	n/a	706	0	n/a	n/a	1.0	1	right	n/a	n/a	n/a	1	0.0159449245781	blockFiles/set_10/main_PD/GB_runPatches1.xlsx
240	patches	True	n/a	706	0	n/a	n/a	0.0	1	left	n/a	n/a	n/a	0	-0.07825752679260001	blockFiles/set_10/main_PD/GB_runPatches1.xlsx
241	patches	True	n/a	706	0	n/a	n/a	1.0	1	right	n/a	n/a	n/a	1	0.0458516348898	blockFiles/set_10/main_PD/GB_runPatches1.xlsx
242	patches	True	n/a	706	0	n/a	n/a	1.0	1	right	n/a	n/a	n/a	1	0.0294362646528	blockFiles/set_10/main_PD/GB_runPatches1.xlsx
243	patches	True	n/a	706	0	n/a	n/a	1.0	0	right	n/a	n/a	n/a	0	-0.0233628047444	blockFiles/set_10/main_PD/GB_runPatches1.xlsx
244	patches	True	n/a	706	0	n/a	n/a	1.0	1	right	n/a	n/a	n/a	1	0.0215220573172	blockFiles/set_10/main_PD/GB_runPatches1.xlsx
245	patches	True	n/a	706	0	n/a	n/a	1.0	0	right	n/a	n/a	n/a	0	-0.00760690474883	blockFiles/set_10/main_PD/GB_runPatches1.xlsx
246	patches	True	n/a	706	0	n/a	n/a	n/a	0	None	n/a	n/a	n/a	0	-0.0355583803356	blockFiles/set_10/main_PD/GB_runPatches1.xlsx
247	patches	True	n/a	706	0	n/a	n/a	1.0	1	right	n/a	n/a	n/a	1	0.0295620421693	blockFiles/set_10/main_PD/GB_runPatches1.xlsx
248	patches	True	n/a	706	0	n/a	n/a	0.0	1	left	n/a	n/a	n/a	0	-0.06528312137350001	blockFiles/set_10/main_PD/GB_runPatches1.xlsx
249	patches	True	n/a	706	0	n/a	n/a	1.0	1	right	n/a	n/a	n/a	1	0.0645318520814	blockFiles/set_10/main_PD/GB_runPatches1.xlsx
250	patches	True	n/a	706	0	n/a	n/a	1.0	1	right	n/a	n/a	n/a	1	0.0219603203796	blockFiles/set_10/main_PD/GB_runPatches1.xlsx
251	patches	True	n/a	706	0	n/a	n/a	1.0	1	right	n/a	n/a	n/a	1	0.0368701741844	blockFiles/set_10/main_PD/GB_runPatches1.xlsx
252	patches	True	n/a	706	0	n/a	n/a	1.0	0	right	n/a	n/a	n/a	0	-0.058241536617300006	blockFiles/set_10/main_PD/GB_runPatches1.xlsx
253	patches	True	n/a	706	0	n/a	n/a	1.0	0	right	n/a	n/a	n/a	0	-0.00262583464384	blockFiles/set_10/main_PD/GB_runPatches1.xlsx
254	main_unc	True	0.0	706	0	0.0	0.0	0.0	1	left	1.0	1.0	1.0	0	-0.049684948027099995	blockFiles/set_10/main_unc/rightBlue\GB_RB_3.xlsx
255	main_unc	True	0.0	706	0	0.0	0.0	1.0	0	right	2.0	0.0	0.0	0	-0.030303821470599998	blockFiles/set_10/main_unc/rightBlue\GB_RB_3.xlsx
256	main_unc	True	0.0	706	0	0.0	0.0	0.0	1	left	2.0	0.0	0.0	0	-0.0070658728480299995	blockFiles/set_10/main_unc/rightBlue\GB_RB_3.xlsx
257	main_unc	True	0.0	706	0	0.0	0.0	1.0	1	right	2.0	1.0	1.0	1	0.072972368449	blockFiles/set_10/main_unc/rightBlue\GB_RB_3.xlsx
258	main_unc	True	0.0	706	0	0.0	0.0	1.0	0	right	2.0	0.0	0.0	0	-0.007296429034319999	blockFiles/set_10/main_unc/rightBlue\GB_RB_3.xlsx
259	main_unc	True	0.0	706	0	0.0	0.0	1.0	1	right	2.0	1.0	1.0	1	0.07266628589480001	blockFiles/set_10/main_unc/rightBlue\GB_RB_3.xlsx
260	main_unc	True	0.0	706	0	0.0	0.0	1.0	0	right	2.0	0.0	0.0	0	-0.0274798497744	blockFiles/set_10/main_unc/rightBlue\GB_RB_3.xlsx
261	main_unc	True	0.0	706	0	0.0	0.0	1.0	1	right	2.0	1.0	1.0	1	0.0686352299713	blockFiles/set_10/main_unc/rightBlue\GB_RB_3.xlsx
262	main_unc	True	0.0	706	0	0.0	0.0	1.0	0	right	2.0	1.0	0.0	0	-0.038924899753199994	blockFiles/set_10/main_unc/rightBlue\GB_RB_3.xlsx
263	main_unc	True	0.0	706	0	0.0	0.0	0.0	1	left	2.0	1.0	0.0	0	-0.032139530908300004	blockFiles/set_10/main_unc/rightBlue\GB_RB_3.xlsx
264	main_unc	True	0.0	706	0	0.0	0.0	1.0	1	right	2.0	1.0	1.0	1	0.046175919286900007	blockFiles/set_10/main_unc/rightBlue\GB_RB_3.xlsx
265	main_unc	True	1.0	706	0	0.0	0.0	n/a	0	None	n/a	0.0	n/a	0	-0.007274567969140001	blockFiles/set_10/main_unc/rightBlue\GB_RB_3.xlsx
266	main_unc	True	0.0	706	0	0.0	0.0	0.0	1	left	1.0	1.0	1.0	0	-0.0754794775695	blockFiles/set_10/main_unc/rightBlue\GB_RB_3.xlsx
267	main_unc	True	0.0	706	0	0.0	0.0	1.0	1	right	2.0	1.0	1.0	1	0.0321003085934	blockFiles/set_10/main_unc/rightBlue\GB_RB_3.xlsx
268	main_unc	True	0.0	706	0	0.0	0.0	0.0	1	left	1.0	1.0	1.0	0	-0.043087719921	blockFiles/set_10/main_unc/rightBlue\GB_RB_3.xlsx
269	main_unc	True	0.0	706	0	0.0	0.0	1.0	1	right	2.0	1.0	1.0	1	0.0538517087884	blockFiles/set_10/main_unc/rightBlue\GB_RB_3.xlsx
270	main_unc	True	0.0	706	0	0.0	0.0	1.0	1	right	2.0	0.0	1.0	1	0.0205507238954	blockFiles/set_10/main_unc/rightBlue\GB_RB_3.xlsx
271	main_unc	True	0.0	706	0	0.0	0.0	0.0	1	left	1.0	1.0	1.0	0	-0.059789435919399996	blockFiles/set_10/main_unc/rightBlue\GB_RB_3.xlsx
272	main_unc	True	0.0	706	0	0.0	0.0	1.0	1	right	2.0	1.0	1.0	1	0.0528496931121	blockFiles/set_10/main_unc/rightBlue\GB_RB_3.xlsx
273	main_unc	True	0.0	706	0	0.0	0.0	1.0	1	right	2.0	0.0	1.0	1	0.012606218382700003	blockFiles/set_10/main_unc/rightBlue\GB_RB_3.xlsx
274	main_unc	True	0.0	706	0	0.0	0.0	1.0	1	right	2.0	1.0	1.0	1	0.0534360557422	blockFiles/set_10/main_unc/rightBlue\GB_RB_3.xlsx
275	main_unc	True	0.0	706	0	0.0	0.0	1.0	0	right	2.0	0.0	0.0	0	-0.0283556006104	blockFiles/set_10/main_unc/rightBlue\GB_RB_3.xlsx
276	main_unc	True	0.0	706	0	0.0	0.0	1.0	1	right	2.0	0.0	1.0	1	0.0607083684765	blockFiles/set_10/main_unc/rightBlue\GB_RB_3.xlsx
277	main_unc	True	0.0	706	0	0.0	0.0	1.0	1	right	2.0	1.0	1.0	1	0.0702086929232	blockFiles/set_10/main_unc/rightBlue\GB_RB_3.xlsx
278	main_unc	True	1.0	706	0	0.0	0.0	n/a	0	None	n/a	0.0	n/a	0	-0.0272586623207	blockFiles/set_10/main_unc/rightBlue\GB_RB_3.xlsx
279	main_unc	True	0.0	706	0	0.0	0.0	1.0	0	right	2.0	0.0	0.0	0	-0.007274567969140001	blockFiles/set_10/main_unc/rightBlue\GB_RB_3.xlsx
280	main_unc	True	0.0	706	0	0.0	0.0	0.0	1	left	2.0	0.0	0.0	0	-0.0272586623207	blockFiles/set_10/main_unc/rightBlue\GB_RB_3.xlsx
281	main_unc	True	0.0	706	0	1.0	1.0	1.0	1	right	2.0	1.0	1.0	1	0.0564717513509	blockFiles/set_10/main_unc/rightBlue\GB_RB_1.xlsx
282	main_unc	True	0.0	706	0	1.0	1.0	1.0	1	right	2.0	1.0	1.0	1	0.023106788750700002	blockFiles/set_10/main_unc/rightBlue\GB_RB_1.xlsx
283	main_unc	True	0.0	706	0	1.0	1.0	0.0	1	left	1.0	0.0	1.0	0	-0.06401224557310001	blockFiles/set_10/main_unc/rightBlue\GB_RB_1.xlsx
284	main_unc	True	0.0	706	0	1.0	1.0	1.0	1	right	2.0	1.0	1.0	1	0.0310215057991	blockFiles/set_10/main_unc/rightBlue\GB_RB_1.xlsx
285	main_unc	True	0.0	706	0	1.0	1.0	1.0	1	right	2.0	1.0	1.0	1	0.0469679218903	blockFiles/set_10/main_unc/rightBlue\GB_RB_1.xlsx
286	main_unc	True	0.0	706	0	1.0	1.0	0.0	1	left	1.0	1.0	1.0	0	-0.0652682028338	blockFiles/set_10/main_unc/rightBlue\GB_RB_1.xlsx
287	main_unc	True	0.0	706	0	1.0	1.0	1.0	0	right	1.0	1.0	1.0	0	-0.0208346195519	blockFiles/set_10/main_unc/rightBlue\GB_RB_1.xlsx
288	main_unc	True	0.0	706	0	1.0	1.0	0.0	1	left	1.0	1.0	1.0	0	-0.0477499076724	blockFiles/set_10/main_unc/rightBlue\GB_RB_1.xlsx
289	main_unc	True	0.0	706	0	1.0	1.0	0.0	1	left	1.0	1.0	1.0	0	-0.0122123619914	blockFiles/set_10/main_unc/rightBlue\GB_RB_1.xlsx
290	main_unc	True	1.0	706	0	1.0	1.0	n/a	0	None	n/a	0.0	n/a	1	0.070086531695	blockFiles/set_10/main_unc/rightBlue\GB_RB_1.xlsx
291	main_unc	True	0.0	706	0	1.0	1.0	1.0	1	right	2.0	1.0	1.0	1	0.036363877523699996	blockFiles/set_10/main_unc/rightBlue\GB_RB_1.xlsx
292	main_unc	True	0.0	706	0	1.0	1.0	1.0	1	right	2.0	1.0	1.0	1	0.044528811443600005	blockFiles/set_10/main_unc/rightBlue\GB_RB_1.xlsx
293	main_unc	True	0.0	706	0	1.0	1.0	0.0	1	left	1.0	1.0	1.0	0	-0.061601628642499996	blockFiles/set_10/main_unc/rightBlue\GB_RB_1.xlsx
294	main_unc	True	0.0	706	0	1.0	1.0	0.0	1	left	1.0	1.0	1.0	0	-0.0178261040896	blockFiles/set_10/main_unc/rightBlue\GB_RB_1.xlsx
295	main_unc	True	0.0	706	0	1.0	1.0	0.0	0	left	1.0	0.0	0.0	1	0.00989018091932	blockFiles/set_10/main_unc/rightBlue\GB_RB_1.xlsx
296	main_unc	True	0.0	706	0	1.0	1.0	0.0	1	left	1.0	1.0	1.0	0	-0.0492182688788	blockFiles/set_10/main_unc/rightBlue\GB_RB_1.xlsx
297	main_unc	True	0.0	706	0	1.0	1.0	1.0	1	right	2.0	1.0	1.0	1	0.054618701748500004	blockFiles/set_10/main_unc/rightBlue\GB_RB_1.xlsx
298	main_unc	True	0.0	706	0	1.0	1.0	0.0	1	left	1.0	1.0	1.0	0	-0.0524543745443	blockFiles/set_10/main_unc/rightBlue\GB_RB_1.xlsx
299	main_unc	True	0.0	706	0	1.0	1.0	0.0	0	left	2.0	0.0	1.0	1	0.013649897743	blockFiles/set_10/main_unc/rightBlue\GB_RB_1.xlsx
300	main_unc	True	0.0	706	0	1.0	1.0	1.0	1	right	2.0	1.0	1.0	1	0.0700913124532	blockFiles/set_10/main_unc/rightBlue\GB_RB_1.xlsx
301	main_unc	True	0.0	706	0	1.0	1.0	0.0	1	left	1.0	1.0	1.0	0	-0.055812832899400006	blockFiles/set_10/main_unc/rightBlue\GB_RB_1.xlsx
302	main_unc	True	0.0	706	0	1.0	1.0	0.0	1	left	1.0	0.0	1.0	0	-0.0070477948337799995	blockFiles/set_10/main_unc/rightBlue\GB_RB_1.xlsx
303	main_unc	True	0.0	706	0	1.0	1.0	1.0	1	right	2.0	1.0	1.0	1	0.0694030562229	blockFiles/set_10/main_unc/rightBlue\GB_RB_1.xlsx
304	main_unc	True	0.0	706	0	1.0	1.0	0.0	1	left	1.0	0.0	1.0	0	-0.0745972134732	blockFiles/set_10/main_unc/rightBlue\GB_RB_1.xlsx
305	main_unc	True	0.0	706	0	1.0	1.0	0.0	1	left	1.0	0.0	1.0	0	-0.00930541295558	blockFiles/set_10/main_unc/rightBlue\GB_RB_1.xlsx
306	main_unc	True	0.0	706	0	1.0	1.0	1.0	1	right	2.0	1.0	1.0	1	0.070086531695	blockFiles/set_10/main_unc/rightBlue\GB_RB_1.xlsx
307	main_unc	True	0.0	706	0	2.0	2.0	0.0	1	left	2.0	1.0	1.0	0	-0.0656328718178	blockFiles/set_10/main_unc/leftBlue\GB_LB_3.xlsx
308	main_unc	True	0.0	706	0	2.0	2.0	1.0	1	right	1.0	1.0	1.0	1	0.028283395487799998	blockFiles/set_10/main_unc/leftBlue\GB_LB_3.xlsx
309	main_unc	True	0.0	706	0	2.0	2.0	0.0	1	left	2.0	1.0	1.0	0	-0.0527869938686	blockFiles/set_10/main_unc/leftBlue\GB_LB_3.xlsx
310	main_unc	True	0.0	706	0	2.0	2.0	0.0	1	left	2.0	1.0	1.0	0	-0.047700734734500004	blockFiles/set_10/main_unc/leftBlue\GB_LB_3.xlsx
311	main_unc	True	0.0	706	0	2.0	2.0	1.0	1	right	1.0	1.0	1.0	1	0.06967886887489999	blockFiles/set_10/main_unc/leftBlue\GB_LB_3.xlsx
312	main_unc	True	0.0	706	0	2.0	2.0	0.0	1	left	2.0	1.0	1.0	0	-0.0208916910179	blockFiles/set_10/main_unc/leftBlue\GB_LB_3.xlsx
313	main_unc	True	0.0	706	0	2.0	2.0	0.0	1	left	2.0	0.0	1.0	0	-0.06295924594630001	blockFiles/set_10/main_unc/leftBlue\GB_LB_3.xlsx
314	main_unc	True	0.0	706	0	2.0	2.0	0.0	1	left	2.0	0.0	1.0	0	-0.024413331616700003	blockFiles/set_10/main_unc/leftBlue\GB_LB_3.xlsx
315	main_unc	True	0.0	706	0	2.0	2.0	0.0	1	left	2.0	1.0	1.0	0	-0.038624325860300006	blockFiles/set_10/main_unc/leftBlue\GB_LB_3.xlsx
316	main_unc	True	0.0	706	0	2.0	2.0	1.0	1	right	1.0	1.0	1.0	1	0.0505209294893	blockFiles/set_10/main_unc/leftBlue\GB_LB_3.xlsx
317	main_unc	True	0.0	706	0	2.0	2.0	0.0	1	left	2.0	0.0	1.0	0	-0.0643058900908	blockFiles/set_10/main_unc/leftBlue\GB_LB_3.xlsx
318	main_unc	True	0.0	706	0	2.0	2.0	1.0	1	right	1.0	1.0	1.0	1	0.0201866865717	blockFiles/set_10/main_unc/leftBlue\GB_LB_3.xlsx
319	main_unc	True	0.0	706	0	2.0	2.0	0.0	1	left	1.0	0.0	0.0	0	-0.0161803112365	blockFiles/set_10/main_unc/leftBlue\GB_LB_3.xlsx
320	main_unc	True	0.0	706	0	2.0	2.0	1.0	1	right	1.0	1.0	1.0	1	0.0729645568319	blockFiles/set_10/main_unc/leftBlue\GB_LB_3.xlsx
321	main_unc	True	0.0	706	0	2.0	2.0	0.0	1	left	2.0	1.0	1.0	0	-0.0437823276781	blockFiles/set_10/main_unc/leftBlue\GB_LB_3.xlsx
322	main_unc	True	0.0	706	0	2.0	2.0	1.0	1	right	1.0	1.0	1.0	1	0.0121721949801	blockFiles/set_10/main_unc/leftBlue\GB_LB_3.xlsx
323	main_unc	True	1.0	706	0	2.0	2.0	n/a	0	None	n/a	0.0	n/a	1	0.022181205693599996	blockFiles/set_10/main_unc/leftBlue\GB_LB_3.xlsx
324	main_unc	True	0.0	706	0	2.0	2.0	1.0	1	right	1.0	1.0	1.0	1	0.0609437516704	blockFiles/set_10/main_unc/leftBlue\GB_LB_3.xlsx
325	main_unc	True	0.0	706	0	2.0	2.0	1.0	1	right	1.0	0.0	1.0	1	0.000835979823023	blockFiles/set_10/main_unc/leftBlue\GB_LB_3.xlsx
326	main_unc	True	0.0	706	0	2.0	2.0	1.0	1	right	1.0	1.0	1.0	1	0.0255867770687	blockFiles/set_10/main_unc/leftBlue\GB_LB_3.xlsx
327	main_unc	True	0.0	706	0	2.0	2.0	1.0	1	right	1.0	1.0	1.0	1	0.0693129184097	blockFiles/set_10/main_unc/leftBlue\GB_LB_3.xlsx
328	main_unc	True	0.0	706	0	2.0	2.0	0.0	1	left	2.0	0.0	1.0	0	-0.052150204852200004	blockFiles/set_10/main_unc/leftBlue\GB_LB_3.xlsx
329	main_unc	True	0.0	706	0	2.0	2.0	0.0	1	left	2.0	1.0	1.0	0	-0.05468196012080001	blockFiles/set_10/main_unc/leftBlue\GB_LB_3.xlsx
330	main_unc	True	0.0	706	0	2.0	2.0	1.0	1	right	1.0	1.0	1.0	1	0.042830797005400004	blockFiles/set_10/main_unc/leftBlue\GB_LB_3.xlsx
331	main_unc	True	0.0	706	0	2.0	2.0	1.0	1	right	1.0	1.0	1.0	1	0.0661296862923	blockFiles/set_10/main_unc/leftBlue\GB_LB_3.xlsx
332	main_unc	True	0.0	706	0	2.0	2.0	1.0	1	right	1.0	0.0	1.0	1	0.022181205693599996	blockFiles/set_10/main_unc/leftBlue\GB_LB_3.xlsx
333	main_unc	True	0.0	706	0	3.0	3.0	1.0	1	right	1.0	1.0	1.0	1	0.023932812549200003	blockFiles/set_10/main_unc/leftBlue\GB_LB_1.xlsx
334	main_unc	True	0.0	706	0	3.0	3.0	1.0	1	right	1.0	1.0	1.0	1	0.054117902033	blockFiles/set_10/main_unc/leftBlue\GB_LB_1.xlsx
335	main_unc	True	0.0	706	0	3.0	3.0	0.0	1	left	2.0	1.0	1.0	0	-0.0526750307158	blockFiles/set_10/main_unc/leftBlue\GB_LB_1.xlsx
336	main_unc	True	0.0	706	0	3.0	3.0	1.0	1	right	1.0	1.0	1.0	1	0.0285712200776	blockFiles/set_10/main_unc/leftBlue\GB_LB_1.xlsx
337	main_unc	True	0.0	706	0	3.0	3.0	0.0	1	left	2.0	1.0	1.0	0	-0.070904474631	blockFiles/set_10/main_unc/leftBlue\GB_LB_1.xlsx
338	main_unc	True	0.0	706	0	3.0	3.0	1.0	1	right	1.0	1.0	1.0	1	0.019457892384400002	blockFiles/set_10/main_unc/leftBlue\GB_LB_1.xlsx
339	main_unc	True	0.0	706	0	3.0	3.0	1.0	1	right	1.0	1.0	1.0	1	0.0729992164299	blockFiles/set_10/main_unc/leftBlue\GB_LB_1.xlsx
340	main_unc	True	0.0	706	0	3.0	3.0	0.0	1	left	2.0	1.0	1.0	0	-0.0231314759515	blockFiles/set_10/main_unc/leftBlue\GB_LB_1.xlsx
341	main_unc	True	0.0	706	0	3.0	3.0	1.0	1	right	1.0	1.0	1.0	1	0.00269779723138	blockFiles/set_10/main_unc/leftBlue\GB_LB_1.xlsx
342	main_unc	True	0.0	706	0	3.0	3.0	0.0	1	left	2.0	0.0	1.0	0	-0.0361026557721	blockFiles/set_10/main_unc/leftBlue\GB_LB_1.xlsx
343	main_unc	True	0.0	706	0	3.0	3.0	1.0	1	right	1.0	1.0	1.0	1	0.040529961623300005	blockFiles/set_10/main_unc/leftBlue\GB_LB_1.xlsx
344	main_unc	True	0.0	706	0	3.0	3.0	0.0	1	left	2.0	0.0	1.0	0	-0.05600724343209999	blockFiles/set_10/main_unc/leftBlue\GB_LB_1.xlsx
345	main_unc	True	0.0	706	0	3.0	3.0	0.0	0	left	2.0	0.0	0.0	1	0.010555563531799999	blockFiles/set_10/main_unc/leftBlue\GB_LB_1.xlsx
346	main_unc	True	0.0	706	0	3.0	3.0	0.0	1	left	2.0	1.0	1.0	0	-0.0332425496355	blockFiles/set_10/main_unc/leftBlue\GB_LB_1.xlsx
347	main_unc	True	0.0	706	0	3.0	3.0	1.0	1	right	1.0	1.0	1.0	1	0.0692318151705	blockFiles/set_10/main_unc/leftBlue\GB_LB_1.xlsx
348	main_unc	True	0.0	706	0	3.0	3.0	1.0	1	right	1.0	1.0	1.0	1	0.028500835225	blockFiles/set_10/main_unc/leftBlue\GB_LB_1.xlsx
349	main_unc	True	0.0	706	0	3.0	3.0	1.0	0	right	2.0	1.0	1.0	0	-0.00774955514818	blockFiles/set_10/main_unc/leftBlue\GB_LB_1.xlsx
350	main_unc	True	0.0	706	0	3.0	3.0	1.0	1	right	2.0	0.0	0.0	1	0.0654970964603	blockFiles/set_10/main_unc/leftBlue\GB_LB_1.xlsx
351	main_unc	True	0.0	706	0	3.0	3.0	0.0	1	left	2.0	1.0	1.0	0	-0.042727444358199994	blockFiles/set_10/main_unc/leftBlue\GB_LB_1.xlsx
352	main_unc	True	1.0	706	0	3.0	3.0	n/a	0	None	n/a	0.0	n/a	0	-0.00890925783664	blockFiles/set_10/main_unc/leftBlue\GB_LB_1.xlsx
353	main_unc	True	0.0	706	0	3.0	3.0	1.0	1	right	1.0	1.0	1.0	1	0.051287778317900004	blockFiles/set_10/main_unc/leftBlue\GB_LB_1.xlsx
354	main_unc	True	0.0	706	0	3.0	3.0	1.0	1	right	1.0	1.0	1.0	1	0.05655607881019999	blockFiles/set_10/main_unc/leftBlue\GB_LB_1.xlsx
355	main_unc	True	0.0	706	0	3.0	3.0	0.0	1	left	2.0	1.0	1.0	0	-0.05865085456519999	blockFiles/set_10/main_unc/leftBlue\GB_LB_1.xlsx
356	main_unc	True	0.0	706	0	3.0	3.0	0.0	1	left	2.0	1.0	1.0	0	-0.00730474747717	blockFiles/set_10/main_unc/leftBlue\GB_LB_1.xlsx
357	main_unc	True	0.0	706	0	3.0	3.0	0.0	1	left	2.0	1.0	1.0	0	-0.0726193057187	blockFiles/set_10/main_unc/leftBlue\GB_LB_1.xlsx
358	main_unc	True	0.0	706	0	3.0	3.0	1.0	0	right	2.0	0.0	1.0	0	-0.00890925783664	blockFiles/set_10/main_unc/leftBlue\GB_LB_1.xlsx
359	main_unc	True	0.0	706	0	4.0	4.0	1.0	1	right	1.0	0.0	0.0	1	0.07188260907310001	blockFiles/set_10/main_unc/rightBlue\GB_RB_5.xlsx
360	main_unc	True	0.0	706	0	4.0	4.0	1.0	1	right	2.0	1.0	1.0	1	0.0606250782311	blockFiles/set_10/main_unc/rightBlue\GB_RB_5.xlsx
361	main_unc	True	0.0	706	0	4.0	4.0	0.0	1	left	1.0	1.0	1.0	0	-0.021451740693299998	blockFiles/set_10/main_unc/rightBlue\GB_RB_5.xlsx
362	main_unc	True	0.0	706	0	4.0	4.0	1.0	1	right	2.0	1.0	1.0	1	0.0613596764021	blockFiles/set_10/main_unc/rightBlue\GB_RB_5.xlsx
363	main_unc	True	0.0	706	0	4.0	4.0	0.0	1	left	2.0	0.0	0.0	0	-0.00539836028591	blockFiles/set_10/main_unc/rightBlue\GB_RB_5.xlsx
364	main_unc	True	0.0	706	0	4.0	4.0	1.0	1	right	2.0	1.0	1.0	1	0.030117485839900003	blockFiles/set_10/main_unc/rightBlue\GB_RB_5.xlsx
365	main_unc	True	0.0	706	0	4.0	4.0	0.0	1	left	1.0	1.0	1.0	0	-0.0437624122761	blockFiles/set_10/main_unc/rightBlue\GB_RB_5.xlsx
366	main_unc	True	0.0	706	0	4.0	4.0	1.0	1	right	2.0	1.0	1.0	1	0.06306643331419999	blockFiles/set_10/main_unc/rightBlue\GB_RB_5.xlsx
367	main_unc	True	0.0	706	0	4.0	4.0	0.0	1	left	1.0	0.0	1.0	0	-0.0651264541969	blockFiles/set_10/main_unc/rightBlue\GB_RB_5.xlsx
368	main_unc	True	0.0	706	0	4.0	4.0	0.0	1	left	1.0	1.0	1.0	0	-0.04764789627859999	blockFiles/set_10/main_unc/rightBlue\GB_RB_5.xlsx
369	main_unc	True	0.0	706	0	4.0	4.0	1.0	1	right	2.0	1.0	1.0	1	0.017441068347499998	blockFiles/set_10/main_unc/rightBlue\GB_RB_5.xlsx
370	main_unc	True	0.0	706	0	4.0	4.0	0.0	1	left	1.0	1.0	1.0	0	-0.037418109383400004	blockFiles/set_10/main_unc/rightBlue\GB_RB_5.xlsx
371	main_unc	True	0.0	706	0	4.0	4.0	0.0	1	left	1.0	1.0	1.0	0	-0.017248198539	blockFiles/set_10/main_unc/rightBlue\GB_RB_5.xlsx
372	main_unc	True	0.0	706	0	4.0	4.0	1.0	1	right	2.0	0.0	1.0	1	0.0650142133981	blockFiles/set_10/main_unc/rightBlue\GB_RB_5.xlsx
373	main_unc	True	0.0	706	0	4.0	4.0	1.0	1	right	2.0	0.0	1.0	1	0.020542842205599997	blockFiles/set_10/main_unc/rightBlue\GB_RB_5.xlsx
374	main_unc	True	0.0	706	0	4.0	4.0	0.0	1	left	1.0	1.0	1.0	0	-0.0779673561826	blockFiles/set_10/main_unc/rightBlue\GB_RB_5.xlsx
375	main_unc	True	0.0	706	0	4.0	4.0	0.0	1	left	1.0	1.0	1.0	0	-0.07811266565700001	blockFiles/set_10/main_unc/rightBlue\GB_RB_5.xlsx
376	main_unc	True	0.0	706	0	4.0	4.0	0.0	0	left	1.0	0.0	0.0	1	0.00620942503214	blockFiles/set_10/main_unc/rightBlue\GB_RB_5.xlsx
377	main_unc	True	0.0	706	0	4.0	4.0	0.0	1	left	1.0	1.0	1.0	0	-0.0652328571491	blockFiles/set_10/main_unc/rightBlue\GB_RB_5.xlsx
378	main_unc	True	0.0	706	0	4.0	4.0	0.0	1	left	1.0	1.0	1.0	0	-0.045980466865	blockFiles/set_10/main_unc/rightBlue\GB_RB_5.xlsx
379	main_unc	True	0.0	706	0	4.0	4.0	0.0	0	left	2.0	1.0	1.0	1	0.0269240759872	blockFiles/set_10/main_unc/rightBlue\GB_RB_5.xlsx
380	main_unc	True	0.0	706	0	4.0	4.0	0.0	1	left	1.0	0.0	1.0	0	-0.0261188915931	blockFiles/set_10/main_unc/rightBlue\GB_RB_5.xlsx
381	main_unc	True	0.0	706	0	4.0	4.0	0.0	1	left	1.0	1.0	1.0	0	-0.07316555386410001	blockFiles/set_10/main_unc/rightBlue\GB_RB_5.xlsx
382	main_unc	True	0.0	706	0	4.0	4.0	1.0	1	right	2.0	1.0	1.0	1	0.0356108375266	blockFiles/set_10/main_unc/rightBlue\GB_RB_5.xlsx
383	main_unc	True	0.0	706	0	4.0	4.0	1.0	0	right	2.0	0.0	0.0	0	-0.006684428751470001	blockFiles/set_10/main_unc/rightBlue\GB_RB_5.xlsx
384	main_unc	True	0.0	706	0	5.0	5.0	1.0	1	right	2.0	1.0	1.0	1	0.007758134901520001	blockFiles/set_10/main_unc/rightBlue\GB_RB_4.xlsx
385	main_unc	True	0.0	706	0	5.0	5.0	1.0	0	right	1.0	1.0	1.0	0	-0.04369301598519999	blockFiles/set_10/main_unc/rightBlue\GB_RB_4.xlsx
386	main_unc	True	0.0	706	0	5.0	5.0	1.0	1	right	2.0	1.0	1.0	1	0.026951877828700004	blockFiles/set_10/main_unc/rightBlue\GB_RB_4.xlsx
387	main_unc	True	1.0	706	0	5.0	5.0	n/a	0	None	n/a	0.0	n/a	0	-0.024570929613	blockFiles/set_10/main_unc/rightBlue\GB_RB_4.xlsx
388	main_unc	True	0.0	706	0	5.0	5.0	1.0	1	right	2.0	1.0	1.0	1	0.0369944710471	blockFiles/set_10/main_unc/rightBlue\GB_RB_4.xlsx
389	main_unc	True	0.0	706	0	5.0	5.0	1.0	1	right	2.0	1.0	1.0	1	0.0735423987918	blockFiles/set_10/main_unc/rightBlue\GB_RB_4.xlsx
390	main_unc	True	0.0	706	0	5.0	5.0	0.0	1	left	1.0	1.0	1.0	0	-0.07674867337569999	blockFiles/set_10/main_unc/rightBlue\GB_RB_4.xlsx
391	main_unc	True	1.0	706	0	5.0	5.0	n/a	0	None	n/a	0.0	n/a	0	-0.017774107679700002	blockFiles/set_10/main_unc/rightBlue\GB_RB_4.xlsx
392	main_unc	True	0.0	706	0	5.0	5.0	1.0	1	right	2.0	1.0	1.0	1	0.0371765450574	blockFiles/set_10/main_unc/rightBlue\GB_RB_4.xlsx
393	main_unc	True	0.0	706	0	5.0	5.0	0.0	1	left	1.0	0.0	1.0	0	-0.0274584559537	blockFiles/set_10/main_unc/rightBlue\GB_RB_4.xlsx
394	main_unc	True	0.0	706	0	5.0	5.0	1.0	1	right	2.0	1.0	1.0	1	0.035964423082800005	blockFiles/set_10/main_unc/rightBlue\GB_RB_4.xlsx
395	main_unc	True	0.0	706	0	5.0	5.0	1.0	1	right	2.0	1.0	1.0	1	0.0367772587389	blockFiles/set_10/main_unc/rightBlue\GB_RB_4.xlsx
396	main_unc	True	0.0	706	0	5.0	5.0	0.0	1	left	2.0	1.0	0.0	0	-0.016362419296099998	blockFiles/set_10/main_unc/rightBlue\GB_RB_4.xlsx
397	main_unc	True	0.0	706	0	5.0	5.0	1.0	1	right	2.0	1.0	1.0	1	0.077971580103	blockFiles/set_10/main_unc/rightBlue\GB_RB_4.xlsx
398	main_unc	True	0.0	706	0	5.0	5.0	0.0	1	left	1.0	1.0	1.0	0	-0.05766359308730001	blockFiles/set_10/main_unc/rightBlue\GB_RB_4.xlsx
399	main_unc	True	0.0	706	0	5.0	5.0	1.0	1	right	2.0	1.0	1.0	1	0.0309327359311	blockFiles/set_10/main_unc/rightBlue\GB_RB_4.xlsx
400	main_unc	True	0.0	706	0	5.0	5.0	0.0	1	left	1.0	1.0	1.0	0	-0.0476780101471	blockFiles/set_10/main_unc/rightBlue\GB_RB_4.xlsx
401	main_unc	True	0.0	706	0	5.0	5.0	1.0	1	right	2.0	1.0	1.0	1	0.032456691507299996	blockFiles/set_10/main_unc/rightBlue\GB_RB_4.xlsx
402	main_unc	True	0.0	706	0	5.0	5.0	1.0	1	right	2.0	0.0	1.0	1	0.0632638766989	blockFiles/set_10/main_unc/rightBlue\GB_RB_4.xlsx
403	main_unc	True	0.0	706	0	5.0	5.0	0.0	1	left	1.0	1.0	1.0	0	-0.0451848879643	blockFiles/set_10/main_unc/rightBlue\GB_RB_4.xlsx
404	main_unc	True	0.0	706	0	5.0	5.0	1.0	1	right	2.0	1.0	1.0	1	0.00110296070576	blockFiles/set_10/main_unc/rightBlue\GB_RB_4.xlsx
405	main_unc	True	0.0	706	0	5.0	5.0	1.0	1	right	2.0	1.0	1.0	1	0.06810982348399999	blockFiles/set_10/main_unc/rightBlue\GB_RB_4.xlsx
406	main_unc	True	1.0	706	0	5.0	5.0	n/a	0	None	n/a	0.0	n/a	0	-0.0165180438757	blockFiles/set_10/main_unc/rightBlue\GB_RB_4.xlsx
407	main_unc	True	1.0	706	0	5.0	5.0	n/a	0	None	n/a	0.0	n/a	0	-0.0175950775482	blockFiles/set_10/main_unc/rightBlue\GB_RB_4.xlsx
408	main_unc	True	0.0	706	0	5.0	5.0	0.0	1	left	1.0	0.0	1.0	0	-0.0708937121183	blockFiles/set_10/main_unc/rightBlue\GB_RB_4.xlsx
409	main_unc	True	0.0	706	0	5.0	5.0	1.0	0	right	2.0	0.0	0.0	0	-0.024570929613	blockFiles/set_10/main_unc/rightBlue\GB_RB_4.xlsx
410	main_unc	True	0.0	706	0	5.0	5.0	1.0	0	right	2.0	0.0	0.0	0	-0.017774107679700002	blockFiles/set_10/main_unc/rightBlue\GB_RB_4.xlsx
411	main_unc	True	0.0	706	0	5.0	5.0	1.0	0	right	2.0	0.0	0.0	0	-0.0165180438757	blockFiles/set_10/main_unc/rightBlue\GB_RB_4.xlsx
412	main_unc	True	0.0	706	0	5.0	5.0	0.0	1	left	2.0	0.0	0.0	0	-0.0175950775482	blockFiles/set_10/main_unc/rightBlue\GB_RB_4.xlsx
413	main_unc	True	0.0	706	0	6.0	6.0	1.0	1	right	2.0	0.0	0.0	1	0.0661335094832	blockFiles/set_10/main_unc/leftBlue\GB_LB_4.xlsx
414	main_unc	True	0.0	706	0	6.0	6.0	1.0	0	right	2.0	1.0	1.0	0	-0.0293993213773	blockFiles/set_10/main_unc/leftBlue\GB_LB_4.xlsx
415	main_unc	True	0.0	706	0	6.0	6.0	1.0	1	right	2.0	0.0	0.0	1	0.0335032519139	blockFiles/set_10/main_unc/leftBlue\GB_LB_4.xlsx
416	main_unc	True	0.0	706	0	6.0	6.0	1.0	1	right	1.0	0.0	1.0	1	0.0435162548721	blockFiles/set_10/main_unc/leftBlue\GB_LB_4.xlsx
417	main_unc	True	0.0	706	0	6.0	6.0	0.0	1	left	1.0	0.0	0.0	0	-0.0542407474481	blockFiles/set_10/main_unc/leftBlue\GB_LB_4.xlsx
418	main_unc	True	0.0	706	0	6.0	6.0	1.0	1	right	1.0	1.0	1.0	1	0.0157953945734	blockFiles/set_10/main_unc/leftBlue\GB_LB_4.xlsx
419	main_unc	True	0.0	706	0	6.0	6.0	0.0	1	left	2.0	1.0	1.0	0	-0.0269978971221	blockFiles/set_10/main_unc/leftBlue\GB_LB_4.xlsx
420	main_unc	True	0.0	706	0	6.0	6.0	0.0	1	left	2.0	1.0	1.0	0	-0.0273299594037	blockFiles/set_10/main_unc/leftBlue\GB_LB_4.xlsx
421	main_unc	True	0.0	706	0	6.0	6.0	1.0	1	right	1.0	1.0	1.0	1	0.0522788546421	blockFiles/set_10/main_unc/leftBlue\GB_LB_4.xlsx
422	main_unc	True	0.0	706	0	6.0	6.0	1.0	1	right	1.0	1.0	1.0	1	0.0772792661004	blockFiles/set_10/main_unc/leftBlue\GB_LB_4.xlsx
423	main_unc	True	0.0	706	0	6.0	6.0	0.0	1	left	2.0	0.0	1.0	0	-0.0181536859646	blockFiles/set_10/main_unc/leftBlue\GB_LB_4.xlsx
424	main_unc	True	0.0	706	0	6.0	6.0	1.0	1	right	1.0	1.0	1.0	1	0.0235518703423	blockFiles/set_10/main_unc/leftBlue\GB_LB_4.xlsx
425	main_unc	True	0.0	706	0	6.0	6.0	0.0	1	left	2.0	0.0	1.0	0	-0.0758396437764	blockFiles/set_10/main_unc/leftBlue\GB_LB_4.xlsx
426	main_unc	True	0.0	706	0	6.0	6.0	0.0	1	left	2.0	1.0	1.0	0	-0.0190028443001	blockFiles/set_10/main_unc/leftBlue\GB_LB_4.xlsx
427	main_unc	True	0.0	706	0	6.0	6.0	1.0	1	right	2.0	0.0	0.0	1	0.0023842698335599997	blockFiles/set_10/main_unc/leftBlue\GB_LB_4.xlsx
428	main_unc	True	0.0	706	0	6.0	6.0	0.0	1	left	2.0	1.0	1.0	0	-0.048517361786199996	blockFiles/set_10/main_unc/leftBlue\GB_LB_4.xlsx
429	main_unc	True	0.0	706	0	6.0	6.0	1.0	1	right	1.0	1.0	1.0	1	0.052180600576099995	blockFiles/set_10/main_unc/leftBlue\GB_LB_4.xlsx
430	main_unc	True	0.0	706	0	6.0	6.0	1.0	1	right	1.0	0.0	1.0	1	0.07068757157769999	blockFiles/set_10/main_unc/leftBlue\GB_LB_4.xlsx
431	main_unc	True	0.0	706	0	6.0	6.0	1.0	0	right	1.0	1.0	0.0	0	-0.0007343586534260001	blockFiles/set_10/main_unc/leftBlue\GB_LB_4.xlsx
432	main_unc	True	0.0	706	0	6.0	6.0	1.0	1	right	1.0	1.0	1.0	1	0.051140763107699994	blockFiles/set_10/main_unc/leftBlue\GB_LB_4.xlsx
433	main_unc	True	0.0	706	0	6.0	6.0	1.0	1	right	1.0	1.0	1.0	1	0.0259834570438	blockFiles/set_10/main_unc/leftBlue\GB_LB_4.xlsx
434	main_unc	True	0.0	706	0	6.0	6.0	0.0	1	left	2.0	1.0	1.0	0	-0.0609012788162	blockFiles/set_10/main_unc/leftBlue\GB_LB_4.xlsx
435	main_unc	True	0.0	706	0	6.0	6.0	0.0	1	left	1.0	0.0	0.0	0	-0.03848951127380001	blockFiles/set_10/main_unc/leftBlue\GB_LB_4.xlsx
436	main_unc	True	0.0	706	0	6.0	6.0	1.0	1	right	2.0	0.0	0.0	1	0.0207443497516	blockFiles/set_10/main_unc/leftBlue\GB_LB_4.xlsx
437	main_unc	True	0.0	706	0	6.0	6.0	0.0	1	left	2.0	1.0	1.0	0	-0.0634449300356	blockFiles/set_10/main_unc/leftBlue\GB_LB_4.xlsx
438	main_unc	True	0.0	706	0	7.0	7.0	0.0	1	left	2.0	0.0	1.0	0	-0.052014331873500005	blockFiles/set_10/main_unc/leftBlue\GB_LB_6.xlsx
439	main_unc	True	0.0	706	0	7.0	7.0	0.0	1	left	1.0	0.0	0.0	0	-0.0675396899506	blockFiles/set_10/main_unc/leftBlue\GB_LB_6.xlsx
440	main_unc	True	0.0	706	0	7.0	7.0	0.0	1	left	1.0	1.0	0.0	0	-0.0586490761489	blockFiles/set_10/main_unc/leftBlue\GB_LB_6.xlsx
441	main_unc	True	0.0	706	0	7.0	7.0	0.0	0	left	1.0	1.0	1.0	1	0.0018214445188599999	blockFiles/set_10/main_unc/leftBlue\GB_LB_6.xlsx
442	main_unc	True	0.0	706	0	7.0	7.0	1.0	1	right	2.0	0.0	0.0	1	0.0590814136527	blockFiles/set_10/main_unc/leftBlue\GB_LB_6.xlsx
443	main_unc	True	0.0	706	0	7.0	7.0	1.0	1	right	2.0	0.0	0.0	1	0.056969175245599996	blockFiles/set_10/main_unc/leftBlue\GB_LB_6.xlsx
444	main_unc	True	0.0	706	0	7.0	7.0	1.0	0	right	1.0	1.0	0.0	0	-0.00605566494167	blockFiles/set_10/main_unc/leftBlue\GB_LB_6.xlsx
445	main_unc	True	0.0	706	0	7.0	7.0	1.0	1	right	1.0	1.0	1.0	1	0.050029345266500005	blockFiles/set_10/main_unc/leftBlue\GB_LB_6.xlsx
446	main_unc	True	0.0	706	0	7.0	7.0	0.0	1	left	2.0	1.0	1.0	0	-0.06103037405759999	blockFiles/set_10/main_unc/leftBlue\GB_LB_6.xlsx
447	main_unc	True	0.0	706	0	7.0	7.0	0.0	1	left	2.0	1.0	1.0	0	-0.022317181024700004	blockFiles/set_10/main_unc/leftBlue\GB_LB_6.xlsx
448	main_unc	True	0.0	706	0	7.0	7.0	0.0	1	left	2.0	1.0	1.0	0	-0.0355716881715	blockFiles/set_10/main_unc/leftBlue\GB_LB_6.xlsx
449	main_unc	True	0.0	706	0	7.0	7.0	0.0	1	left	2.0	1.0	1.0	0	-0.06873329080639999	blockFiles/set_10/main_unc/leftBlue\GB_LB_6.xlsx
450	main_unc	True	0.0	706	0	7.0	7.0	1.0	1	right	1.0	1.0	1.0	1	0.0414882501401	blockFiles/set_10/main_unc/leftBlue\GB_LB_6.xlsx
451	main_unc	True	0.0	706	0	7.0	7.0	0.0	0	left	1.0	1.0	1.0	1	0.022192906625599997	blockFiles/set_10/main_unc/leftBlue\GB_LB_6.xlsx
452	main_unc	True	0.0	706	0	7.0	7.0	1.0	1	right	1.0	0.0	1.0	1	0.036260196398900005	blockFiles/set_10/main_unc/leftBlue\GB_LB_6.xlsx
453	main_unc	True	0.0	706	0	7.0	7.0	1.0	0	right	1.0	0.0	0.0	0	-0.017579196579799998	blockFiles/set_10/main_unc/leftBlue\GB_LB_6.xlsx
454	main_unc	True	0.0	706	0	7.0	7.0	0.0	1	left	2.0	1.0	1.0	0	-0.0402431224845	blockFiles/set_10/main_unc/leftBlue\GB_LB_6.xlsx
455	main_unc	True	0.0	706	0	7.0	7.0	0.0	1	left	2.0	1.0	1.0	0	-0.0613754106686	blockFiles/set_10/main_unc/leftBlue\GB_LB_6.xlsx
456	main_unc	True	0.0	706	0	7.0	7.0	0.0	1	left	2.0	1.0	1.0	0	-0.061179662831100004	blockFiles/set_10/main_unc/leftBlue\GB_LB_6.xlsx
457	main_unc	True	0.0	706	0	7.0	7.0	1.0	1	right	1.0	1.0	1.0	1	0.035102838352300006	blockFiles/set_10/main_unc/leftBlue\GB_LB_6.xlsx
458	main_unc	True	0.0	706	0	7.0	7.0	1.0	1	right	1.0	1.0	1.0	1	0.0409407529049	blockFiles/set_10/main_unc/leftBlue\GB_LB_6.xlsx
459	main_unc	True	0.0	706	0	7.0	7.0	0.0	1	left	2.0	1.0	1.0	0	-0.00511428223923	blockFiles/set_10/main_unc/leftBlue\GB_LB_6.xlsx
460	main_unc	True	0.0	706	0	7.0	7.0	1.0	1	right	1.0	0.0	1.0	1	0.0775658814795	blockFiles/set_10/main_unc/leftBlue\GB_LB_6.xlsx
461	main_unc	True	0.0	706	0	7.0	7.0	1.0	1	right	1.0	1.0	1.0	1	0.000739044751972	blockFiles/set_10/main_unc/leftBlue\GB_LB_6.xlsx
462	main_unc	True	0.0	706	0	7.0	7.0	1.0	1	right	1.0	1.0	1.0	1	0.0255877986364	blockFiles/set_10/main_unc/leftBlue\GB_LB_6.xlsx
463	main_unc	True	0.0	706	0	8.0	8.0	0.0	1	left	1.0	0.0	0.0	0	-0.057927876952999995	blockFiles/set_10/main_unc/leftBlue\GB_LB_5.xlsx
464	main_unc	True	0.0	706	0	8.0	8.0	1.0	1	right	1.0	1.0	1.0	1	0.057734473366300006	blockFiles/set_10/main_unc/leftBlue\GB_LB_5.xlsx
465	main_unc	True	0.0	706	0	8.0	8.0	1.0	1	right	1.0	1.0	1.0	1	0.0449506473355	blockFiles/set_10/main_unc/leftBlue\GB_LB_5.xlsx
466	main_unc	True	0.0	706	0	8.0	8.0	0.0	1	left	2.0	1.0	1.0	0	-0.0120358591899	blockFiles/set_10/main_unc/leftBlue\GB_LB_5.xlsx
467	main_unc	True	0.0	706	0	8.0	8.0	1.0	1	right	1.0	1.0	1.0	1	0.0331735598855	blockFiles/set_10/main_unc/leftBlue\GB_LB_5.xlsx
468	main_unc	True	0.0	706	0	8.0	8.0	0.0	1	left	2.0	1.0	1.0	0	-0.0770973674022	blockFiles/set_10/main_unc/leftBlue\GB_LB_5.xlsx
469	main_unc	True	0.0	706	0	8.0	8.0	1.0	1	right	1.0	0.0	1.0	1	0.024085922949	blockFiles/set_10/main_unc/leftBlue\GB_LB_5.xlsx
470	main_unc	True	0.0	706	0	8.0	8.0	1.0	1	right	1.0	1.0	1.0	1	0.016614993736100002	blockFiles/set_10/main_unc/leftBlue\GB_LB_5.xlsx
471	main_unc	True	0.0	706	0	8.0	8.0	1.0	1	right	1.0	1.0	1.0	1	0.0528688001446	blockFiles/set_10/main_unc/leftBlue\GB_LB_5.xlsx
472	main_unc	True	0.0	706	0	8.0	8.0	0.0	1	left	2.0	0.0	1.0	0	-0.0291391103156	blockFiles/set_10/main_unc/leftBlue\GB_LB_5.xlsx
473	main_unc	True	0.0	706	0	8.0	8.0	1.0	1	right	1.0	1.0	1.0	1	0.0186389435455	blockFiles/set_10/main_unc/leftBlue\GB_LB_5.xlsx
474	main_unc	True	0.0	706	0	8.0	8.0	1.0	1	right	1.0	1.0	1.0	1	0.0203599623777	blockFiles/set_10/main_unc/leftBlue\GB_LB_5.xlsx
475	main_unc	True	0.0	706	0	8.0	8.0	0.0	1	left	2.0	0.0	1.0	0	-0.0713946515508	blockFiles/set_10/main_unc/leftBlue\GB_LB_5.xlsx
476	main_unc	True	0.0	706	0	8.0	8.0	1.0	1	right	1.0	1.0	1.0	1	0.00997234201059	blockFiles/set_10/main_unc/leftBlue\GB_LB_5.xlsx
477	main_unc	True	0.0	706	0	8.0	8.0	0.0	1	left	2.0	1.0	1.0	0	-0.048091924209099995	blockFiles/set_10/main_unc/leftBlue\GB_LB_5.xlsx
478	main_unc	True	0.0	706	0	8.0	8.0	0.0	1	left	2.0	1.0	1.0	0	-0.0630308202654	blockFiles/set_10/main_unc/leftBlue\GB_LB_5.xlsx
479	main_unc	True	0.0	706	0	8.0	8.0	0.0	1	left	2.0	1.0	1.0	0	-0.00430540241301	blockFiles/set_10/main_unc/leftBlue\GB_LB_5.xlsx
480	main_unc	True	0.0	706	0	8.0	8.0	0.0	1	left	2.0	1.0	1.0	0	-0.0110978682898	blockFiles/set_10/main_unc/leftBlue\GB_LB_5.xlsx
481	main_unc	True	0.0	706	0	8.0	8.0	0.0	1	left	2.0	1.0	1.0	0	-0.052632131110899996	blockFiles/set_10/main_unc/leftBlue\GB_LB_5.xlsx
482	main_unc	True	0.0	706	0	8.0	8.0	1.0	1	right	1.0	1.0	1.0	1	0.0643190334737	blockFiles/set_10/main_unc/leftBlue\GB_LB_5.xlsx
483	main_unc	True	0.0	706	0	8.0	8.0	1.0	1	right	1.0	1.0	1.0	1	0.029644740782699998	blockFiles/set_10/main_unc/leftBlue\GB_LB_5.xlsx
484	main_unc	True	0.0	706	0	8.0	8.0	1.0	1	right	1.0	1.0	1.0	1	0.06334899572660001	blockFiles/set_10/main_unc/leftBlue\GB_LB_5.xlsx
485	main_unc	True	0.0	706	0	8.0	8.0	1.0	0	right	1.0	1.0	0.0	0	-0.00380088454112	blockFiles/set_10/main_unc/leftBlue\GB_LB_5.xlsx
486	main_unc	True	0.0	706	0	8.0	8.0	1.0	0	right	1.0	0.0	0.0	0	-0.020419587623299998	blockFiles/set_10/main_unc/leftBlue\GB_LB_5.xlsx
487	main_unc	True	0.0	706	0	8.0	8.0	1.0	1	right	1.0	1.0	1.0	1	0.031279836893099995	blockFiles/set_10/main_unc/leftBlue\GB_LB_5.xlsx
488	main_unc	True	0.0	706	0	9.0	9.0	1.0	1	right	2.0	1.0	0.0	1	0.06686625609170001	blockFiles/set_10/main_unc/leftBlue\GB_LB_2.xlsx
489	main_unc	True	1.0	706	0	9.0	9.0	n/a	0	None	n/a	0.0	n/a	0	-0.033068173900200004	blockFiles/set_10/main_unc/leftBlue\GB_LB_2.xlsx
490	main_unc	True	0.0	706	0	9.0	9.0	1.0	1	right	2.0	1.0	0.0	1	0.0323545157723	blockFiles/set_10/main_unc/leftBlue\GB_LB_2.xlsx
491	main_unc	True	0.0	706	0	9.0	9.0	1.0	1	right	2.0	0.0	0.0	1	0.036868761461199995	blockFiles/set_10/main_unc/leftBlue\GB_LB_2.xlsx
492	main_unc	True	0.0	706	0	9.0	9.0	0.0	1	left	2.0	1.0	1.0	0	-0.036380910202900005	blockFiles/set_10/main_unc/leftBlue\GB_LB_2.xlsx
493	main_unc	True	0.0	706	0	9.0	9.0	1.0	1	right	2.0	0.0	0.0	1	0.030797728747099996	blockFiles/set_10/main_unc/leftBlue\GB_LB_2.xlsx
494	main_unc	True	0.0	706	0	9.0	9.0	0.0	1	left	1.0	0.0	0.0	0	-0.0759227292798	blockFiles/set_10/main_unc/leftBlue\GB_LB_2.xlsx
495	main_unc	True	0.0	706	0	9.0	9.0	1.0	1	right	1.0	1.0	1.0	1	0.0551410650648	blockFiles/set_10/main_unc/leftBlue\GB_LB_2.xlsx
496	main_unc	True	0.0	706	0	9.0	9.0	0.0	1	left	2.0	1.0	1.0	0	-0.0799354853109	blockFiles/set_10/main_unc/leftBlue\GB_LB_2.xlsx
497	main_unc	True	0.0	706	0	9.0	9.0	0.0	0	left	1.0	0.0	1.0	1	0.00630351295695	blockFiles/set_10/main_unc/leftBlue\GB_LB_2.xlsx
498	main_unc	True	0.0	706	0	9.0	9.0	0.0	0	left	2.0	0.0	0.0	1	0.0030826209671799996	blockFiles/set_10/main_unc/leftBlue\GB_LB_2.xlsx
499	main_unc	True	0.0	706	0	9.0	9.0	1.0	0	right	2.0	0.0	1.0	0	-0.00100966598839	blockFiles/set_10/main_unc/leftBlue\GB_LB_2.xlsx
500	main_unc	True	0.0	706	0	9.0	9.0	1.0	1	right	1.0	1.0	1.0	1	0.05338631691409999	blockFiles/set_10/main_unc/leftBlue\GB_LB_2.xlsx
501	main_unc	True	0.0	706	0	9.0	9.0	0.0	1	left	2.0	1.0	1.0	0	-0.0662520202063	blockFiles/set_10/main_unc/leftBlue\GB_LB_2.xlsx
502	main_unc	True	0.0	706	0	9.0	9.0	0.0	1	left	2.0	1.0	1.0	0	-0.0528259491734	blockFiles/set_10/main_unc/leftBlue\GB_LB_2.xlsx
503	main_unc	True	0.0	706	0	9.0	9.0	0.0	1	left	2.0	1.0	1.0	0	-0.0649485569261	blockFiles/set_10/main_unc/leftBlue\GB_LB_2.xlsx
504	main_unc	True	0.0	706	0	9.0	9.0	0.0	1	left	2.0	1.0	1.0	0	-0.0657055844553	blockFiles/set_10/main_unc/leftBlue\GB_LB_2.xlsx
505	main_unc	True	0.0	706	0	9.0	9.0	0.0	0	left	2.0	0.0	0.0	1	0.008437621034680001	blockFiles/set_10/main_unc/leftBlue\GB_LB_2.xlsx
506	main_unc	True	0.0	706	0	9.0	9.0	0.0	1	left	2.0	1.0	1.0	0	-0.052387990728	blockFiles/set_10/main_unc/leftBlue\GB_LB_2.xlsx
507	main_unc	True	0.0	706	0	9.0	9.0	0.0	0	left	2.0	0.0	0.0	1	0.028521825261400003	blockFiles/set_10/main_unc/leftBlue\GB_LB_2.xlsx
508	main_unc	True	0.0	706	0	9.0	9.0	0.0	1	left	2.0	1.0	1.0	0	-0.0499469736218	blockFiles/set_10/main_unc/leftBlue\GB_LB_2.xlsx
509	main_unc	True	0.0	706	0	9.0	9.0	0.0	1	left	2.0	1.0	1.0	0	-0.0241272776388	blockFiles/set_10/main_unc/leftBlue\GB_LB_2.xlsx
510	main_unc	True	0.0	706	0	9.0	9.0	1.0	1	right	1.0	0.0	1.0	1	0.0629451385513	blockFiles/set_10/main_unc/leftBlue\GB_LB_2.xlsx
511	main_unc	True	0.0	706	0	9.0	9.0	1.0	1	right	1.0	1.0	1.0	1	0.0400190295093	blockFiles/set_10/main_unc/leftBlue\GB_LB_2.xlsx
512	main_unc	True	0.0	706	0	9.0	9.0	0.0	1	left	2.0	1.0	1.0	0	-0.0416275498271	blockFiles/set_10/main_unc/leftBlue\GB_LB_2.xlsx
513	main_unc	True	0.0	706	0	9.0	9.0	1.0	0	right	2.0	1.0	1.0	0	-0.033068173900200004	blockFiles/set_10/main_unc/leftBlue\GB_LB_2.xlsx
514	main_unc	True	0.0	706	0	10.0	10.0	0.0	1	left	2.0	0.0	0.0	0	-0.0053580808639499995	blockFiles/set_10/main_unc/rightBlue\GB_RB_6.xlsx
515	main_unc	True	1.0	706	0	10.0	10.0	n/a	0	None	n/a	0.0	n/a	0	-0.05889456344769999	blockFiles/set_10/main_unc/rightBlue\GB_RB_6.xlsx
516	main_unc	True	0.0	706	0	10.0	10.0	1.0	1	right	2.0	1.0	1.0	1	0.0680586942472	blockFiles/set_10/main_unc/rightBlue\GB_RB_6.xlsx
517	main_unc	True	0.0	706	0	10.0	10.0	1.0	1	right	2.0	1.0	1.0	1	0.051351513788099996	blockFiles/set_10/main_unc/rightBlue\GB_RB_6.xlsx
518	main_unc	True	0.0	706	0	10.0	10.0	0.0	1	left	1.0	0.0	1.0	0	-0.060896868202800006	blockFiles/set_10/main_unc/rightBlue\GB_RB_6.xlsx
519	main_unc	True	0.0	706	0	10.0	10.0	0.0	1	left	1.0	1.0	1.0	0	-0.063571775835	blockFiles/set_10/main_unc/rightBlue\GB_RB_6.xlsx
520	main_unc	True	0.0	706	0	10.0	10.0	1.0	1	right	2.0	1.0	1.0	1	0.0060447091423	blockFiles/set_10/main_unc/rightBlue\GB_RB_6.xlsx
521	main_unc	True	0.0	706	0	10.0	10.0	1.0	1	right	2.0	1.0	1.0	1	0.00943165326491	blockFiles/set_10/main_unc/rightBlue\GB_RB_6.xlsx
522	main_unc	True	0.0	706	0	10.0	10.0	1.0	1	right	2.0	1.0	1.0	1	0.0407845424116	blockFiles/set_10/main_unc/rightBlue\GB_RB_6.xlsx
523	main_unc	True	0.0	706	0	10.0	10.0	1.0	1	right	2.0	0.0	1.0	1	0.07651278246189999	blockFiles/set_10/main_unc/rightBlue\GB_RB_6.xlsx
524	main_unc	True	0.0	706	0	10.0	10.0	1.0	1	right	2.0	1.0	1.0	1	0.00822231093422	blockFiles/set_10/main_unc/rightBlue\GB_RB_6.xlsx
525	main_unc	True	0.0	706	0	10.0	10.0	0.0	1	left	1.0	1.0	1.0	0	-0.0028631255775700003	blockFiles/set_10/main_unc/rightBlue\GB_RB_6.xlsx
526	main_unc	True	0.0	706	0	10.0	10.0	1.0	1	right	2.0	1.0	1.0	1	0.0685220749862	blockFiles/set_10/main_unc/rightBlue\GB_RB_6.xlsx
527	main_unc	True	0.0	706	0	10.0	10.0	1.0	1	right	2.0	1.0	1.0	1	0.0543446224555	blockFiles/set_10/main_unc/rightBlue\GB_RB_6.xlsx
528	main_unc	True	0.0	706	0	10.0	10.0	0.0	1	left	1.0	1.0	1.0	0	-0.0362514525652	blockFiles/set_10/main_unc/rightBlue\GB_RB_6.xlsx
529	main_unc	True	0.0	706	0	10.0	10.0	0.0	1	left	1.0	1.0	1.0	0	-0.051461899988400006	blockFiles/set_10/main_unc/rightBlue\GB_RB_6.xlsx
530	main_unc	True	0.0	706	0	10.0	10.0	1.0	1	right	2.0	1.0	1.0	1	0.035980020295800004	blockFiles/set_10/main_unc/rightBlue\GB_RB_6.xlsx
531	main_unc	True	0.0	706	0	10.0	10.0	1.0	1	right	2.0	0.0	1.0	1	0.0288186966255	blockFiles/set_10/main_unc/rightBlue\GB_RB_6.xlsx
532	main_unc	True	0.0	706	0	10.0	10.0	0.0	1	left	2.0	0.0	0.0	0	-0.00707500861958	blockFiles/set_10/main_unc/rightBlue\GB_RB_6.xlsx
533	main_unc	True	0.0	706	0	10.0	10.0	0.0	1	left	1.0	0.0	1.0	0	-0.0682629448548	blockFiles/set_10/main_unc/rightBlue\GB_RB_6.xlsx
534	main_unc	True	0.0	706	0	10.0	10.0	1.0	1	right	2.0	1.0	1.0	1	0.0265931586362	blockFiles/set_10/main_unc/rightBlue\GB_RB_6.xlsx
535	main_unc	True	0.0	706	0	10.0	10.0	0.0	1	left	1.0	0.0	1.0	0	-0.0485044686496	blockFiles/set_10/main_unc/rightBlue\GB_RB_6.xlsx
536	main_unc	True	0.0	706	0	10.0	10.0	1.0	1	right	2.0	1.0	1.0	1	0.00484094401821	blockFiles/set_10/main_unc/rightBlue\GB_RB_6.xlsx
537	main_unc	True	0.0	706	0	10.0	10.0	0.0	1	left	1.0	1.0	1.0	0	-0.024695154111799997	blockFiles/set_10/main_unc/rightBlue\GB_RB_6.xlsx
538	main_unc	True	0.0	706	0	10.0	10.0	1.0	1	right	2.0	1.0	1.0	1	0.032025928814	blockFiles/set_10/main_unc/rightBlue\GB_RB_6.xlsx
539	main_unc	True	0.0	706	0	10.0	10.0	0.0	1	left	1.0	1.0	1.0	0	-0.05889456344769999	blockFiles/set_10/main_unc/rightBlue\GB_RB_6.xlsx
540	main_unc	True	0.0	706	0	11.0	11.0	0.0	1	left	1.0	0.0	1.0	0	-0.0496816818602	blockFiles/set_10/main_unc/rightBlue\GB_RB_2.xlsx
541	main_unc	True	0.0	706	0	11.0	11.0	0.0	1	left	2.0	1.0	0.0	0	-0.0558642596938	blockFiles/set_10/main_unc/rightBlue\GB_RB_2.xlsx
542	main_unc	True	0.0	706	0	11.0	11.0	0.0	1	left	2.0	0.0	0.0	0	-0.0662048518099	blockFiles/set_10/main_unc/rightBlue\GB_RB_2.xlsx
543	main_unc	True	0.0	706	0	11.0	11.0	0.0	1	left	2.0	0.0	0.0	0	-0.037711929976900004	blockFiles/set_10/main_unc/rightBlue\GB_RB_2.xlsx
544	main_unc	True	0.0	706	0	11.0	11.0	0.0	1	left	1.0	1.0	1.0	0	-0.021742874700599997	blockFiles/set_10/main_unc/rightBlue\GB_RB_2.xlsx
545	main_unc	True	0.0	706	0	11.0	11.0	0.0	0	left	1.0	0.0	0.0	1	0.0170429117791	blockFiles/set_10/main_unc/rightBlue\GB_RB_2.xlsx
546	main_unc	True	0.0	706	0	11.0	11.0	0.0	1	left	1.0	0.0	1.0	0	-0.06949272768569999	blockFiles/set_10/main_unc/rightBlue\GB_RB_2.xlsx
547	main_unc	True	0.0	706	0	11.0	11.0	0.0	1	left	2.0	0.0	0.0	0	-0.0349367447384	blockFiles/set_10/main_unc/rightBlue\GB_RB_2.xlsx
548	main_unc	True	0.0	706	0	11.0	11.0	0.0	0	left	1.0	0.0	0.0	1	0.045405872426899994	blockFiles/set_10/main_unc/rightBlue\GB_RB_2.xlsx
549	main_unc	True	0.0	706	0	11.0	11.0	1.0	1	right	2.0	1.0	1.0	1	0.055748806837900004	blockFiles/set_10/main_unc/rightBlue\GB_RB_2.xlsx
550	main_unc	True	0.0	706	0	11.0	11.0	1.0	1	right	2.0	1.0	1.0	1	0.0734933992662	blockFiles/set_10/main_unc/rightBlue\GB_RB_2.xlsx
551	main_unc	True	0.0	706	0	11.0	11.0	1.0	1	right	2.0	1.0	1.0	1	0.013391512501999998	blockFiles/set_10/main_unc/rightBlue\GB_RB_2.xlsx
552	main_unc	True	0.0	706	0	11.0	11.0	1.0	0	right	1.0	1.0	1.0	0	-0.0380667257495	blockFiles/set_10/main_unc/rightBlue\GB_RB_2.xlsx
553	main_unc	True	0.0	706	0	11.0	11.0	1.0	1	right	2.0	1.0	1.0	1	0.008606873862450001	blockFiles/set_10/main_unc/rightBlue\GB_RB_2.xlsx
554	main_unc	True	0.0	706	0	11.0	11.0	1.0	1	right	2.0	1.0	1.0	1	0.0264685235173	blockFiles/set_10/main_unc/rightBlue\GB_RB_2.xlsx
555	main_unc	True	0.0	706	0	11.0	11.0	1.0	1	right	2.0	1.0	1.0	1	0.0594411364384	blockFiles/set_10/main_unc/rightBlue\GB_RB_2.xlsx
556	main_unc	True	0.0	706	0	11.0	11.0	0.0	1	left	1.0	0.0	1.0	0	-0.05668410716580001	blockFiles/set_10/main_unc/rightBlue\GB_RB_2.xlsx
557	main_unc	True	0.0	706	0	11.0	11.0	1.0	1	right	2.0	1.0	1.0	1	0.0755524699576	blockFiles/set_10/main_unc/rightBlue\GB_RB_2.xlsx
558	main_unc	True	0.0	706	0	11.0	11.0	1.0	1	right	2.0	1.0	1.0	1	0.0598369828612	blockFiles/set_10/main_unc/rightBlue\GB_RB_2.xlsx
559	main_unc	True	0.0	706	0	11.0	11.0	1.0	0	right	1.0	1.0	1.0	0	-0.020496265403900003	blockFiles/set_10/main_unc/rightBlue\GB_RB_2.xlsx
560	main_unc	True	0.0	706	0	11.0	11.0	1.0	1	right	2.0	1.0	1.0	1	0.0025327913463099997	blockFiles/set_10/main_unc/rightBlue\GB_RB_2.xlsx
561	main_unc	True	0.0	706	0	11.0	11.0	0.0	1	left	1.0	0.0	1.0	0	-0.028424983620599996	blockFiles/set_10/main_unc/rightBlue\GB_RB_2.xlsx
562	main_unc	True	0.0	706	0	11.0	11.0	0.0	1	left	1.0	1.0	1.0	0	-0.072526430916	blockFiles/set_10/main_unc/rightBlue\GB_RB_2.xlsx
563	main_unc	True	0.0	706	0	11.0	11.0	1.0	1	right	2.0	1.0	1.0	1	0.00517044393346	blockFiles/set_10/main_unc/rightBlue\GB_RB_2.xlsx
564	main_unc	True	0.0	706	0	11.0	11.0	1.0	1	right	2.0	1.0	1.0	1	0.0692659652792	blockFiles/set_10/main_unc/rightBlue\GB_RB_2.xlsx
