	trial_type	complete	missIndex	participant	id	blockNumber	b_t	d_t	decision1.corr	decision1.keys	a_t	r_t	decision2.corr	s_t	u_t	block_file
0	main_safe	True	0.0	400	0	0.0	0.0	1.0	1	right	2.0	1.0	1.0	1	0.08	blockFiles/set_44/main_safe/rightBlue\GB_RB_2.xlsx
1	main_safe	True	0.0	400	0	0.0	0.0	0.0	1	left	1.0	1.0	1.0	0	-0.08	blockFiles/set_44/main_safe/rightBlue\GB_RB_2.xlsx
2	main_safe	True	0.0	400	0	0.0	0.0	1.0	1	right	2.0	1.0	1.0	1	0.08	blockFiles/set_44/main_safe/rightBlue\GB_RB_2.xlsx
3	main_safe	True	0.0	400	0	0.0	0.0	0.0	1	left	1.0	1.0	1.0	0	-0.08	blockFiles/set_44/main_safe/rightBlue\GB_RB_2.xlsx
4	main_safe	True	0.0	400	0	0.0	0.0	1.0	1	right	2.0	1.0	1.0	1	0.08	blockFiles/set_44/main_safe/rightBlue\GB_RB_2.xlsx
5	main_safe	True	0.0	400	0	0.0	0.0	0.0	1	left	1.0	0.0	1.0	0	-0.08	blockFiles/set_44/main_safe/rightBlue\GB_RB_2.xlsx
6	main_safe	True	0.0	400	0	0.0	0.0	0.0	1	left	1.0	0.0	1.0	0	-0.08	blockFiles/set_44/main_safe/rightBlue\GB_RB_2.xlsx
7	main_safe	True	0.0	400	0	0.0	0.0	1.0	1	right	2.0	1.0	1.0	1	0.08	blockFiles/set_44/main_safe/rightBlue\GB_RB_2.xlsx
8	main_safe	True	0.0	400	0	0.0	0.0	1.0	1	right	2.0	1.0	1.0	1	0.08	blockFiles/set_44/main_safe/rightBlue\GB_RB_2.xlsx
9	main_safe	True	0.0	400	0	0.0	0.0	0.0	1	left	1.0	1.0	1.0	0	-0.08	blockFiles/set_44/main_safe/rightBlue\GB_RB_2.xlsx
10	main_safe	True	0.0	400	0	0.0	0.0	0.0	1	left	1.0	1.0	1.0	0	-0.08	blockFiles/set_44/main_safe/rightBlue\GB_RB_2.xlsx
11	main_safe	True	0.0	400	0	0.0	0.0	1.0	1	right	2.0	1.0	1.0	1	0.08	blockFiles/set_44/main_safe/rightBlue\GB_RB_2.xlsx
12	main_safe	True	0.0	400	0	0.0	0.0	1.0	1	right	2.0	1.0	1.0	1	0.08	blockFiles/set_44/main_safe/rightBlue\GB_RB_2.xlsx
13	main_safe	True	0.0	400	0	0.0	0.0	1.0	1	right	2.0	1.0	1.0	1	0.08	blockFiles/set_44/main_safe/rightBlue\GB_RB_2.xlsx
14	main_safe	True	0.0	400	0	0.0	0.0	0.0	1	left	1.0	0.0	1.0	0	-0.08	blockFiles/set_44/main_safe/rightBlue\GB_RB_2.xlsx
15	main_safe	True	0.0	400	0	0.0	0.0	0.0	1	left	1.0	1.0	1.0	0	-0.08	blockFiles/set_44/main_safe/rightBlue\GB_RB_2.xlsx
16	main_safe	True	0.0	400	0	0.0	0.0	1.0	1	right	2.0	0.0	1.0	1	0.08	blockFiles/set_44/main_safe/rightBlue\GB_RB_2.xlsx
17	main_safe	True	0.0	400	0	0.0	0.0	1.0	1	right	2.0	1.0	1.0	1	0.08	blockFiles/set_44/main_safe/rightBlue\GB_RB_2.xlsx
18	main_safe	True	0.0	400	0	0.0	0.0	0.0	1	left	1.0	0.0	1.0	0	-0.08	blockFiles/set_44/main_safe/rightBlue\GB_RB_2.xlsx
19	main_safe	True	0.0	400	0	0.0	0.0	1.0	1	right	2.0	1.0	1.0	1	0.08	blockFiles/set_44/main_safe/rightBlue\GB_RB_2.xlsx
20	main_safe	True	0.0	400	0	0.0	0.0	1.0	1	right	2.0	1.0	1.0	1	0.08	blockFiles/set_44/main_safe/rightBlue\GB_RB_2.xlsx
21	main_safe	True	0.0	400	0	0.0	0.0	0.0	1	left	1.0	1.0	1.0	0	-0.08	blockFiles/set_44/main_safe/rightBlue\GB_RB_2.xlsx
22	main_safe	True	0.0	400	0	0.0	0.0	0.0	1	left	1.0	1.0	1.0	0	-0.08	blockFiles/set_44/main_safe/rightBlue\GB_RB_2.xlsx
23	main_safe	True	0.0	400	0	0.0	0.0	1.0	1	right	2.0	1.0	1.0	1	0.08	blockFiles/set_44/main_safe/rightBlue\GB_RB_2.xlsx
24	main_safe	True	0.0	400	0	0.0	0.0	0.0	1	left	1.0	1.0	1.0	0	-0.08	blockFiles/set_44/main_safe/rightBlue\GB_RB_2.xlsx
25	main_safe	True	0.0	400	0	1.0	1.0	0.0	1	left	1.0	0.0	0.0	0	-0.08	blockFiles/set_44/main_safe/leftBlue\GB_LB_3.xlsx
26	main_safe	True	0.0	400	0	1.0	1.0	0.0	1	left	2.0	0.0	1.0	0	-0.08	blockFiles/set_44/main_safe/leftBlue\GB_LB_3.xlsx
27	main_safe	True	0.0	400	0	1.0	1.0	1.0	1	right	2.0	0.0	0.0	1	0.08	blockFiles/set_44/main_safe/leftBlue\GB_LB_3.xlsx
28	main_safe	True	0.0	400	0	1.0	1.0	1.0	1	right	1.0	0.0	1.0	1	0.08	blockFiles/set_44/main_safe/leftBlue\GB_LB_3.xlsx
29	main_safe	True	0.0	400	0	1.0	1.0	1.0	1	right	1.0	1.0	1.0	1	0.08	blockFiles/set_44/main_safe/leftBlue\GB_LB_3.xlsx
30	main_safe	True	0.0	400	0	1.0	1.0	0.0	1	left	2.0	1.0	1.0	0	-0.08	blockFiles/set_44/main_safe/leftBlue\GB_LB_3.xlsx
31	main_safe	True	0.0	400	0	1.0	1.0	1.0	1	right	1.0	1.0	1.0	1	0.08	blockFiles/set_44/main_safe/leftBlue\GB_LB_3.xlsx
32	main_safe	True	0.0	400	0	1.0	1.0	0.0	1	left	2.0	1.0	1.0	0	-0.08	blockFiles/set_44/main_safe/leftBlue\GB_LB_3.xlsx
33	main_safe	True	0.0	400	0	1.0	1.0	0.0	1	left	2.0	1.0	1.0	0	-0.08	blockFiles/set_44/main_safe/leftBlue\GB_LB_3.xlsx
34	main_safe	True	0.0	400	0	1.0	1.0	0.0	1	left	2.0	1.0	1.0	0	-0.08	blockFiles/set_44/main_safe/leftBlue\GB_LB_3.xlsx
35	main_safe	True	0.0	400	0	1.0	1.0	1.0	1	right	1.0	1.0	1.0	1	0.08	blockFiles/set_44/main_safe/leftBlue\GB_LB_3.xlsx
36	main_safe	True	0.0	400	0	1.0	1.0	1.0	1	right	1.0	1.0	1.0	1	0.08	blockFiles/set_44/main_safe/leftBlue\GB_LB_3.xlsx
37	main_safe	True	0.0	400	0	1.0	1.0	0.0	1	left	2.0	1.0	1.0	0	-0.08	blockFiles/set_44/main_safe/leftBlue\GB_LB_3.xlsx
38	main_safe	True	0.0	400	0	1.0	1.0	1.0	1	right	1.0	1.0	1.0	1	0.08	blockFiles/set_44/main_safe/leftBlue\GB_LB_3.xlsx
39	main_safe	True	0.0	400	0	1.0	1.0	0.0	1	left	2.0	1.0	1.0	0	-0.08	blockFiles/set_44/main_safe/leftBlue\GB_LB_3.xlsx
40	main_safe	True	0.0	400	0	1.0	1.0	1.0	1	right	1.0	0.0	1.0	1	0.08	blockFiles/set_44/main_safe/leftBlue\GB_LB_3.xlsx
41	main_safe	True	0.0	400	0	1.0	1.0	1.0	1	right	1.0	1.0	1.0	1	0.08	blockFiles/set_44/main_safe/leftBlue\GB_LB_3.xlsx
42	main_safe	True	0.0	400	0	1.0	1.0	0.0	1	left	2.0	1.0	1.0	0	-0.08	blockFiles/set_44/main_safe/leftBlue\GB_LB_3.xlsx
43	main_safe	True	0.0	400	0	1.0	1.0	1.0	1	right	1.0	1.0	1.0	1	0.08	blockFiles/set_44/main_safe/leftBlue\GB_LB_3.xlsx
44	main_safe	True	0.0	400	0	1.0	1.0	0.0	1	left	2.0	0.0	1.0	0	-0.08	blockFiles/set_44/main_safe/leftBlue\GB_LB_3.xlsx
45	main_safe	True	0.0	400	0	1.0	1.0	1.0	1	right	1.0	1.0	1.0	1	0.08	blockFiles/set_44/main_safe/leftBlue\GB_LB_3.xlsx
46	main_safe	True	0.0	400	0	1.0	1.0	1.0	1	right	1.0	1.0	1.0	1	0.08	blockFiles/set_44/main_safe/leftBlue\GB_LB_3.xlsx
47	main_safe	True	0.0	400	0	1.0	1.0	1.0	1	right	1.0	1.0	1.0	1	0.08	blockFiles/set_44/main_safe/leftBlue\GB_LB_3.xlsx
48	main_safe	True	0.0	400	0	1.0	1.0	0.0	1	left	2.0	1.0	1.0	0	-0.08	blockFiles/set_44/main_safe/leftBlue\GB_LB_3.xlsx
49	main_safe	True	0.0	400	0	1.0	1.0	1.0	1	right	1.0	1.0	1.0	1	0.08	blockFiles/set_44/main_safe/leftBlue\GB_LB_3.xlsx
50	main_safe	True	0.0	400	0	2.0	2.0	1.0	1	right	1.0	1.0	1.0	1	0.08	blockFiles/set_44/main_safe/leftBlue\GB_LB_1.xlsx
51	main_safe	True	0.0	400	0	2.0	2.0	0.0	1	left	2.0	1.0	1.0	0	-0.08	blockFiles/set_44/main_safe/leftBlue\GB_LB_1.xlsx
52	main_safe	True	0.0	400	0	2.0	2.0	1.0	1	right	1.0	0.0	1.0	1	0.08	blockFiles/set_44/main_safe/leftBlue\GB_LB_1.xlsx
53	main_safe	True	0.0	400	0	2.0	2.0	0.0	1	left	2.0	1.0	1.0	0	-0.08	blockFiles/set_44/main_safe/leftBlue\GB_LB_1.xlsx
54	main_safe	True	0.0	400	0	2.0	2.0	0.0	1	left	2.0	1.0	1.0	0	-0.08	blockFiles/set_44/main_safe/leftBlue\GB_LB_1.xlsx
55	main_safe	True	0.0	400	0	2.0	2.0	0.0	1	left	2.0	1.0	1.0	0	-0.08	blockFiles/set_44/main_safe/leftBlue\GB_LB_1.xlsx
56	main_safe	True	0.0	400	0	2.0	2.0	1.0	1	right	1.0	0.0	1.0	1	0.08	blockFiles/set_44/main_safe/leftBlue\GB_LB_1.xlsx
57	main_safe	True	0.0	400	0	2.0	2.0	1.0	1	right	1.0	1.0	1.0	1	0.08	blockFiles/set_44/main_safe/leftBlue\GB_LB_1.xlsx
58	main_safe	True	0.0	400	0	2.0	2.0	1.0	1	right	1.0	1.0	1.0	1	0.08	blockFiles/set_44/main_safe/leftBlue\GB_LB_1.xlsx
59	main_safe	True	0.0	400	0	2.0	2.0	1.0	1	right	1.0	1.0	1.0	1	0.08	blockFiles/set_44/main_safe/leftBlue\GB_LB_1.xlsx
60	main_safe	True	0.0	400	0	2.0	2.0	0.0	1	left	2.0	1.0	1.0	0	-0.08	blockFiles/set_44/main_safe/leftBlue\GB_LB_1.xlsx
61	main_safe	True	0.0	400	0	2.0	2.0	1.0	1	right	1.0	1.0	1.0	1	0.08	blockFiles/set_44/main_safe/leftBlue\GB_LB_1.xlsx
62	main_safe	True	0.0	400	0	2.0	2.0	1.0	1	right	1.0	1.0	1.0	1	0.08	blockFiles/set_44/main_safe/leftBlue\GB_LB_1.xlsx
63	main_safe	True	0.0	400	0	2.0	2.0	1.0	1	right	1.0	1.0	1.0	1	0.08	blockFiles/set_44/main_safe/leftBlue\GB_LB_1.xlsx
64	main_safe	True	0.0	400	0	2.0	2.0	0.0	1	left	2.0	1.0	1.0	0	-0.08	blockFiles/set_44/main_safe/leftBlue\GB_LB_1.xlsx
65	main_safe	True	0.0	400	0	2.0	2.0	0.0	1	left	2.0	0.0	1.0	0	-0.08	blockFiles/set_44/main_safe/leftBlue\GB_LB_1.xlsx
66	main_safe	True	0.0	400	0	2.0	2.0	1.0	1	right	1.0	1.0	1.0	1	0.08	blockFiles/set_44/main_safe/leftBlue\GB_LB_1.xlsx
67	main_safe	True	0.0	400	0	2.0	2.0	0.0	1	left	2.0	1.0	1.0	0	-0.08	blockFiles/set_44/main_safe/leftBlue\GB_LB_1.xlsx
68	main_safe	True	0.0	400	0	2.0	2.0	1.0	1	right	1.0	0.0	1.0	1	0.08	blockFiles/set_44/main_safe/leftBlue\GB_LB_1.xlsx
69	main_safe	True	0.0	400	0	2.0	2.0	0.0	1	left	2.0	1.0	1.0	0	-0.08	blockFiles/set_44/main_safe/leftBlue\GB_LB_1.xlsx
70	main_safe	True	0.0	400	0	2.0	2.0	0.0	1	left	2.0	0.0	1.0	0	-0.08	blockFiles/set_44/main_safe/leftBlue\GB_LB_1.xlsx
71	main_safe	True	0.0	400	0	2.0	2.0	1.0	1	right	1.0	1.0	1.0	1	0.08	blockFiles/set_44/main_safe/leftBlue\GB_LB_1.xlsx
72	main_safe	True	0.0	400	0	2.0	2.0	0.0	1	left	2.0	1.0	1.0	0	-0.08	blockFiles/set_44/main_safe/leftBlue\GB_LB_1.xlsx
73	main_safe	True	0.0	400	0	2.0	2.0	1.0	1	right	1.0	1.0	1.0	1	0.08	blockFiles/set_44/main_safe/leftBlue\GB_LB_1.xlsx
74	main_safe	True	0.0	400	0	2.0	2.0	0.0	1	left	2.0	1.0	1.0	0	-0.08	blockFiles/set_44/main_safe/leftBlue\GB_LB_1.xlsx
75	main_safe	True	0.0	400	0	3.0	3.0	1.0	1	right	2.0	1.0	1.0	1	0.08	blockFiles/set_44/main_safe/rightBlue\GB_RB_3.xlsx
76	main_safe	True	0.0	400	0	3.0	3.0	0.0	1	left	1.0	1.0	1.0	0	-0.08	blockFiles/set_44/main_safe/rightBlue\GB_RB_3.xlsx
77	main_safe	True	0.0	400	0	3.0	3.0	1.0	1	right	2.0	1.0	1.0	1	0.08	blockFiles/set_44/main_safe/rightBlue\GB_RB_3.xlsx
78	main_safe	True	0.0	400	0	3.0	3.0	1.0	1	right	2.0	1.0	1.0	1	0.08	blockFiles/set_44/main_safe/rightBlue\GB_RB_3.xlsx
79	main_safe	True	0.0	400	0	3.0	3.0	0.0	1	left	1.0	1.0	1.0	0	-0.08	blockFiles/set_44/main_safe/rightBlue\GB_RB_3.xlsx
80	main_safe	True	0.0	400	0	3.0	3.0	1.0	1	right	2.0	1.0	1.0	1	0.08	blockFiles/set_44/main_safe/rightBlue\GB_RB_3.xlsx
81	main_safe	True	0.0	400	0	3.0	3.0	0.0	1	left	1.0	1.0	1.0	0	-0.08	blockFiles/set_44/main_safe/rightBlue\GB_RB_3.xlsx
82	main_safe	True	0.0	400	0	3.0	3.0	0.0	1	left	1.0	0.0	1.0	0	-0.08	blockFiles/set_44/main_safe/rightBlue\GB_RB_3.xlsx
83	main_safe	True	0.0	400	0	3.0	3.0	0.0	1	left	1.0	1.0	1.0	0	-0.08	blockFiles/set_44/main_safe/rightBlue\GB_RB_3.xlsx
84	main_safe	True	0.0	400	0	3.0	3.0	0.0	1	left	1.0	1.0	1.0	0	-0.08	blockFiles/set_44/main_safe/rightBlue\GB_RB_3.xlsx
85	main_safe	True	0.0	400	0	3.0	3.0	0.0	1	left	1.0	1.0	1.0	0	-0.08	blockFiles/set_44/main_safe/rightBlue\GB_RB_3.xlsx
86	main_safe	True	0.0	400	0	3.0	3.0	0.0	1	left	1.0	1.0	1.0	0	-0.08	blockFiles/set_44/main_safe/rightBlue\GB_RB_3.xlsx
87	main_safe	True	0.0	400	0	3.0	3.0	1.0	1	right	2.0	0.0	1.0	1	0.08	blockFiles/set_44/main_safe/rightBlue\GB_RB_3.xlsx
88	main_safe	True	0.0	400	0	3.0	3.0	1.0	1	right	2.0	1.0	1.0	1	0.08	blockFiles/set_44/main_safe/rightBlue\GB_RB_3.xlsx
89	main_safe	True	0.0	400	0	3.0	3.0	1.0	1	right	2.0	1.0	1.0	1	0.08	blockFiles/set_44/main_safe/rightBlue\GB_RB_3.xlsx
90	main_safe	True	0.0	400	0	3.0	3.0	0.0	1	left	1.0	0.0	1.0	0	-0.08	blockFiles/set_44/main_safe/rightBlue\GB_RB_3.xlsx
91	main_safe	True	0.0	400	0	3.0	3.0	0.0	1	left	1.0	1.0	1.0	0	-0.08	blockFiles/set_44/main_safe/rightBlue\GB_RB_3.xlsx
92	main_safe	True	0.0	400	0	3.0	3.0	1.0	1	right	2.0	1.0	1.0	1	0.08	blockFiles/set_44/main_safe/rightBlue\GB_RB_3.xlsx
93	main_safe	True	0.0	400	0	3.0	3.0	0.0	1	left	1.0	1.0	1.0	0	-0.08	blockFiles/set_44/main_safe/rightBlue\GB_RB_3.xlsx
94	main_safe	True	0.0	400	0	3.0	3.0	0.0	1	left	1.0	1.0	1.0	0	-0.08	blockFiles/set_44/main_safe/rightBlue\GB_RB_3.xlsx
95	main_safe	True	0.0	400	0	3.0	3.0	1.0	1	right	2.0	1.0	1.0	1	0.08	blockFiles/set_44/main_safe/rightBlue\GB_RB_3.xlsx
96	main_safe	True	0.0	400	0	3.0	3.0	1.0	1	right	2.0	1.0	1.0	1	0.08	blockFiles/set_44/main_safe/rightBlue\GB_RB_3.xlsx
97	main_safe	True	0.0	400	0	3.0	3.0	1.0	1	right	2.0	0.0	1.0	1	0.08	blockFiles/set_44/main_safe/rightBlue\GB_RB_3.xlsx
98	main_safe	True	0.0	400	0	3.0	3.0	1.0	1	right	2.0	1.0	1.0	1	0.08	blockFiles/set_44/main_safe/rightBlue\GB_RB_3.xlsx
99	main_safe	True	0.0	400	0	3.0	3.0	0.0	1	left	1.0	1.0	1.0	0	-0.08	blockFiles/set_44/main_safe/rightBlue\GB_RB_3.xlsx
100	main_safe	True	0.0	400	0	4.0	4.0	1.0	1	right	2.0	1.0	1.0	1	0.08	blockFiles/set_44/main_safe/rightBlue\GB_RB_1.xlsx
101	main_safe	True	0.0	400	0	4.0	4.0	0.0	1	left	1.0	0.0	1.0	0	-0.08	blockFiles/set_44/main_safe/rightBlue\GB_RB_1.xlsx
102	main_safe	True	0.0	400	0	4.0	4.0	0.0	1	left	1.0	0.0	1.0	0	-0.08	blockFiles/set_44/main_safe/rightBlue\GB_RB_1.xlsx
103	main_safe	True	0.0	400	0	4.0	4.0	0.0	1	left	2.0	0.0	0.0	0	-0.08	blockFiles/set_44/main_safe/rightBlue\GB_RB_1.xlsx
104	main_safe	True	0.0	400	0	4.0	4.0	0.0	1	left	1.0	1.0	1.0	0	-0.08	blockFiles/set_44/main_safe/rightBlue\GB_RB_1.xlsx
105	main_safe	True	0.0	400	0	4.0	4.0	1.0	1	right	2.0	1.0	1.0	1	0.08	blockFiles/set_44/main_safe/rightBlue\GB_RB_1.xlsx
106	main_safe	True	0.0	400	0	4.0	4.0	0.0	1	left	1.0	1.0	1.0	0	-0.08	blockFiles/set_44/main_safe/rightBlue\GB_RB_1.xlsx
107	main_safe	True	0.0	400	0	4.0	4.0	1.0	1	right	2.0	0.0	1.0	1	0.08	blockFiles/set_44/main_safe/rightBlue\GB_RB_1.xlsx
108	main_safe	True	0.0	400	0	4.0	4.0	0.0	0	left	2.0	1.0	1.0	1	0.08	blockFiles/set_44/main_safe/rightBlue\GB_RB_1.xlsx
109	main_safe	True	0.0	400	0	4.0	4.0	0.0	0	left	2.0	0.0	1.0	1	0.08	blockFiles/set_44/main_safe/rightBlue\GB_RB_1.xlsx
110	main_safe	True	0.0	400	0	4.0	4.0	1.0	1	right	2.0	1.0	1.0	1	0.08	blockFiles/set_44/main_safe/rightBlue\GB_RB_1.xlsx
111	main_safe	True	0.0	400	0	4.0	4.0	1.0	1	right	2.0	1.0	1.0	1	0.08	blockFiles/set_44/main_safe/rightBlue\GB_RB_1.xlsx
112	main_safe	True	0.0	400	0	4.0	4.0	1.0	1	right	2.0	1.0	1.0	1	0.08	blockFiles/set_44/main_safe/rightBlue\GB_RB_1.xlsx
113	main_safe	True	0.0	400	0	4.0	4.0	0.0	1	left	1.0	0.0	1.0	0	-0.08	blockFiles/set_44/main_safe/rightBlue\GB_RB_1.xlsx
114	main_safe	True	0.0	400	0	4.0	4.0	0.0	1	left	1.0	1.0	1.0	0	-0.08	blockFiles/set_44/main_safe/rightBlue\GB_RB_1.xlsx
115	main_safe	True	0.0	400	0	4.0	4.0	0.0	1	left	1.0	1.0	1.0	0	-0.08	blockFiles/set_44/main_safe/rightBlue\GB_RB_1.xlsx
116	main_safe	True	0.0	400	0	4.0	4.0	0.0	1	left	1.0	1.0	1.0	0	-0.08	blockFiles/set_44/main_safe/rightBlue\GB_RB_1.xlsx
117	main_safe	True	0.0	400	0	4.0	4.0	0.0	1	left	1.0	1.0	1.0	0	-0.08	blockFiles/set_44/main_safe/rightBlue\GB_RB_1.xlsx
118	main_safe	True	0.0	400	0	4.0	4.0	0.0	1	left	1.0	1.0	1.0	0	-0.08	blockFiles/set_44/main_safe/rightBlue\GB_RB_1.xlsx
119	main_safe	True	0.0	400	0	4.0	4.0	1.0	1	right	2.0	1.0	1.0	1	0.08	blockFiles/set_44/main_safe/rightBlue\GB_RB_1.xlsx
120	main_safe	True	0.0	400	0	4.0	4.0	1.0	1	right	2.0	1.0	1.0	1	0.08	blockFiles/set_44/main_safe/rightBlue\GB_RB_1.xlsx
121	main_safe	True	0.0	400	0	4.0	4.0	0.0	1	left	1.0	1.0	1.0	0	-0.08	blockFiles/set_44/main_safe/rightBlue\GB_RB_1.xlsx
122	main_safe	True	0.0	400	0	4.0	4.0	0.0	1	left	1.0	1.0	1.0	0	-0.08	blockFiles/set_44/main_safe/rightBlue\GB_RB_1.xlsx
123	main_safe	True	0.0	400	0	4.0	4.0	1.0	1	right	2.0	1.0	1.0	1	0.08	blockFiles/set_44/main_safe/rightBlue\GB_RB_1.xlsx
124	main_safe	True	0.0	400	0	4.0	4.0	0.0	1	left	1.0	1.0	1.0	0	-0.08	blockFiles/set_44/main_safe/rightBlue\GB_RB_1.xlsx
125	main_safe	True	0.0	400	0	5.0	5.0	0.0	1	left	1.0	1.0	0.0	0	-0.08	blockFiles/set_44/main_safe/leftBlue\GB_LB_2.xlsx
126	main_safe	True	0.0	400	0	5.0	5.0	0.0	1	left	1.0	0.0	0.0	0	-0.08	blockFiles/set_44/main_safe/leftBlue\GB_LB_2.xlsx
127	main_safe	True	0.0	400	0	5.0	5.0	0.0	1	left	1.0	0.0	0.0	0	-0.08	blockFiles/set_44/main_safe/leftBlue\GB_LB_2.xlsx
128	main_safe	True	0.0	400	0	5.0	5.0	1.0	1	right	1.0	1.0	1.0	1	0.08	blockFiles/set_44/main_safe/leftBlue\GB_LB_2.xlsx
129	main_safe	True	0.0	400	0	5.0	5.0	1.0	1	right	1.0	1.0	1.0	1	0.08	blockFiles/set_44/main_safe/leftBlue\GB_LB_2.xlsx
130	main_safe	True	0.0	400	0	5.0	5.0	1.0	1	right	1.0	1.0	1.0	1	0.08	blockFiles/set_44/main_safe/leftBlue\GB_LB_2.xlsx
131	main_safe	True	0.0	400	0	5.0	5.0	1.0	1	right	1.0	1.0	1.0	1	0.08	blockFiles/set_44/main_safe/leftBlue\GB_LB_2.xlsx
132	main_safe	True	0.0	400	0	5.0	5.0	0.0	1	left	2.0	1.0	1.0	0	-0.08	blockFiles/set_44/main_safe/leftBlue\GB_LB_2.xlsx
133	main_safe	True	0.0	400	0	5.0	5.0	0.0	1	left	2.0	1.0	1.0	0	-0.08	blockFiles/set_44/main_safe/leftBlue\GB_LB_2.xlsx
134	main_safe	True	0.0	400	0	5.0	5.0	1.0	1	right	1.0	1.0	1.0	1	0.08	blockFiles/set_44/main_safe/leftBlue\GB_LB_2.xlsx
135	main_safe	True	0.0	400	0	5.0	5.0	0.0	1	left	2.0	1.0	1.0	0	-0.08	blockFiles/set_44/main_safe/leftBlue\GB_LB_2.xlsx
136	main_safe	True	0.0	400	0	5.0	5.0	1.0	1	right	1.0	1.0	1.0	1	0.08	blockFiles/set_44/main_safe/leftBlue\GB_LB_2.xlsx
137	main_safe	True	0.0	400	0	5.0	5.0	1.0	1	right	1.0	1.0	1.0	1	0.08	blockFiles/set_44/main_safe/leftBlue\GB_LB_2.xlsx
138	main_safe	True	0.0	400	0	5.0	5.0	0.0	1	left	2.0	1.0	1.0	0	-0.08	blockFiles/set_44/main_safe/leftBlue\GB_LB_2.xlsx
139	main_safe	True	0.0	400	0	5.0	5.0	1.0	1	right	1.0	1.0	1.0	1	0.08	blockFiles/set_44/main_safe/leftBlue\GB_LB_2.xlsx
140	main_safe	True	0.0	400	0	5.0	5.0	1.0	1	right	1.0	1.0	1.0	1	0.08	blockFiles/set_44/main_safe/leftBlue\GB_LB_2.xlsx
141	main_safe	True	0.0	400	0	5.0	5.0	0.0	1	left	2.0	1.0	1.0	0	-0.08	blockFiles/set_44/main_safe/leftBlue\GB_LB_2.xlsx
142	main_safe	True	0.0	400	0	5.0	5.0	0.0	1	left	2.0	0.0	1.0	0	-0.08	blockFiles/set_44/main_safe/leftBlue\GB_LB_2.xlsx
143	main_safe	True	0.0	400	0	5.0	5.0	0.0	1	left	2.0	1.0	1.0	0	-0.08	blockFiles/set_44/main_safe/leftBlue\GB_LB_2.xlsx
144	main_safe	True	0.0	400	0	5.0	5.0	0.0	1	left	2.0	1.0	1.0	0	-0.08	blockFiles/set_44/main_safe/leftBlue\GB_LB_2.xlsx
145	main_safe	True	0.0	400	0	5.0	5.0	1.0	1	right	1.0	0.0	1.0	1	0.08	blockFiles/set_44/main_safe/leftBlue\GB_LB_2.xlsx
146	main_safe	True	0.0	400	0	5.0	5.0	1.0	1	right	1.0	1.0	1.0	1	0.08	blockFiles/set_44/main_safe/leftBlue\GB_LB_2.xlsx
147	main_safe	True	0.0	400	0	5.0	5.0	0.0	1	left	2.0	0.0	1.0	0	-0.08	blockFiles/set_44/main_safe/leftBlue\GB_LB_2.xlsx
148	main_safe	True	0.0	400	0	5.0	5.0	1.0	1	right	1.0	1.0	1.0	1	0.08	blockFiles/set_44/main_safe/leftBlue\GB_LB_2.xlsx
149	main_safe	True	0.0	400	0	5.0	5.0	0.0	1	left	2.0	1.0	1.0	0	-0.08	blockFiles/set_44/main_safe/leftBlue\GB_LB_2.xlsx
150	patches	True	n/a	400	0	n/a	n/a	0.0	0	left	n/a	n/a	n/a	1	0.024803637657300003	blockFiles/set_44/main_PD/GB_runPatches1.xlsx
151	patches	True	n/a	400	0	n/a	n/a	0.0	1	left	n/a	n/a	n/a	0	-0.0574603832699	blockFiles/set_44/main_PD/GB_runPatches1.xlsx
152	patches	True	n/a	400	0	n/a	n/a	1.0	0	right	n/a	n/a	n/a	0	-0.00535310525447	blockFiles/set_44/main_PD/GB_runPatches1.xlsx
153	patches	True	n/a	400	0	n/a	n/a	1.0	1	right	n/a	n/a	n/a	1	0.0632063756511	blockFiles/set_44/main_PD/GB_runPatches1.xlsx
154	patches	True	n/a	400	0	n/a	n/a	0.0	1	left	n/a	n/a	n/a	0	-0.0724547950365	blockFiles/set_44/main_PD/GB_runPatches1.xlsx
155	patches	True	n/a	400	0	n/a	n/a	0.0	1	left	n/a	n/a	n/a	0	-0.031468597184900006	blockFiles/set_44/main_PD/GB_runPatches1.xlsx
156	patches	True	n/a	400	0	n/a	n/a	1.0	1	right	n/a	n/a	n/a	1	0.0709748074412	blockFiles/set_44/main_PD/GB_runPatches1.xlsx
157	patches	True	n/a	400	0	n/a	n/a	1.0	1	right	n/a	n/a	n/a	1	0.0021158968471	blockFiles/set_44/main_PD/GB_runPatches1.xlsx
158	patches	True	n/a	400	0	n/a	n/a	1.0	1	right	n/a	n/a	n/a	1	0.0498142026179	blockFiles/set_44/main_PD/GB_runPatches1.xlsx
159	patches	True	n/a	400	0	n/a	n/a	0.0	1	left	n/a	n/a	n/a	0	-0.0625772759691	blockFiles/set_44/main_PD/GB_runPatches1.xlsx
160	patches	True	n/a	400	0	n/a	n/a	0.0	0	left	n/a	n/a	n/a	1	0.024561894573300002	blockFiles/set_44/main_PD/GB_runPatches1.xlsx
161	patches	True	n/a	400	0	n/a	n/a	0.0	0	left	n/a	n/a	n/a	1	0.0011997153051199999	blockFiles/set_44/main_PD/GB_runPatches1.xlsx
162	patches	True	n/a	400	0	n/a	n/a	0.0	0	left	n/a	n/a	n/a	1	0.0461409272999	blockFiles/set_44/main_PD/GB_runPatches1.xlsx
163	patches	True	n/a	400	0	n/a	n/a	0.0	1	left	n/a	n/a	n/a	0	-0.012711617294700002	blockFiles/set_44/main_PD/GB_runPatches1.xlsx
164	patches	True	n/a	400	0	n/a	n/a	0.0	1	left	n/a	n/a	n/a	0	-0.074013123177	blockFiles/set_44/main_PD/GB_runPatches1.xlsx
165	patches	True	n/a	400	0	n/a	n/a	0.0	1	left	n/a	n/a	n/a	0	-0.06343826090919999	blockFiles/set_44/main_PD/GB_runPatches1.xlsx
166	patches	True	n/a	400	0	n/a	n/a	0.0	1	left	n/a	n/a	n/a	0	-0.0439043149911	blockFiles/set_44/main_PD/GB_runPatches1.xlsx
167	patches	True	n/a	400	0	n/a	n/a	0.0	1	left	n/a	n/a	n/a	0	-0.0623995308392	blockFiles/set_44/main_PD/GB_runPatches1.xlsx
168	patches	True	n/a	400	0	n/a	n/a	1.0	1	right	n/a	n/a	n/a	1	0.019896843712799997	blockFiles/set_44/main_PD/GB_runPatches1.xlsx
169	patches	True	n/a	400	0	n/a	n/a	1.0	1	right	n/a	n/a	n/a	1	0.032733245808599994	blockFiles/set_44/main_PD/GB_runPatches1.xlsx
170	patches	True	n/a	400	0	n/a	n/a	0.0	1	left	n/a	n/a	n/a	0	-0.00555333066732	blockFiles/set_44/main_PD/GB_runPatches1.xlsx
171	patches	True	n/a	400	0	n/a	n/a	0.0	1	left	n/a	n/a	n/a	0	-0.0329811347462	blockFiles/set_44/main_PD/GB_runPatches1.xlsx
172	patches	True	n/a	400	0	n/a	n/a	1.0	1	right	n/a	n/a	n/a	1	0.044145258907199995	blockFiles/set_44/main_PD/GB_runPatches1.xlsx
173	patches	True	n/a	400	0	n/a	n/a	1.0	1	right	n/a	n/a	n/a	1	0.0569901518151	blockFiles/set_44/main_PD/GB_runPatches1.xlsx
174	patches	True	n/a	400	0	n/a	n/a	1.0	1	right	n/a	n/a	n/a	1	0.0751116789505	blockFiles/set_44/main_PD/GB_runPatches1.xlsx
175	patches	True	n/a	400	0	n/a	n/a	1.0	1	right	n/a	n/a	n/a	1	0.0260733965226	blockFiles/set_44/main_PD/GB_runPatches1.xlsx
176	patches	True	n/a	400	0	n/a	n/a	1.0	1	right	n/a	n/a	n/a	1	0.06118955818940001	blockFiles/set_44/main_PD/GB_runPatches1.xlsx
177	patches	True	n/a	400	0	n/a	n/a	0.0	1	left	n/a	n/a	n/a	0	-0.0582204421237	blockFiles/set_44/main_PD/GB_runPatches1.xlsx
178	patches	True	n/a	400	0	n/a	n/a	0.0	0	left	n/a	n/a	n/a	1	0.00601852836087	blockFiles/set_44/main_PD/GB_runPatches1.xlsx
179	patches	True	n/a	400	0	n/a	n/a	0.0	0	left	n/a	n/a	n/a	1	0.007438343297689999	blockFiles/set_44/main_PD/GB_runPatches1.xlsx
180	patches	True	n/a	400	0	n/a	n/a	0.0	1	left	n/a	n/a	n/a	0	-0.0542226468958	blockFiles/set_44/main_PD/GB_runPatches1.xlsx
181	patches	True	n/a	400	0	n/a	n/a	0.0	1	left	n/a	n/a	n/a	0	-0.07308422509580001	blockFiles/set_44/main_PD/GB_runPatches1.xlsx
182	patches	True	n/a	400	0	n/a	n/a	1.0	1	right	n/a	n/a	n/a	1	0.0559535751119	blockFiles/set_44/main_PD/GB_runPatches1.xlsx
183	patches	True	n/a	400	0	n/a	n/a	0.0	1	left	n/a	n/a	n/a	0	-0.00235345052555	blockFiles/set_44/main_PD/GB_runPatches1.xlsx
184	patches	True	n/a	400	0	n/a	n/a	0.0	0	left	n/a	n/a	n/a	1	0.0408830399439	blockFiles/set_44/main_PD/GB_runPatches1.xlsx
185	patches	True	n/a	400	0	n/a	n/a	0.0	1	left	n/a	n/a	n/a	0	-0.0522145833634	blockFiles/set_44/main_PD/GB_runPatches1.xlsx
186	patches	True	n/a	400	0	n/a	n/a	1.0	0	right	n/a	n/a	n/a	0	-0.00249679110944	blockFiles/set_44/main_PD/GB_runPatches1.xlsx
187	patches	True	n/a	400	0	n/a	n/a	0.0	0	left	n/a	n/a	n/a	1	0.062371850982300005	blockFiles/set_44/main_PD/GB_runPatches1.xlsx
188	patches	True	n/a	400	0	n/a	n/a	1.0	1	right	n/a	n/a	n/a	1	0.07037582691760001	blockFiles/set_44/main_PD/GB_runPatches1.xlsx
189	patches	True	n/a	400	0	n/a	n/a	0.0	1	left	n/a	n/a	n/a	0	-0.0332997653447	blockFiles/set_44/main_PD/GB_runPatches1.xlsx
190	patches	True	n/a	400	0	n/a	n/a	1.0	1	right	n/a	n/a	n/a	1	0.06419432483609999	blockFiles/set_44/main_PD/GB_runPatches1.xlsx
191	patches	True	n/a	400	0	n/a	n/a	1.0	1	right	n/a	n/a	n/a	1	0.0606664332189	blockFiles/set_44/main_PD/GB_runPatches1.xlsx
192	patches	True	n/a	400	0	n/a	n/a	1.0	1	right	n/a	n/a	n/a	1	0.035946935880900005	blockFiles/set_44/main_PD/GB_runPatches1.xlsx
193	patches	True	n/a	400	0	n/a	n/a	0.0	1	left	n/a	n/a	n/a	0	-0.0288983920775	blockFiles/set_44/main_PD/GB_runPatches1.xlsx
194	patches	True	n/a	400	0	n/a	n/a	0.0	1	left	n/a	n/a	n/a	0	-0.013836528156	blockFiles/set_44/main_PD/GB_runPatches1.xlsx
195	patches	True	n/a	400	0	n/a	n/a	0.0	1	left	n/a	n/a	n/a	0	-0.0639122487977	blockFiles/set_44/main_PD/GB_runPatches1.xlsx
196	patches	True	n/a	400	0	n/a	n/a	1.0	1	right	n/a	n/a	n/a	1	0.014642748162200002	blockFiles/set_44/main_PD/GB_runPatches1.xlsx
197	patches	True	n/a	400	0	n/a	n/a	0.0	0	left	n/a	n/a	n/a	1	0.021421322952999998	blockFiles/set_44/main_PD/GB_runPatches1.xlsx
198	patches	True	n/a	400	0	n/a	n/a	0.0	1	left	n/a	n/a	n/a	0	-0.0288364679739	blockFiles/set_44/main_PD/GB_runPatches1.xlsx
199	patches	True	n/a	400	0	n/a	n/a	1.0	1	right	n/a	n/a	n/a	1	0.0614213196374	blockFiles/set_44/main_PD/GB_runPatches1.xlsx
200	patches	True	n/a	400	0	n/a	n/a	1.0	0	right	n/a	n/a	n/a	0	-0.026281653773	blockFiles/set_44/main_PD/GB_runPatches1.xlsx
201	patches	True	n/a	400	0	n/a	n/a	1.0	1	right	n/a	n/a	n/a	1	0.0400451172888	blockFiles/set_44/main_PD/GB_runPatches1.xlsx
202	patches	True	n/a	400	0	n/a	n/a	1.0	1	right	n/a	n/a	n/a	1	0.0683321391791	blockFiles/set_44/main_PD/GB_runPatches1.xlsx
203	patches	True	n/a	400	0	n/a	n/a	1.0	1	right	n/a	n/a	n/a	1	0.022042157873499998	blockFiles/set_44/main_PD/GB_runPatches1.xlsx
204	patches	True	n/a	400	0	n/a	n/a	1.0	0	right	n/a	n/a	n/a	0	-0.0576533078216	blockFiles/set_44/main_PD/GB_runPatches1.xlsx
205	patches	True	n/a	400	0	n/a	n/a	0.0	1	left	n/a	n/a	n/a	0	-0.00489876041189	blockFiles/set_44/main_PD/GB_runPatches1.xlsx
206	patches	True	n/a	400	0	n/a	n/a	0.0	1	left	n/a	n/a	n/a	0	-0.042976224739100004	blockFiles/set_44/main_PD/GB_runPatches1.xlsx
207	patches	True	n/a	400	0	n/a	n/a	0.0	0	left	n/a	n/a	n/a	1	0.047612069211900004	blockFiles/set_44/main_PD/GB_runPatches1.xlsx
208	patches	True	n/a	400	0	n/a	n/a	0.0	0	left	n/a	n/a	n/a	1	0.031180188637200002	blockFiles/set_44/main_PD/GB_runPatches1.xlsx
209	patches	True	n/a	400	0	n/a	n/a	0.0	0	left	n/a	n/a	n/a	1	0.0115974025615	blockFiles/set_44/main_PD/GB_runPatches1.xlsx
210	patches	True	n/a	400	0	n/a	n/a	1.0	1	right	n/a	n/a	n/a	1	0.074917461779	blockFiles/set_44/main_PD/GB_runPatches1.xlsx
211	patches	True	n/a	400	0	n/a	n/a	0.0	1	left	n/a	n/a	n/a	0	-0.053536570090800005	blockFiles/set_44/main_PD/GB_runPatches1.xlsx
212	patches	True	n/a	400	0	n/a	n/a	0.0	1	left	n/a	n/a	n/a	0	-0.06603916723280001	blockFiles/set_44/main_PD/GB_runPatches1.xlsx
213	patches	True	n/a	400	0	n/a	n/a	1.0	0	right	n/a	n/a	n/a	0	-0.0145921020582	blockFiles/set_44/main_PD/GB_runPatches1.xlsx
214	patches	True	n/a	400	0	n/a	n/a	0.0	1	left	n/a	n/a	n/a	0	-0.0533538380265	blockFiles/set_44/main_PD/GB_runPatches1.xlsx
215	patches	True	n/a	400	0	n/a	n/a	0.0	0	left	n/a	n/a	n/a	1	0.000325911976397	blockFiles/set_44/main_PD/GB_runPatches1.xlsx
216	patches	True	n/a	400	0	n/a	n/a	0.0	0	left	n/a	n/a	n/a	1	0.027196625117200002	blockFiles/set_44/main_PD/GB_runPatches1.xlsx
217	patches	True	n/a	400	0	n/a	n/a	0.0	1	left	n/a	n/a	n/a	0	-0.05021362300959999	blockFiles/set_44/main_PD/GB_runPatches1.xlsx
218	patches	True	n/a	400	0	n/a	n/a	0.0	1	left	n/a	n/a	n/a	0	-0.0313351831026	blockFiles/set_44/main_PD/GB_runPatches1.xlsx
219	patches	True	n/a	400	0	n/a	n/a	1.0	1	right	n/a	n/a	n/a	1	0.0209982617386	blockFiles/set_44/main_PD/GB_runPatches1.xlsx
220	patches	True	n/a	400	0	n/a	n/a	0.0	0	left	n/a	n/a	n/a	1	0.07524170612919999	blockFiles/set_44/main_PD/GB_runPatches1.xlsx
221	patches	True	n/a	400	0	n/a	n/a	0.0	0	left	n/a	n/a	n/a	1	0.00740851502866	blockFiles/set_44/main_PD/GB_runPatches1.xlsx
222	patches	True	n/a	400	0	n/a	n/a	0.0	1	left	n/a	n/a	n/a	0	-0.0461065690592	blockFiles/set_44/main_PD/GB_runPatches1.xlsx
223	patches	True	n/a	400	0	n/a	n/a	1.0	1	right	n/a	n/a	n/a	1	0.07405749548229999	blockFiles/set_44/main_PD/GB_runPatches1.xlsx
224	patches	True	n/a	400	0	n/a	n/a	0.0	0	left	n/a	n/a	n/a	1	0.019716375824099998	blockFiles/set_44/main_PD/GB_runPatches1.xlsx
225	patches	True	n/a	400	0	n/a	n/a	0.0	1	left	n/a	n/a	n/a	0	-0.0627060289122	blockFiles/set_44/main_PD/GB_runPatches1.xlsx
226	patches	True	n/a	400	0	n/a	n/a	0.0	1	left	n/a	n/a	n/a	0	-0.0457530433871	blockFiles/set_44/main_PD/GB_runPatches1.xlsx
227	patches	True	n/a	400	0	n/a	n/a	0.0	0	left	n/a	n/a	n/a	1	0.044114111177599995	blockFiles/set_44/main_PD/GB_runPatches1.xlsx
228	patches	True	n/a	400	0	n/a	n/a	1.0	1	right	n/a	n/a	n/a	1	0.053483345788	blockFiles/set_44/main_PD/GB_runPatches1.xlsx
229	patches	True	n/a	400	0	n/a	n/a	0.0	1	left	n/a	n/a	n/a	0	-0.0100664505921	blockFiles/set_44/main_PD/GB_runPatches1.xlsx
230	patches	True	n/a	400	0	n/a	n/a	0.0	1	left	n/a	n/a	n/a	0	-0.0401980369724	blockFiles/set_44/main_PD/GB_runPatches1.xlsx
231	patches	True	n/a	400	0	n/a	n/a	1.0	1	right	n/a	n/a	n/a	1	0.07073199233039999	blockFiles/set_44/main_PD/GB_runPatches1.xlsx
232	patches	True	n/a	400	0	n/a	n/a	1.0	1	right	n/a	n/a	n/a	1	0.057103229221	blockFiles/set_44/main_PD/GB_runPatches1.xlsx
233	patches	True	n/a	400	0	n/a	n/a	0.0	1	left	n/a	n/a	n/a	0	-0.058707262761900005	blockFiles/set_44/main_PD/GB_runPatches1.xlsx
234	patches	True	n/a	400	0	n/a	n/a	1.0	1	right	n/a	n/a	n/a	1	0.0563883825578	blockFiles/set_44/main_PD/GB_runPatches1.xlsx
235	patches	True	n/a	400	0	n/a	n/a	0.0	1	left	n/a	n/a	n/a	0	-0.00616817902774	blockFiles/set_44/main_PD/GB_runPatches1.xlsx
236	patches	True	n/a	400	0	n/a	n/a	0.0	1	left	n/a	n/a	n/a	0	-0.0586279569194	blockFiles/set_44/main_PD/GB_runPatches1.xlsx
237	patches	True	n/a	400	0	n/a	n/a	1.0	0	right	n/a	n/a	n/a	0	-0.0036656819284	blockFiles/set_44/main_PD/GB_runPatches1.xlsx
238	patches	True	n/a	400	0	n/a	n/a	1.0	1	right	n/a	n/a	n/a	1	0.0544078256376	blockFiles/set_44/main_PD/GB_runPatches1.xlsx
239	patches	True	n/a	400	0	n/a	n/a	0.0	1	left	n/a	n/a	n/a	0	-0.0188473285735	blockFiles/set_44/main_PD/GB_runPatches1.xlsx
240	patches	True	n/a	400	0	n/a	n/a	1.0	1	right	n/a	n/a	n/a	1	0.07002769086510001	blockFiles/set_44/main_PD/GB_runPatches1.xlsx
241	patches	True	n/a	400	0	n/a	n/a	0.0	1	left	n/a	n/a	n/a	0	-0.0274245954677	blockFiles/set_44/main_PD/GB_runPatches1.xlsx
242	patches	True	n/a	400	0	n/a	n/a	0.0	1	left	n/a	n/a	n/a	0	-0.0712543817982	blockFiles/set_44/main_PD/GB_runPatches1.xlsx
243	patches	True	n/a	400	0	n/a	n/a	0.0	1	left	n/a	n/a	n/a	0	-0.0719893292896	blockFiles/set_44/main_PD/GB_runPatches1.xlsx
244	patches	True	n/a	400	0	n/a	n/a	0.0	1	left	n/a	n/a	n/a	0	-0.07404079191389999	blockFiles/set_44/main_PD/GB_runPatches1.xlsx
245	patches	True	n/a	400	0	n/a	n/a	0.0	1	left	n/a	n/a	n/a	0	-0.00395827850327	blockFiles/set_44/main_PD/GB_runPatches1.xlsx
246	patches	True	n/a	400	0	n/a	n/a	1.0	1	right	n/a	n/a	n/a	1	0.0593408499472	blockFiles/set_44/main_PD/GB_runPatches1.xlsx
247	patches	True	n/a	400	0	n/a	n/a	0.0	1	left	n/a	n/a	n/a	0	-0.015349857900300001	blockFiles/set_44/main_PD/GB_runPatches1.xlsx
248	patches	True	n/a	400	0	n/a	n/a	0.0	1	left	n/a	n/a	n/a	0	-0.037263395320599996	blockFiles/set_44/main_PD/GB_runPatches1.xlsx
249	patches	True	n/a	400	0	n/a	n/a	1.0	1	right	n/a	n/a	n/a	1	0.0604748427309	blockFiles/set_44/main_PD/GB_runPatches1.xlsx
250	main_unc	True	0.0	400	0	0.0	0.0	1.0	1	right	1.0	1.0	1.0	1	0.0480093153194	blockFiles/set_44/main_unc/leftBlue\GB_LB_1.xlsx
251	main_unc	True	0.0	400	0	0.0	0.0	0.0	1	left	2.0	1.0	1.0	0	-0.0667020707205	blockFiles/set_44/main_unc/leftBlue\GB_LB_1.xlsx
252	main_unc	True	0.0	400	0	0.0	0.0	1.0	1	right	1.0	1.0	1.0	1	0.038374050203699994	blockFiles/set_44/main_unc/leftBlue\GB_LB_1.xlsx
253	main_unc	True	0.0	400	0	0.0	0.0	0.0	0	left	1.0	1.0	1.0	1	0.00043605070561200004	blockFiles/set_44/main_unc/leftBlue\GB_LB_1.xlsx
254	main_unc	True	0.0	400	0	0.0	0.0	0.0	1	left	2.0	1.0	1.0	0	-0.051766393426800006	blockFiles/set_44/main_unc/leftBlue\GB_LB_1.xlsx
255	main_unc	True	0.0	400	0	0.0	0.0	0.0	1	left	2.0	1.0	1.0	0	-0.051363554727300004	blockFiles/set_44/main_unc/leftBlue\GB_LB_1.xlsx
256	main_unc	True	0.0	400	0	0.0	0.0	0.0	1	left	2.0	0.0	1.0	0	-0.0569126518629	blockFiles/set_44/main_unc/leftBlue\GB_LB_1.xlsx
257	main_unc	True	0.0	400	0	0.0	0.0	1.0	1	right	1.0	1.0	1.0	1	0.0637970433198	blockFiles/set_44/main_unc/leftBlue\GB_LB_1.xlsx
258	main_unc	True	0.0	400	0	0.0	0.0	0.0	0	left	1.0	1.0	1.0	1	0.009909365158530001	blockFiles/set_44/main_unc/leftBlue\GB_LB_1.xlsx
259	main_unc	True	0.0	400	0	0.0	0.0	0.0	1	left	1.0	1.0	0.0	0	-0.01674729608	blockFiles/set_44/main_unc/leftBlue\GB_LB_1.xlsx
260	main_unc	True	0.0	400	0	0.0	0.0	1.0	1	right	1.0	1.0	1.0	1	0.0665554724261	blockFiles/set_44/main_unc/leftBlue\GB_LB_1.xlsx
261	main_unc	True	0.0	400	0	0.0	0.0	0.0	1	left	1.0	0.0	0.0	0	-0.033067449200900004	blockFiles/set_44/main_unc/leftBlue\GB_LB_1.xlsx
262	main_unc	True	0.0	400	0	0.0	0.0	0.0	1	left	2.0	1.0	1.0	0	-0.0625880406238	blockFiles/set_44/main_unc/leftBlue\GB_LB_1.xlsx
263	main_unc	True	0.0	400	0	0.0	0.0	1.0	1	right	1.0	1.0	1.0	1	0.0032508534006799998	blockFiles/set_44/main_unc/leftBlue\GB_LB_1.xlsx
264	main_unc	True	0.0	400	0	0.0	0.0	0.0	0	left	2.0	0.0	0.0	1	0.00828489929438	blockFiles/set_44/main_unc/leftBlue\GB_LB_1.xlsx
265	main_unc	True	0.0	400	0	0.0	0.0	1.0	1	right	1.0	1.0	1.0	1	0.040755452401900004	blockFiles/set_44/main_unc/leftBlue\GB_LB_1.xlsx
266	main_unc	True	0.0	400	0	0.0	0.0	1.0	1	right	1.0	0.0	1.0	1	0.047611864190499995	blockFiles/set_44/main_unc/leftBlue\GB_LB_1.xlsx
267	main_unc	True	0.0	400	0	0.0	0.0	0.0	1	left	2.0	1.0	1.0	0	-0.043277925513699994	blockFiles/set_44/main_unc/leftBlue\GB_LB_1.xlsx
268	main_unc	True	0.0	400	0	0.0	0.0	0.0	1	left	2.0	1.0	1.0	0	-0.0516055210494	blockFiles/set_44/main_unc/leftBlue\GB_LB_1.xlsx
269	main_unc	True	0.0	400	0	0.0	0.0	0.0	1	left	2.0	1.0	1.0	0	-0.0383825613558	blockFiles/set_44/main_unc/leftBlue\GB_LB_1.xlsx
270	main_unc	True	0.0	400	0	0.0	0.0	1.0	1	right	1.0	1.0	1.0	1	0.0152291149646	blockFiles/set_44/main_unc/leftBlue\GB_LB_1.xlsx
271	main_unc	True	0.0	400	0	0.0	0.0	0.0	1	left	2.0	0.0	1.0	0	-0.060612325947699996	blockFiles/set_44/main_unc/leftBlue\GB_LB_1.xlsx
272	main_unc	True	0.0	400	0	0.0	0.0	0.0	1	left	2.0	1.0	1.0	0	-0.0129527912475	blockFiles/set_44/main_unc/leftBlue\GB_LB_1.xlsx
273	main_unc	True	0.0	400	0	0.0	0.0	0.0	1	left	2.0	0.0	1.0	0	-0.0760519679077	blockFiles/set_44/main_unc/leftBlue\GB_LB_1.xlsx
274	main_unc	True	0.0	400	0	0.0	0.0	0.0	1	left	2.0	1.0	1.0	0	-0.055427072867800006	blockFiles/set_44/main_unc/leftBlue\GB_LB_1.xlsx
275	main_unc	True	0.0	400	0	1.0	1.0	0.0	1	left	2.0	1.0	0.0	0	-0.068236668501	blockFiles/set_44/main_unc/rightBlue\GB_RB_5.xlsx
276	main_unc	True	0.0	400	0	1.0	1.0	1.0	0	right	2.0	0.0	0.0	0	-0.0432553111762	blockFiles/set_44/main_unc/rightBlue\GB_RB_5.xlsx
277	main_unc	True	0.0	400	0	1.0	1.0	1.0	1	right	1.0	0.0	0.0	1	0.0032320832088600002	blockFiles/set_44/main_unc/rightBlue\GB_RB_5.xlsx
278	main_unc	True	0.0	400	0	1.0	1.0	1.0	1	right	2.0	1.0	1.0	1	0.0332075250149	blockFiles/set_44/main_unc/rightBlue\GB_RB_5.xlsx
279	main_unc	True	0.0	400	0	1.0	1.0	1.0	1	right	2.0	1.0	1.0	1	0.0660821067728	blockFiles/set_44/main_unc/rightBlue\GB_RB_5.xlsx
280	main_unc	True	0.0	400	0	1.0	1.0	1.0	1	right	2.0	1.0	1.0	1	0.07571852480989999	blockFiles/set_44/main_unc/rightBlue\GB_RB_5.xlsx
281	main_unc	True	0.0	400	0	1.0	1.0	1.0	0	right	2.0	0.0	0.0	0	-0.0022473528794899997	blockFiles/set_44/main_unc/rightBlue\GB_RB_5.xlsx
282	main_unc	True	0.0	400	0	1.0	1.0	0.0	1	left	1.0	1.0	1.0	0	-0.07706693986430001	blockFiles/set_44/main_unc/rightBlue\GB_RB_5.xlsx
283	main_unc	True	0.0	400	0	1.0	1.0	0.0	1	left	1.0	0.0	1.0	0	-0.022098932582900004	blockFiles/set_44/main_unc/rightBlue\GB_RB_5.xlsx
284	main_unc	True	0.0	400	0	1.0	1.0	1.0	1	right	2.0	1.0	1.0	1	0.0704724989645	blockFiles/set_44/main_unc/rightBlue\GB_RB_5.xlsx
285	main_unc	True	0.0	400	0	1.0	1.0	1.0	0	right	2.0	0.0	0.0	0	-0.00166441885754	blockFiles/set_44/main_unc/rightBlue\GB_RB_5.xlsx
286	main_unc	True	0.0	400	0	1.0	1.0	1.0	1	right	2.0	1.0	1.0	1	0.0529820872657	blockFiles/set_44/main_unc/rightBlue\GB_RB_5.xlsx
287	main_unc	True	0.0	400	0	1.0	1.0	0.0	0	left	2.0	1.0	1.0	1	0.0348329177313	blockFiles/set_44/main_unc/rightBlue\GB_RB_5.xlsx
288	main_unc	True	0.0	400	0	1.0	1.0	0.0	1	left	1.0	1.0	1.0	0	-0.0369923286699	blockFiles/set_44/main_unc/rightBlue\GB_RB_5.xlsx
289	main_unc	True	0.0	400	0	1.0	1.0	0.0	1	left	1.0	0.0	1.0	0	-0.04160021383319999	blockFiles/set_44/main_unc/rightBlue\GB_RB_5.xlsx
290	main_unc	True	0.0	400	0	1.0	1.0	1.0	1	right	2.0	1.0	1.0	1	0.020473718754900002	blockFiles/set_44/main_unc/rightBlue\GB_RB_5.xlsx
291	main_unc	True	0.0	400	0	1.0	1.0	1.0	1	right	2.0	1.0	1.0	1	0.0327151998691	blockFiles/set_44/main_unc/rightBlue\GB_RB_5.xlsx
292	main_unc	True	0.0	400	0	1.0	1.0	0.0	1	left	1.0	1.0	1.0	0	-0.022335091978299998	blockFiles/set_44/main_unc/rightBlue\GB_RB_5.xlsx
293	main_unc	True	0.0	400	0	1.0	1.0	0.0	1	left	1.0	1.0	1.0	0	-0.0704122454859	blockFiles/set_44/main_unc/rightBlue\GB_RB_5.xlsx
294	main_unc	True	0.0	400	0	1.0	1.0	1.0	1	right	2.0	1.0	1.0	1	0.051551012788000006	blockFiles/set_44/main_unc/rightBlue\GB_RB_5.xlsx
295	main_unc	True	0.0	400	0	1.0	1.0	1.0	1	right	2.0	0.0	1.0	1	0.023229211866900003	blockFiles/set_44/main_unc/rightBlue\GB_RB_5.xlsx
296	main_unc	True	0.0	400	0	1.0	1.0	0.0	1	left	1.0	0.0	1.0	0	-0.00284778250381	blockFiles/set_44/main_unc/rightBlue\GB_RB_5.xlsx
297	main_unc	True	0.0	400	0	1.0	1.0	1.0	1	right	2.0	1.0	1.0	1	0.0399435605481	blockFiles/set_44/main_unc/rightBlue\GB_RB_5.xlsx
298	main_unc	True	0.0	400	0	1.0	1.0	0.0	1	left	1.0	0.0	1.0	0	-0.0563024306484	blockFiles/set_44/main_unc/rightBlue\GB_RB_5.xlsx
299	main_unc	True	0.0	400	0	1.0	1.0	1.0	1	right	2.0	1.0	1.0	1	0.0218416054919	blockFiles/set_44/main_unc/rightBlue\GB_RB_5.xlsx
300	main_unc	True	0.0	400	0	2.0	2.0	0.0	1	left	1.0	1.0	1.0	0	-0.048870827779199995	blockFiles/set_44/main_unc/rightBlue\GB_RB_1.xlsx
301	main_unc	True	0.0	400	0	2.0	2.0	1.0	0	right	2.0	0.0	0.0	0	-0.0215341099352	blockFiles/set_44/main_unc/rightBlue\GB_RB_1.xlsx
302	main_unc	True	0.0	400	0	2.0	2.0	0.0	1	left	1.0	1.0	1.0	0	-0.059722589477900004	blockFiles/set_44/main_unc/rightBlue\GB_RB_1.xlsx
303	main_unc	True	0.0	400	0	2.0	2.0	1.0	0	right	2.0	0.0	0.0	0	-0.0258803085983	blockFiles/set_44/main_unc/rightBlue\GB_RB_1.xlsx
304	main_unc	True	0.0	400	0	2.0	2.0	1.0	1	right	2.0	1.0	1.0	1	0.0486192458868	blockFiles/set_44/main_unc/rightBlue\GB_RB_1.xlsx
305	main_unc	True	0.0	400	0	2.0	2.0	0.0	1	left	1.0	0.0	1.0	0	-0.0455446331762	blockFiles/set_44/main_unc/rightBlue\GB_RB_1.xlsx
306	main_unc	True	0.0	400	0	2.0	2.0	0.0	1	left	1.0	0.0	1.0	0	-0.0741197783127	blockFiles/set_44/main_unc/rightBlue\GB_RB_1.xlsx
307	main_unc	True	0.0	400	0	2.0	2.0	1.0	1	right	1.0	0.0	0.0	1	0.0606788519025	blockFiles/set_44/main_unc/rightBlue\GB_RB_1.xlsx
308	main_unc	True	0.0	400	0	2.0	2.0	0.0	1	left	1.0	1.0	1.0	0	-0.0183449108899	blockFiles/set_44/main_unc/rightBlue\GB_RB_1.xlsx
309	main_unc	True	0.0	400	0	2.0	2.0	0.0	0	left	2.0	0.0	1.0	1	0.00419135384262	blockFiles/set_44/main_unc/rightBlue\GB_RB_1.xlsx
310	main_unc	True	0.0	400	0	2.0	2.0	1.0	1	right	2.0	1.0	1.0	1	0.04256725685669999	blockFiles/set_44/main_unc/rightBlue\GB_RB_1.xlsx
311	main_unc	True	0.0	400	0	2.0	2.0	1.0	1	right	2.0	1.0	1.0	1	0.0369851576351	blockFiles/set_44/main_unc/rightBlue\GB_RB_1.xlsx
312	main_unc	True	0.0	400	0	2.0	2.0	1.0	0	right	2.0	0.0	0.0	0	-0.021204069293999997	blockFiles/set_44/main_unc/rightBlue\GB_RB_1.xlsx
313	main_unc	True	0.0	400	0	2.0	2.0	1.0	1	right	2.0	1.0	1.0	1	0.0459487154894	blockFiles/set_44/main_unc/rightBlue\GB_RB_1.xlsx
314	main_unc	True	0.0	400	0	2.0	2.0	1.0	1	right	2.0	1.0	1.0	1	0.0327205592766	blockFiles/set_44/main_unc/rightBlue\GB_RB_1.xlsx
315	main_unc	True	0.0	400	0	2.0	2.0	1.0	1	right	2.0	0.0	1.0	1	0.060626359079	blockFiles/set_44/main_unc/rightBlue\GB_RB_1.xlsx
316	main_unc	True	0.0	400	0	2.0	2.0	1.0	1	right	2.0	1.0	1.0	1	0.052226848024900005	blockFiles/set_44/main_unc/rightBlue\GB_RB_1.xlsx
317	main_unc	True	0.0	400	0	2.0	2.0	1.0	1	right	2.0	1.0	1.0	1	0.0304195459187	blockFiles/set_44/main_unc/rightBlue\GB_RB_1.xlsx
318	main_unc	True	1.0	400	0	2.0	2.0	n/a	0	None	n/a	0.0	n/a	0	-0.010361367128799998	blockFiles/set_44/main_unc/rightBlue\GB_RB_1.xlsx
319	main_unc	True	0.0	400	0	2.0	2.0	0.0	1	left	1.0	1.0	1.0	0	-0.07677553797139999	blockFiles/set_44/main_unc/rightBlue\GB_RB_1.xlsx
320	main_unc	True	0.0	400	0	2.0	2.0	1.0	1	right	2.0	1.0	1.0	1	0.0406856252998	blockFiles/set_44/main_unc/rightBlue\GB_RB_1.xlsx
321	main_unc	True	0.0	400	0	2.0	2.0	0.0	1	left	1.0	1.0	1.0	0	-0.079589566458	blockFiles/set_44/main_unc/rightBlue\GB_RB_1.xlsx
322	main_unc	True	0.0	400	0	2.0	2.0	1.0	1	right	2.0	1.0	1.0	1	0.011328219454700002	blockFiles/set_44/main_unc/rightBlue\GB_RB_1.xlsx
323	main_unc	True	0.0	400	0	2.0	2.0	0.0	1	left	2.0	0.0	0.0	0	-0.0154343982041	blockFiles/set_44/main_unc/rightBlue\GB_RB_1.xlsx
324	main_unc	True	0.0	400	0	2.0	2.0	1.0	1	right	2.0	0.0	1.0	1	0.00102874068543	blockFiles/set_44/main_unc/rightBlue\GB_RB_1.xlsx
325	main_unc	True	0.0	400	0	2.0	2.0	0.0	1	left	1.0	1.0	1.0	0	-0.010361367128799998	blockFiles/set_44/main_unc/rightBlue\GB_RB_1.xlsx
326	main_unc	True	0.0	400	0	3.0	3.0	1.0	1	right	2.0	1.0	1.0	1	0.0697149981186	blockFiles/set_44/main_unc/rightBlue\GB_RB_6.xlsx
327	main_unc	True	0.0	400	0	3.0	3.0	0.0	1	left	1.0	1.0	1.0	0	-0.040829710792800004	blockFiles/set_44/main_unc/rightBlue\GB_RB_6.xlsx
328	main_unc	True	0.0	400	0	3.0	3.0	1.0	1	right	2.0	1.0	1.0	1	0.0645433382131	blockFiles/set_44/main_unc/rightBlue\GB_RB_6.xlsx
329	main_unc	True	0.0	400	0	3.0	3.0	0.0	0	left	2.0	1.0	1.0	1	0.0362723654881	blockFiles/set_44/main_unc/rightBlue\GB_RB_6.xlsx
330	main_unc	True	0.0	400	0	3.0	3.0	0.0	0	left	2.0	0.0	1.0	1	0.00443508565426	blockFiles/set_44/main_unc/rightBlue\GB_RB_6.xlsx
331	main_unc	True	0.0	400	0	3.0	3.0	1.0	1	right	2.0	1.0	1.0	1	0.048835616558800005	blockFiles/set_44/main_unc/rightBlue\GB_RB_6.xlsx
332	main_unc	True	0.0	400	0	3.0	3.0	1.0	1	right	2.0	1.0	1.0	1	0.056563758086400004	blockFiles/set_44/main_unc/rightBlue\GB_RB_6.xlsx
333	main_unc	True	0.0	400	0	3.0	3.0	0.0	1	left	1.0	1.0	1.0	0	-0.012611400242899999	blockFiles/set_44/main_unc/rightBlue\GB_RB_6.xlsx
334	main_unc	True	0.0	400	0	3.0	3.0	0.0	1	left	1.0	1.0	1.0	0	-0.0290832219459	blockFiles/set_44/main_unc/rightBlue\GB_RB_6.xlsx
335	main_unc	True	0.0	400	0	3.0	3.0	0.0	1	left	1.0	1.0	1.0	0	-0.0452313216031	blockFiles/set_44/main_unc/rightBlue\GB_RB_6.xlsx
336	main_unc	True	0.0	400	0	3.0	3.0	1.0	1	right	2.0	0.0	1.0	1	0.060310072451800006	blockFiles/set_44/main_unc/rightBlue\GB_RB_6.xlsx
337	main_unc	True	0.0	400	0	3.0	3.0	1.0	1	right	2.0	1.0	1.0	1	0.0677047920041	blockFiles/set_44/main_unc/rightBlue\GB_RB_6.xlsx
338	main_unc	True	0.0	400	0	3.0	3.0	0.0	1	left	1.0	0.0	1.0	0	-0.0472719360702	blockFiles/set_44/main_unc/rightBlue\GB_RB_6.xlsx
339	main_unc	True	0.0	400	0	3.0	3.0	0.0	1	left	1.0	1.0	1.0	0	-0.061207720041300005	blockFiles/set_44/main_unc/rightBlue\GB_RB_6.xlsx
340	main_unc	True	0.0	400	0	3.0	3.0	1.0	1	right	2.0	1.0	1.0	1	0.0360109553114	blockFiles/set_44/main_unc/rightBlue\GB_RB_6.xlsx
341	main_unc	True	0.0	400	0	3.0	3.0	0.0	1	left	1.0	1.0	1.0	0	-0.0172473359667	blockFiles/set_44/main_unc/rightBlue\GB_RB_6.xlsx
342	main_unc	True	0.0	400	0	3.0	3.0	1.0	1	right	2.0	1.0	1.0	1	0.051734100077300005	blockFiles/set_44/main_unc/rightBlue\GB_RB_6.xlsx
343	main_unc	True	0.0	400	0	3.0	3.0	0.0	1	left	1.0	1.0	1.0	0	-0.05278157280759999	blockFiles/set_44/main_unc/rightBlue\GB_RB_6.xlsx
344	main_unc	True	0.0	400	0	3.0	3.0	0.0	1	left	1.0	0.0	1.0	0	-0.0478150560521	blockFiles/set_44/main_unc/rightBlue\GB_RB_6.xlsx
345	main_unc	True	0.0	400	0	3.0	3.0	1.0	1	right	2.0	1.0	1.0	1	0.0344372391142	blockFiles/set_44/main_unc/rightBlue\GB_RB_6.xlsx
346	main_unc	True	0.0	400	0	3.0	3.0	1.0	1	right	2.0	1.0	1.0	1	0.0537031736784	blockFiles/set_44/main_unc/rightBlue\GB_RB_6.xlsx
347	main_unc	True	1.0	400	0	3.0	3.0	n/a	0	None	n/a	0.0	n/a	0	-0.0144681757875	blockFiles/set_44/main_unc/rightBlue\GB_RB_6.xlsx
348	main_unc	True	0.0	400	0	3.0	3.0	1.0	0	right	1.0	1.0	1.0	0	-0.00201726060361	blockFiles/set_44/main_unc/rightBlue\GB_RB_6.xlsx
349	main_unc	True	0.0	400	0	3.0	3.0	1.0	1	right	2.0	1.0	1.0	1	0.023866804149	blockFiles/set_44/main_unc/rightBlue\GB_RB_6.xlsx
350	main_unc	True	0.0	400	0	3.0	3.0	0.0	0	left	2.0	1.0	1.0	1	0.0129462344199	blockFiles/set_44/main_unc/rightBlue\GB_RB_6.xlsx
351	main_unc	True	0.0	400	0	3.0	3.0	0.0	1	left	1.0	1.0	1.0	0	-0.0144681757875	blockFiles/set_44/main_unc/rightBlue\GB_RB_6.xlsx
352	main_unc	True	0.0	400	0	4.0	4.0	1.0	1	right	2.0	0.0	0.0	1	0.0181171746552	blockFiles/set_44/main_unc/leftBlue\GB_LB_3.xlsx
353	main_unc	True	0.0	400	0	4.0	4.0	0.0	1	left	2.0	1.0	1.0	0	-0.0547813640907	blockFiles/set_44/main_unc/leftBlue\GB_LB_3.xlsx
354	main_unc	True	0.0	400	0	4.0	4.0	1.0	1	right	1.0	0.0	1.0	1	0.0163888256066	blockFiles/set_44/main_unc/leftBlue\GB_LB_3.xlsx
355	main_unc	True	0.0	400	0	4.0	4.0	1.0	1	right	1.0	1.0	1.0	1	0.0796600696258	blockFiles/set_44/main_unc/leftBlue\GB_LB_3.xlsx
356	main_unc	True	0.0	400	0	4.0	4.0	1.0	1	right	1.0	1.0	1.0	1	0.0576572994515	blockFiles/set_44/main_unc/leftBlue\GB_LB_3.xlsx
357	main_unc	True	0.0	400	0	4.0	4.0	0.0	1	left	2.0	0.0	1.0	0	-0.030794374868299997	blockFiles/set_44/main_unc/leftBlue\GB_LB_3.xlsx
358	main_unc	True	0.0	400	0	4.0	4.0	0.0	1	left	2.0	1.0	1.0	0	-0.0305011698417	blockFiles/set_44/main_unc/leftBlue\GB_LB_3.xlsx
359	main_unc	True	0.0	400	0	4.0	4.0	0.0	1	left	2.0	1.0	1.0	0	-0.0017445198446500003	blockFiles/set_44/main_unc/leftBlue\GB_LB_3.xlsx
360	main_unc	True	0.0	400	0	4.0	4.0	0.0	0	left	1.0	1.0	1.0	1	0.0166835532896	blockFiles/set_44/main_unc/leftBlue\GB_LB_3.xlsx
361	main_unc	True	0.0	400	0	4.0	4.0	0.0	1	left	2.0	0.0	1.0	0	-0.0599224198982	blockFiles/set_44/main_unc/leftBlue\GB_LB_3.xlsx
362	main_unc	True	0.0	400	0	4.0	4.0	1.0	1	right	1.0	1.0	1.0	1	0.054598036371200004	blockFiles/set_44/main_unc/leftBlue\GB_LB_3.xlsx
363	main_unc	True	0.0	400	0	4.0	4.0	0.0	1	left	2.0	1.0	1.0	0	-0.00453547408804	blockFiles/set_44/main_unc/leftBlue\GB_LB_3.xlsx
364	main_unc	True	0.0	400	0	4.0	4.0	1.0	1	right	1.0	1.0	1.0	1	0.0585537369549	blockFiles/set_44/main_unc/leftBlue\GB_LB_3.xlsx
365	main_unc	True	0.0	400	0	4.0	4.0	1.0	1	right	1.0	0.0	1.0	1	0.0673315366171	blockFiles/set_44/main_unc/leftBlue\GB_LB_3.xlsx
366	main_unc	True	0.0	400	0	4.0	4.0	0.0	0	left	1.0	1.0	1.0	1	0.020923762954799998	blockFiles/set_44/main_unc/leftBlue\GB_LB_3.xlsx
367	main_unc	True	0.0	400	0	4.0	4.0	0.0	1	left	2.0	1.0	1.0	0	-0.0350018518046	blockFiles/set_44/main_unc/leftBlue\GB_LB_3.xlsx
368	main_unc	True	0.0	400	0	4.0	4.0	0.0	1	left	2.0	1.0	1.0	0	-0.0212634843588	blockFiles/set_44/main_unc/leftBlue\GB_LB_3.xlsx
369	main_unc	True	0.0	400	0	4.0	4.0	0.0	1	left	2.0	1.0	1.0	0	-0.0483973776177	blockFiles/set_44/main_unc/leftBlue\GB_LB_3.xlsx
370	main_unc	True	0.0	400	0	4.0	4.0	0.0	1	left	2.0	1.0	1.0	0	-0.0679134900868	blockFiles/set_44/main_unc/leftBlue\GB_LB_3.xlsx
371	main_unc	True	0.0	400	0	4.0	4.0	0.0	0	left	1.0	0.0	1.0	1	0.0159844616055	blockFiles/set_44/main_unc/leftBlue\GB_LB_3.xlsx
372	main_unc	True	0.0	400	0	4.0	4.0	0.0	1	left	2.0	1.0	1.0	0	-0.0249791052379	blockFiles/set_44/main_unc/leftBlue\GB_LB_3.xlsx
373	main_unc	True	0.0	400	0	4.0	4.0	1.0	1	right	1.0	1.0	1.0	1	0.007385729420930001	blockFiles/set_44/main_unc/leftBlue\GB_LB_3.xlsx
374	main_unc	True	0.0	400	0	4.0	4.0	0.0	1	left	2.0	1.0	1.0	0	-0.045030713044099994	blockFiles/set_44/main_unc/leftBlue\GB_LB_3.xlsx
375	main_unc	True	0.0	400	0	4.0	4.0	0.0	1	left	2.0	1.0	1.0	0	-0.07619307091460001	blockFiles/set_44/main_unc/leftBlue\GB_LB_3.xlsx
376	main_unc	True	0.0	400	0	4.0	4.0	0.0	1	left	2.0	1.0	1.0	0	-0.0381469738111	blockFiles/set_44/main_unc/leftBlue\GB_LB_3.xlsx
377	main_unc	True	0.0	400	0	5.0	5.0	1.0	1	right	1.0	0.0	0.0	1	0.0367991258204	blockFiles/set_44/main_unc/rightBlue\GB_RB_4.xlsx
378	main_unc	True	0.0	400	0	5.0	5.0	1.0	0	right	2.0	0.0	0.0	0	-0.0137850624695	blockFiles/set_44/main_unc/rightBlue\GB_RB_4.xlsx
379	main_unc	True	0.0	400	0	5.0	5.0	1.0	1	right	1.0	0.0	0.0	1	0.014128450378799999	blockFiles/set_44/main_unc/rightBlue\GB_RB_4.xlsx
380	main_unc	True	0.0	400	0	5.0	5.0	1.0	1	right	2.0	1.0	1.0	1	0.029368934091199998	blockFiles/set_44/main_unc/rightBlue\GB_RB_4.xlsx
381	main_unc	True	0.0	400	0	5.0	5.0	0.0	1	left	1.0	0.0	1.0	0	-0.063532751184	blockFiles/set_44/main_unc/rightBlue\GB_RB_4.xlsx
382	main_unc	True	0.0	400	0	5.0	5.0	1.0	0	right	2.0	0.0	0.0	0	-0.0156860726513	blockFiles/set_44/main_unc/rightBlue\GB_RB_4.xlsx
383	main_unc	True	0.0	400	0	5.0	5.0	0.0	1	left	2.0	0.0	0.0	0	-0.0487178859487	blockFiles/set_44/main_unc/rightBlue\GB_RB_4.xlsx
384	main_unc	True	0.0	400	0	5.0	5.0	0.0	1	left	2.0	0.0	0.0	0	-0.042761001605500004	blockFiles/set_44/main_unc/rightBlue\GB_RB_4.xlsx
385	main_unc	True	0.0	400	0	5.0	5.0	1.0	1	right	2.0	1.0	1.0	1	0.013530270308299999	blockFiles/set_44/main_unc/rightBlue\GB_RB_4.xlsx
386	main_unc	True	0.0	400	0	5.0	5.0	0.0	1	left	1.0	1.0	1.0	0	-0.0507534204237	blockFiles/set_44/main_unc/rightBlue\GB_RB_4.xlsx
387	main_unc	True	0.0	400	0	5.0	5.0	1.0	0	right	1.0	0.0	1.0	0	-0.006601251121609999	blockFiles/set_44/main_unc/rightBlue\GB_RB_4.xlsx
388	main_unc	True	0.0	400	0	5.0	5.0	1.0	1	right	2.0	1.0	1.0	1	0.0729785188287	blockFiles/set_44/main_unc/rightBlue\GB_RB_4.xlsx
389	main_unc	True	0.0	400	0	5.0	5.0	1.0	1	right	2.0	1.0	1.0	1	0.0412618142739	blockFiles/set_44/main_unc/rightBlue\GB_RB_4.xlsx
390	main_unc	True	0.0	400	0	5.0	5.0	1.0	1	right	2.0	0.0	1.0	1	0.0380604992621	blockFiles/set_44/main_unc/rightBlue\GB_RB_4.xlsx
391	main_unc	True	0.0	400	0	5.0	5.0	1.0	1	right	2.0	1.0	1.0	1	0.0335947596282	blockFiles/set_44/main_unc/rightBlue\GB_RB_4.xlsx
392	main_unc	True	0.0	400	0	5.0	5.0	0.0	1	left	1.0	1.0	1.0	0	-0.07127185767519999	blockFiles/set_44/main_unc/rightBlue\GB_RB_4.xlsx
393	main_unc	True	0.0	400	0	5.0	5.0	0.0	1	left	1.0	1.0	1.0	0	-0.0797801445425	blockFiles/set_44/main_unc/rightBlue\GB_RB_4.xlsx
394	main_unc	True	0.0	400	0	5.0	5.0	0.0	1	left	1.0	1.0	1.0	0	-0.0418692791089	blockFiles/set_44/main_unc/rightBlue\GB_RB_4.xlsx
395	main_unc	True	0.0	400	0	5.0	5.0	1.0	0	right	2.0	0.0	0.0	0	-0.0173427602835	blockFiles/set_44/main_unc/rightBlue\GB_RB_4.xlsx
396	main_unc	True	0.0	400	0	5.0	5.0	1.0	1	right	1.0	0.0	0.0	1	0.0320239194669	blockFiles/set_44/main_unc/rightBlue\GB_RB_4.xlsx
397	main_unc	True	0.0	400	0	5.0	5.0	1.0	0	right	1.0	1.0	1.0	0	-0.00764235187322	blockFiles/set_44/main_unc/rightBlue\GB_RB_4.xlsx
398	main_unc	True	0.0	400	0	5.0	5.0	1.0	1	right	2.0	1.0	1.0	1	0.0733775816485	blockFiles/set_44/main_unc/rightBlue\GB_RB_4.xlsx
399	main_unc	True	0.0	400	0	5.0	5.0	1.0	1	right	2.0	1.0	1.0	1	0.06894929565489999	blockFiles/set_44/main_unc/rightBlue\GB_RB_4.xlsx
400	main_unc	True	0.0	400	0	5.0	5.0	1.0	1	right	2.0	1.0	1.0	1	0.0500354107283	blockFiles/set_44/main_unc/rightBlue\GB_RB_4.xlsx
401	main_unc	True	0.0	400	0	5.0	5.0	0.0	1	left	1.0	0.0	1.0	0	-0.029533309582599997	blockFiles/set_44/main_unc/rightBlue\GB_RB_4.xlsx
402	main_unc	True	0.0	400	0	6.0	6.0	1.0	0	right	1.0	1.0	1.0	0	-0.0201298708655	blockFiles/set_44/main_unc/rightBlue\GB_RB_3.xlsx
403	main_unc	True	0.0	400	0	6.0	6.0	1.0	1	right	1.0	0.0	0.0	1	0.0395633693412	blockFiles/set_44/main_unc/rightBlue\GB_RB_3.xlsx
404	main_unc	True	0.0	400	0	6.0	6.0	1.0	1	right	2.0	1.0	1.0	1	0.0605445875227	blockFiles/set_44/main_unc/rightBlue\GB_RB_3.xlsx
405	main_unc	True	0.0	400	0	6.0	6.0	0.0	1	left	1.0	0.0	1.0	0	-0.0744496710971	blockFiles/set_44/main_unc/rightBlue\GB_RB_3.xlsx
406	main_unc	True	0.0	400	0	6.0	6.0	1.0	1	right	2.0	1.0	1.0	1	0.030038289967900002	blockFiles/set_44/main_unc/rightBlue\GB_RB_3.xlsx
407	main_unc	True	0.0	400	0	6.0	6.0	1.0	1	right	2.0	1.0	1.0	1	0.0668183634616	blockFiles/set_44/main_unc/rightBlue\GB_RB_3.xlsx
408	main_unc	True	0.0	400	0	6.0	6.0	1.0	0	right	2.0	0.0	0.0	0	-0.00136479554698	blockFiles/set_44/main_unc/rightBlue\GB_RB_3.xlsx
409	main_unc	True	0.0	400	0	6.0	6.0	0.0	1	left	1.0	1.0	1.0	0	-0.018231375981099997	blockFiles/set_44/main_unc/rightBlue\GB_RB_3.xlsx
410	main_unc	True	0.0	400	0	6.0	6.0	0.0	1	left	1.0	1.0	1.0	0	-0.0312267384492	blockFiles/set_44/main_unc/rightBlue\GB_RB_3.xlsx
411	main_unc	True	0.0	400	0	6.0	6.0	0.0	0	left	2.0	1.0	1.0	1	0.012786989733599999	blockFiles/set_44/main_unc/rightBlue\GB_RB_3.xlsx
412	main_unc	True	0.0	400	0	6.0	6.0	0.0	1	left	1.0	1.0	1.0	0	-0.0799247448333	blockFiles/set_44/main_unc/rightBlue\GB_RB_3.xlsx
413	main_unc	True	0.0	400	0	6.0	6.0	0.0	1	left	1.0	0.0	1.0	0	-0.039672148414	blockFiles/set_44/main_unc/rightBlue\GB_RB_3.xlsx
414	main_unc	True	0.0	400	0	6.0	6.0	0.0	1	left	1.0	1.0	1.0	0	-0.0630222881027	blockFiles/set_44/main_unc/rightBlue\GB_RB_3.xlsx
415	main_unc	True	0.0	400	0	6.0	6.0	0.0	1	left	1.0	1.0	1.0	0	-0.030752087980499998	blockFiles/set_44/main_unc/rightBlue\GB_RB_3.xlsx
416	main_unc	True	0.0	400	0	6.0	6.0	0.0	1	left	1.0	1.0	1.0	0	-0.036913575474199996	blockFiles/set_44/main_unc/rightBlue\GB_RB_3.xlsx
417	main_unc	True	0.0	400	0	6.0	6.0	0.0	1	left	1.0	1.0	1.0	0	-0.0508033353835	blockFiles/set_44/main_unc/rightBlue\GB_RB_3.xlsx
418	main_unc	True	0.0	400	0	6.0	6.0	1.0	1	right	2.0	1.0	1.0	1	0.0701903201081	blockFiles/set_44/main_unc/rightBlue\GB_RB_3.xlsx
419	main_unc	True	0.0	400	0	6.0	6.0	0.0	0	left	1.0	0.0	0.0	1	0.009097502529620001	blockFiles/set_44/main_unc/rightBlue\GB_RB_3.xlsx
420	main_unc	True	0.0	400	0	6.0	6.0	1.0	1	right	2.0	1.0	1.0	1	0.0572402645275	blockFiles/set_44/main_unc/rightBlue\GB_RB_3.xlsx
421	main_unc	True	0.0	400	0	6.0	6.0	1.0	1	right	2.0	1.0	1.0	1	0.0262707806751	blockFiles/set_44/main_unc/rightBlue\GB_RB_3.xlsx
422	main_unc	True	0.0	400	0	6.0	6.0	1.0	1	right	2.0	0.0	1.0	1	0.007702736929060001	blockFiles/set_44/main_unc/rightBlue\GB_RB_3.xlsx
423	main_unc	True	0.0	400	0	6.0	6.0	1.0	1	right	2.0	1.0	1.0	1	0.0544183870405	blockFiles/set_44/main_unc/rightBlue\GB_RB_3.xlsx
424	main_unc	True	0.0	400	0	6.0	6.0	0.0	0	left	2.0	0.0	1.0	1	0.0077946870774	blockFiles/set_44/main_unc/rightBlue\GB_RB_3.xlsx
425	main_unc	True	0.0	400	0	6.0	6.0	0.0	1	left	1.0	0.0	1.0	0	-0.052853456661099994	blockFiles/set_44/main_unc/rightBlue\GB_RB_3.xlsx
426	main_unc	True	0.0	400	0	6.0	6.0	1.0	1	right	2.0	1.0	1.0	1	0.04523584837090001	blockFiles/set_44/main_unc/rightBlue\GB_RB_3.xlsx
427	main_unc	True	0.0	400	0	7.0	7.0	0.0	1	left	1.0	1.0	1.0	0	-0.0631071411259	blockFiles/set_44/main_unc/rightBlue\GB_RB_2.xlsx
428	main_unc	True	0.0	400	0	7.0	7.0	0.0	1	left	1.0	1.0	1.0	0	-0.0239191569202	blockFiles/set_44/main_unc/rightBlue\GB_RB_2.xlsx
429	main_unc	True	0.0	400	0	7.0	7.0	0.0	0	left	2.0	1.0	1.0	1	0.0209951330908	blockFiles/set_44/main_unc/rightBlue\GB_RB_2.xlsx
430	main_unc	True	0.0	400	0	7.0	7.0	1.0	1	right	2.0	1.0	1.0	1	0.0763993494399	blockFiles/set_44/main_unc/rightBlue\GB_RB_2.xlsx
431	main_unc	True	0.0	400	0	7.0	7.0	1.0	1	right	2.0	1.0	1.0	1	0.057503014914699994	blockFiles/set_44/main_unc/rightBlue\GB_RB_2.xlsx
432	main_unc	True	0.0	400	0	7.0	7.0	0.0	1	left	1.0	1.0	1.0	0	-0.00340140543878	blockFiles/set_44/main_unc/rightBlue\GB_RB_2.xlsx
433	main_unc	True	0.0	400	0	7.0	7.0	0.0	1	left	1.0	1.0	1.0	0	-0.0162846753933	blockFiles/set_44/main_unc/rightBlue\GB_RB_2.xlsx
434	main_unc	True	0.0	400	0	7.0	7.0	0.0	1	left	1.0	0.0	1.0	0	-0.0388488530554	blockFiles/set_44/main_unc/rightBlue\GB_RB_2.xlsx
435	main_unc	True	0.0	400	0	7.0	7.0	1.0	1	right	2.0	1.0	1.0	1	0.0728508559242	blockFiles/set_44/main_unc/rightBlue\GB_RB_2.xlsx
436	main_unc	True	0.0	400	0	7.0	7.0	1.0	1	right	2.0	1.0	1.0	1	0.03552275775	blockFiles/set_44/main_unc/rightBlue\GB_RB_2.xlsx
437	main_unc	True	0.0	400	0	7.0	7.0	1.0	1	right	2.0	1.0	1.0	1	0.06722067598249999	blockFiles/set_44/main_unc/rightBlue\GB_RB_2.xlsx
438	main_unc	True	0.0	400	0	7.0	7.0	1.0	1	right	2.0	1.0	1.0	1	0.00486515726894	blockFiles/set_44/main_unc/rightBlue\GB_RB_2.xlsx
439	main_unc	True	0.0	400	0	7.0	7.0	1.0	1	right	2.0	1.0	1.0	1	0.0689495765977	blockFiles/set_44/main_unc/rightBlue\GB_RB_2.xlsx
440	main_unc	True	0.0	400	0	7.0	7.0	0.0	1	left	1.0	1.0	1.0	0	-0.037383333575	blockFiles/set_44/main_unc/rightBlue\GB_RB_2.xlsx
441	main_unc	True	0.0	400	0	7.0	7.0	0.0	1	left	1.0	1.0	1.0	0	-0.0714079263806	blockFiles/set_44/main_unc/rightBlue\GB_RB_2.xlsx
442	main_unc	True	0.0	400	0	7.0	7.0	0.0	1	left	1.0	1.0	1.0	0	-0.00887684939429	blockFiles/set_44/main_unc/rightBlue\GB_RB_2.xlsx
443	main_unc	True	0.0	400	0	7.0	7.0	1.0	1	right	2.0	0.0	1.0	1	0.03597713558	blockFiles/set_44/main_unc/rightBlue\GB_RB_2.xlsx
444	main_unc	True	0.0	400	0	7.0	7.0	1.0	1	right	2.0	1.0	1.0	1	0.0602575000562	blockFiles/set_44/main_unc/rightBlue\GB_RB_2.xlsx
445	main_unc	True	0.0	400	0	7.0	7.0	0.0	1	left	1.0	0.0	1.0	0	-0.012573899105200001	blockFiles/set_44/main_unc/rightBlue\GB_RB_2.xlsx
446	main_unc	True	0.0	400	0	7.0	7.0	0.0	1	left	1.0	1.0	1.0	0	-0.0591701619327	blockFiles/set_44/main_unc/rightBlue\GB_RB_2.xlsx
447	main_unc	True	0.0	400	0	7.0	7.0	1.0	1	right	2.0	1.0	1.0	1	0.0146609797515	blockFiles/set_44/main_unc/rightBlue\GB_RB_2.xlsx
448	main_unc	True	0.0	400	0	7.0	7.0	0.0	1	left	1.0	0.0	1.0	0	-0.036658287514	blockFiles/set_44/main_unc/rightBlue\GB_RB_2.xlsx
449	main_unc	True	0.0	400	0	7.0	7.0	0.0	1	left	1.0	1.0	1.0	0	-0.0767936439812	blockFiles/set_44/main_unc/rightBlue\GB_RB_2.xlsx
450	main_unc	True	0.0	400	0	7.0	7.0	1.0	1	right	2.0	1.0	1.0	1	0.0344452839717	blockFiles/set_44/main_unc/rightBlue\GB_RB_2.xlsx
451	main_unc	True	0.0	400	0	7.0	7.0	1.0	0	right	1.0	1.0	1.0	0	-0.0354192183912	blockFiles/set_44/main_unc/rightBlue\GB_RB_2.xlsx
452	main_unc	True	0.0	400	0	8.0	8.0	0.0	1	left	2.0	1.0	1.0	0	-0.0352967556752	blockFiles/set_44/main_unc/leftBlue\GB_LB_4.xlsx
453	main_unc	True	0.0	400	0	8.0	8.0	0.0	1	left	2.0	1.0	1.0	0	-0.0459888878278	blockFiles/set_44/main_unc/leftBlue\GB_LB_4.xlsx
454	main_unc	True	0.0	400	0	8.0	8.0	0.0	1	left	2.0	1.0	1.0	0	-0.057795821893999996	blockFiles/set_44/main_unc/leftBlue\GB_LB_4.xlsx
455	main_unc	True	0.0	400	0	8.0	8.0	1.0	1	right	1.0	1.0	1.0	1	0.0430925890245	blockFiles/set_44/main_unc/leftBlue\GB_LB_4.xlsx
456	main_unc	True	0.0	400	0	8.0	8.0	0.0	0	left	1.0	1.0	1.0	1	0.0570115412027	blockFiles/set_44/main_unc/leftBlue\GB_LB_4.xlsx
457	main_unc	True	0.0	400	0	8.0	8.0	1.0	1	right	1.0	0.0	1.0	1	0.024761737715500002	blockFiles/set_44/main_unc/leftBlue\GB_LB_4.xlsx
458	main_unc	True	0.0	400	0	8.0	8.0	1.0	1	right	1.0	1.0	1.0	1	0.0311745421961	blockFiles/set_44/main_unc/leftBlue\GB_LB_4.xlsx
459	main_unc	True	0.0	400	0	8.0	8.0	1.0	1	right	1.0	1.0	1.0	1	0.0197785439529	blockFiles/set_44/main_unc/leftBlue\GB_LB_4.xlsx
460	main_unc	True	0.0	400	0	8.0	8.0	0.0	1	left	2.0	1.0	1.0	0	-0.0561990018748	blockFiles/set_44/main_unc/leftBlue\GB_LB_4.xlsx
461	main_unc	True	0.0	400	0	8.0	8.0	0.0	1	left	2.0	1.0	1.0	0	-0.031245897486799998	blockFiles/set_44/main_unc/leftBlue\GB_LB_4.xlsx
462	main_unc	True	0.0	400	0	8.0	8.0	0.0	1	left	2.0	0.0	1.0	0	-0.0236653292365	blockFiles/set_44/main_unc/leftBlue\GB_LB_4.xlsx
463	main_unc	True	0.0	400	0	8.0	8.0	1.0	1	right	1.0	1.0	1.0	1	0.040470840390800004	blockFiles/set_44/main_unc/leftBlue\GB_LB_4.xlsx
464	main_unc	True	0.0	400	0	8.0	8.0	1.0	1	right	1.0	1.0	1.0	1	0.07278462909160001	blockFiles/set_44/main_unc/leftBlue\GB_LB_4.xlsx
465	main_unc	True	0.0	400	0	8.0	8.0	0.0	1	left	2.0	1.0	1.0	0	-0.0745046121813	blockFiles/set_44/main_unc/leftBlue\GB_LB_4.xlsx
466	main_unc	True	0.0	400	0	8.0	8.0	0.0	1	left	2.0	0.0	1.0	0	-0.047286521531600005	blockFiles/set_44/main_unc/leftBlue\GB_LB_4.xlsx
467	main_unc	True	0.0	400	0	8.0	8.0	1.0	0	right	1.0	0.0	0.0	0	-0.000811155177653	blockFiles/set_44/main_unc/leftBlue\GB_LB_4.xlsx
468	main_unc	True	0.0	400	0	8.0	8.0	1.0	1	right	1.0	0.0	1.0	1	0.061680178903	blockFiles/set_44/main_unc/leftBlue\GB_LB_4.xlsx
469	main_unc	True	0.0	400	0	8.0	8.0	1.0	0	right	1.0	0.0	0.0	0	-0.00633007274941	blockFiles/set_44/main_unc/leftBlue\GB_LB_4.xlsx
470	main_unc	True	1.0	400	0	8.0	8.0	n/a	0	None	n/a	0.0	n/a	1	0.0231339129992	blockFiles/set_44/main_unc/leftBlue\GB_LB_4.xlsx
471	main_unc	True	0.0	400	0	8.0	8.0	0.0	1	left	2.0	1.0	1.0	0	-0.074009766262	blockFiles/set_44/main_unc/leftBlue\GB_LB_4.xlsx
472	main_unc	True	0.0	400	0	8.0	8.0	0.0	1	left	2.0	1.0	1.0	0	-0.0351662747934	blockFiles/set_44/main_unc/leftBlue\GB_LB_4.xlsx
473	main_unc	True	0.0	400	0	8.0	8.0	1.0	1	right	1.0	0.0	1.0	1	0.068296734523	blockFiles/set_44/main_unc/leftBlue\GB_LB_4.xlsx
474	main_unc	True	0.0	400	0	8.0	8.0	1.0	1	right	1.0	1.0	1.0	1	0.0156098380685	blockFiles/set_44/main_unc/leftBlue\GB_LB_4.xlsx
475	main_unc	True	0.0	400	0	8.0	8.0	1.0	1	right	1.0	1.0	1.0	1	0.0529616900533	blockFiles/set_44/main_unc/leftBlue\GB_LB_4.xlsx
476	main_unc	True	0.0	400	0	8.0	8.0	1.0	0	right	2.0	1.0	1.0	0	-0.0390566669405	blockFiles/set_44/main_unc/leftBlue\GB_LB_4.xlsx
477	main_unc	True	0.0	400	0	8.0	8.0	1.0	1	right	1.0	1.0	1.0	1	0.0231339129992	blockFiles/set_44/main_unc/leftBlue\GB_LB_4.xlsx
478	main_unc	True	0.0	400	0	9.0	9.0	0.0	1	left	1.0	0.0	0.0	0	-0.0755070194416	blockFiles/set_44/main_unc/leftBlue\GB_LB_5.xlsx
479	main_unc	True	0.0	400	0	9.0	9.0	1.0	0	right	2.0	0.0	1.0	0	-0.0189153801836	blockFiles/set_44/main_unc/leftBlue\GB_LB_5.xlsx
480	main_unc	True	0.0	400	0	9.0	9.0	0.0	1	left	2.0	1.0	1.0	0	-0.0604876946472	blockFiles/set_44/main_unc/leftBlue\GB_LB_5.xlsx
481	main_unc	True	0.0	400	0	9.0	9.0	0.0	1	left	2.0	1.0	1.0	0	-0.0779247729108	blockFiles/set_44/main_unc/leftBlue\GB_LB_5.xlsx
482	main_unc	True	0.0	400	0	9.0	9.0	1.0	1	right	1.0	1.0	1.0	1	0.0235690447874	blockFiles/set_44/main_unc/leftBlue\GB_LB_5.xlsx
483	main_unc	True	0.0	400	0	9.0	9.0	0.0	1	left	2.0	1.0	1.0	0	-0.00593891043216	blockFiles/set_44/main_unc/leftBlue\GB_LB_5.xlsx
484	main_unc	True	0.0	400	0	9.0	9.0	1.0	1	right	1.0	1.0	1.0	1	0.030941596888	blockFiles/set_44/main_unc/leftBlue\GB_LB_5.xlsx
485	main_unc	True	0.0	400	0	9.0	9.0	0.0	1	left	2.0	1.0	1.0	0	-0.030443565510200003	blockFiles/set_44/main_unc/leftBlue\GB_LB_5.xlsx
486	main_unc	True	0.0	400	0	9.0	9.0	1.0	1	right	1.0	1.0	1.0	1	0.0511671390943	blockFiles/set_44/main_unc/leftBlue\GB_LB_5.xlsx
487	main_unc	True	0.0	400	0	9.0	9.0	1.0	1	right	1.0	1.0	1.0	1	0.0589550177194	blockFiles/set_44/main_unc/leftBlue\GB_LB_5.xlsx
488	main_unc	True	0.0	400	0	9.0	9.0	0.0	1	left	2.0	1.0	1.0	0	-0.0402521340922	blockFiles/set_44/main_unc/leftBlue\GB_LB_5.xlsx
489	main_unc	True	0.0	400	0	9.0	9.0	0.0	0	left	1.0	1.0	1.0	1	0.0177419537306	blockFiles/set_44/main_unc/leftBlue\GB_LB_5.xlsx
490	main_unc	True	0.0	400	0	9.0	9.0	0.0	1	left	2.0	1.0	1.0	0	-0.031628733892	blockFiles/set_44/main_unc/leftBlue\GB_LB_5.xlsx
491	main_unc	True	0.0	400	0	9.0	9.0	0.0	1	left	2.0	0.0	1.0	0	-0.052438330967	blockFiles/set_44/main_unc/leftBlue\GB_LB_5.xlsx
492	main_unc	True	0.0	400	0	9.0	9.0	0.0	0	left	1.0	0.0	1.0	1	0.009655509609729999	blockFiles/set_44/main_unc/leftBlue\GB_LB_5.xlsx
493	main_unc	True	0.0	400	0	9.0	9.0	1.0	1	right	1.0	1.0	1.0	1	0.0326385994814	blockFiles/set_44/main_unc/leftBlue\GB_LB_5.xlsx
494	main_unc	True	0.0	400	0	9.0	9.0	1.0	1	right	1.0	0.0	1.0	1	0.0498534345627	blockFiles/set_44/main_unc/leftBlue\GB_LB_5.xlsx
495	main_unc	True	0.0	400	0	9.0	9.0	0.0	1	left	2.0	1.0	1.0	0	-0.0406100011989	blockFiles/set_44/main_unc/leftBlue\GB_LB_5.xlsx
496	main_unc	True	0.0	400	0	9.0	9.0	1.0	1	right	1.0	1.0	1.0	1	0.0108648536727	blockFiles/set_44/main_unc/leftBlue\GB_LB_5.xlsx
497	main_unc	True	0.0	400	0	9.0	9.0	0.0	1	left	2.0	0.0	1.0	0	-0.0364964067936	blockFiles/set_44/main_unc/leftBlue\GB_LB_5.xlsx
498	main_unc	True	0.0	400	0	9.0	9.0	1.0	1	right	1.0	1.0	1.0	1	0.0704162782989	blockFiles/set_44/main_unc/leftBlue\GB_LB_5.xlsx
499	main_unc	True	0.0	400	0	9.0	9.0	1.0	0	right	2.0	1.0	1.0	0	-0.0173057449795	blockFiles/set_44/main_unc/leftBlue\GB_LB_5.xlsx
500	main_unc	True	0.0	400	0	9.0	9.0	1.0	1	right	1.0	1.0	1.0	1	0.0665733407997	blockFiles/set_44/main_unc/leftBlue\GB_LB_5.xlsx
501	main_unc	True	0.0	400	0	9.0	9.0	0.0	1	left	2.0	1.0	1.0	0	-0.00712625591084	blockFiles/set_44/main_unc/leftBlue\GB_LB_5.xlsx
502	main_unc	True	0.0	400	0	9.0	9.0	1.0	1	right	1.0	1.0	1.0	1	0.0424874592014	blockFiles/set_44/main_unc/leftBlue\GB_LB_5.xlsx
503	main_unc	True	0.0	400	0	10.0	10.0	1.0	1	right	1.0	0.0	1.0	1	0.00383101131767	blockFiles/set_44/main_unc/leftBlue\GB_LB_6.xlsx
504	main_unc	True	0.0	400	0	10.0	10.0	1.0	0	right	2.0	1.0	1.0	0	-0.019169825837000002	blockFiles/set_44/main_unc/leftBlue\GB_LB_6.xlsx
505	main_unc	True	0.0	400	0	10.0	10.0	1.0	1	right	2.0	0.0	0.0	1	0.0598542552814	blockFiles/set_44/main_unc/leftBlue\GB_LB_6.xlsx
506	main_unc	True	0.0	400	0	10.0	10.0	1.0	0	right	1.0	0.0	0.0	0	-0.00095120806247	blockFiles/set_44/main_unc/leftBlue\GB_LB_6.xlsx
507	main_unc	True	0.0	400	0	10.0	10.0	1.0	1	right	2.0	1.0	0.0	1	0.0136103561334	blockFiles/set_44/main_unc/leftBlue\GB_LB_6.xlsx
508	main_unc	True	0.0	400	0	10.0	10.0	1.0	1	right	2.0	0.0	0.0	1	0.0639075163566	blockFiles/set_44/main_unc/leftBlue\GB_LB_6.xlsx
509	main_unc	True	0.0	400	0	10.0	10.0	0.0	1	left	1.0	0.0	0.0	0	-0.0715757997893	blockFiles/set_44/main_unc/leftBlue\GB_LB_6.xlsx
510	main_unc	True	0.0	400	0	10.0	10.0	0.0	1	left	2.0	0.0	1.0	0	-0.047785625066599995	blockFiles/set_44/main_unc/leftBlue\GB_LB_6.xlsx
511	main_unc	True	0.0	400	0	10.0	10.0	0.0	0	left	1.0	1.0	1.0	1	0.0276418083534	blockFiles/set_44/main_unc/leftBlue\GB_LB_6.xlsx
512	main_unc	True	0.0	400	0	10.0	10.0	0.0	0	left	2.0	0.0	0.0	1	0.023911842014599997	blockFiles/set_44/main_unc/leftBlue\GB_LB_6.xlsx
513	main_unc	True	0.0	400	0	10.0	10.0	1.0	1	right	2.0	0.0	0.0	1	0.0646386902221	blockFiles/set_44/main_unc/leftBlue\GB_LB_6.xlsx
514	main_unc	True	0.0	400	0	10.0	10.0	0.0	1	left	2.0	1.0	1.0	0	-0.0651444695517	blockFiles/set_44/main_unc/leftBlue\GB_LB_6.xlsx
515	main_unc	True	0.0	400	0	10.0	10.0	0.0	1	left	2.0	1.0	1.0	0	-0.022360885962799996	blockFiles/set_44/main_unc/leftBlue\GB_LB_6.xlsx
516	main_unc	True	0.0	400	0	10.0	10.0	0.0	1	left	2.0	1.0	1.0	0	-0.0275442503951	blockFiles/set_44/main_unc/leftBlue\GB_LB_6.xlsx
517	main_unc	True	0.0	400	0	10.0	10.0	0.0	0	left	1.0	0.0	1.0	1	0.0306506634131	blockFiles/set_44/main_unc/leftBlue\GB_LB_6.xlsx
518	main_unc	True	0.0	400	0	10.0	10.0	1.0	1	right	1.0	1.0	1.0	1	0.0622903806157	blockFiles/set_44/main_unc/leftBlue\GB_LB_6.xlsx
519	main_unc	True	0.0	400	0	10.0	10.0	1.0	0	right	2.0	1.0	1.0	0	-0.027547823395599996	blockFiles/set_44/main_unc/leftBlue\GB_LB_6.xlsx
520	main_unc	True	0.0	400	0	10.0	10.0	1.0	1	right	1.0	1.0	1.0	1	0.0511301354691	blockFiles/set_44/main_unc/leftBlue\GB_LB_6.xlsx
521	main_unc	True	0.0	400	0	10.0	10.0	0.0	1	left	2.0	1.0	1.0	0	-0.050162290036699995	blockFiles/set_44/main_unc/leftBlue\GB_LB_6.xlsx
522	main_unc	True	0.0	400	0	10.0	10.0	1.0	1	right	1.0	1.0	1.0	1	0.035892914477699996	blockFiles/set_44/main_unc/leftBlue\GB_LB_6.xlsx
523	main_unc	True	0.0	400	0	10.0	10.0	0.0	0	left	2.0	1.0	0.0	1	0.00301295796409	blockFiles/set_44/main_unc/leftBlue\GB_LB_6.xlsx
524	main_unc	True	0.0	400	0	10.0	10.0	0.0	1	left	2.0	1.0	1.0	0	-0.0605542051047	blockFiles/set_44/main_unc/leftBlue\GB_LB_6.xlsx
525	main_unc	True	0.0	400	0	10.0	10.0	0.0	1	left	2.0	1.0	1.0	0	-0.0069845281913900005	blockFiles/set_44/main_unc/leftBlue\GB_LB_6.xlsx
526	main_unc	True	0.0	400	0	10.0	10.0	1.0	1	right	1.0	1.0	1.0	1	0.044826712347599995	blockFiles/set_44/main_unc/leftBlue\GB_LB_6.xlsx
527	main_unc	True	0.0	400	0	10.0	10.0	0.0	1	left	2.0	1.0	1.0	0	-0.057648404073	blockFiles/set_44/main_unc/leftBlue\GB_LB_6.xlsx
528	main_unc	True	0.0	400	0	11.0	11.0	1.0	1	right	2.0	0.0	0.0	1	0.040878521315800005	blockFiles/set_44/main_unc/leftBlue\GB_LB_2.xlsx
529	main_unc	True	0.0	400	0	11.0	11.0	1.0	1	right	1.0	1.0	1.0	1	0.0507815852761	blockFiles/set_44/main_unc/leftBlue\GB_LB_2.xlsx
530	main_unc	True	0.0	400	0	11.0	11.0	0.0	1	left	2.0	1.0	1.0	0	-0.0188115381822	blockFiles/set_44/main_unc/leftBlue\GB_LB_2.xlsx
531	main_unc	True	0.0	400	0	11.0	11.0	0.0	1	left	2.0	1.0	1.0	0	-0.028526618760099997	blockFiles/set_44/main_unc/leftBlue\GB_LB_2.xlsx
532	main_unc	True	0.0	400	0	11.0	11.0	0.0	1	left	2.0	0.0	1.0	0	-0.0275137300789	blockFiles/set_44/main_unc/leftBlue\GB_LB_2.xlsx
533	main_unc	True	0.0	400	0	11.0	11.0	0.0	1	left	2.0	1.0	1.0	0	-0.0724047494866	blockFiles/set_44/main_unc/leftBlue\GB_LB_2.xlsx
534	main_unc	True	0.0	400	0	11.0	11.0	1.0	1	right	1.0	0.0	1.0	1	0.038896680753699994	blockFiles/set_44/main_unc/leftBlue\GB_LB_2.xlsx
535	main_unc	True	0.0	400	0	11.0	11.0	0.0	1	left	2.0	1.0	1.0	0	-0.00398713452742	blockFiles/set_44/main_unc/leftBlue\GB_LB_2.xlsx
536	main_unc	True	0.0	400	0	11.0	11.0	1.0	1	right	1.0	1.0	1.0	1	0.066666443646	blockFiles/set_44/main_unc/leftBlue\GB_LB_2.xlsx
537	main_unc	True	0.0	400	0	11.0	11.0	1.0	1	right	1.0	1.0	1.0	1	0.026168837025799998	blockFiles/set_44/main_unc/leftBlue\GB_LB_2.xlsx
538	main_unc	True	0.0	400	0	11.0	11.0	1.0	1	right	1.0	1.0	1.0	1	0.0704357517883	blockFiles/set_44/main_unc/leftBlue\GB_LB_2.xlsx
539	main_unc	True	0.0	400	0	11.0	11.0	0.0	1	left	2.0	0.0	1.0	0	-0.0736688859574	blockFiles/set_44/main_unc/leftBlue\GB_LB_2.xlsx
540	main_unc	True	0.0	400	0	11.0	11.0	1.0	1	right	1.0	1.0	1.0	1	0.005226401928810001	blockFiles/set_44/main_unc/leftBlue\GB_LB_2.xlsx
541	main_unc	True	0.0	400	0	11.0	11.0	0.0	1	left	2.0	1.0	1.0	0	-0.0598732904345	blockFiles/set_44/main_unc/leftBlue\GB_LB_2.xlsx
542	main_unc	True	0.0	400	0	11.0	11.0	1.0	0	right	2.0	1.0	1.0	0	-0.00318806709722	blockFiles/set_44/main_unc/leftBlue\GB_LB_2.xlsx
543	main_unc	True	0.0	400	0	11.0	11.0	0.0	1	left	2.0	1.0	1.0	0	-0.023522419165799998	blockFiles/set_44/main_unc/leftBlue\GB_LB_2.xlsx
544	main_unc	True	0.0	400	0	11.0	11.0	1.0	1	right	1.0	0.0	1.0	1	0.035942160096	blockFiles/set_44/main_unc/leftBlue\GB_LB_2.xlsx
545	main_unc	True	0.0	400	0	11.0	11.0	1.0	1	right	1.0	1.0	1.0	1	0.0751480970718	blockFiles/set_44/main_unc/leftBlue\GB_LB_2.xlsx
546	main_unc	True	0.0	400	0	11.0	11.0	1.0	1	right	1.0	0.0	1.0	1	0.0335286645219	blockFiles/set_44/main_unc/leftBlue\GB_LB_2.xlsx
547	main_unc	True	0.0	400	0	11.0	11.0	0.0	1	left	2.0	1.0	1.0	0	-0.0457487656176	blockFiles/set_44/main_unc/leftBlue\GB_LB_2.xlsx
548	main_unc	True	0.0	400	0	11.0	11.0	1.0	1	right	1.0	1.0	1.0	1	0.06483003407719999	blockFiles/set_44/main_unc/leftBlue\GB_LB_2.xlsx
549	main_unc	True	0.0	400	0	11.0	11.0	1.0	1	right	1.0	1.0	1.0	1	0.037380651664	blockFiles/set_44/main_unc/leftBlue\GB_LB_2.xlsx
550	main_unc	True	0.0	400	0	11.0	11.0	0.0	1	left	2.0	1.0	1.0	0	-0.0226741519012	blockFiles/set_44/main_unc/leftBlue\GB_LB_2.xlsx
551	main_unc	True	0.0	400	0	11.0	11.0	0.0	1	left	2.0	1.0	1.0	0	-0.06771490339189999	blockFiles/set_44/main_unc/leftBlue\GB_LB_2.xlsx
552	main_unc	True	0.0	400	0	11.0	11.0	1.0	1	right	1.0	1.0	1.0	1	0.0192183627747	blockFiles/set_44/main_unc/leftBlue\GB_LB_2.xlsx
