	trial_type	complete	missIndex	participant	id	blockNumber	b_t	d_t	decision1.corr	decision1.keys	a_t	r_t	decision2.corr	s_t	u_t	block_file
0	main_safe	True	1.0	695	0	0.0	0.0	1.0	1	right	n/a	0.0	n/a	1	0.08	blockFiles/set_13/main_safe/rightBlue\GB_RB_3.xlsx
1	main_safe	True	0.0	695	0	0.0	0.0	1.0	1	right	2.0	1.0	1.0	1	0.08	blockFiles/set_13/main_safe/rightBlue\GB_RB_3.xlsx
2	main_safe	True	0.0	695	0	0.0	0.0	1.0	1	right	2.0	1.0	1.0	1	0.08	blockFiles/set_13/main_safe/rightBlue\GB_RB_3.xlsx
3	main_safe	True	0.0	695	0	0.0	0.0	0.0	1	left	1.0	1.0	1.0	0	-0.08	blockFiles/set_13/main_safe/rightBlue\GB_RB_3.xlsx
4	main_safe	True	0.0	695	0	0.0	0.0	1.0	1	right	2.0	1.0	1.0	1	0.08	blockFiles/set_13/main_safe/rightBlue\GB_RB_3.xlsx
5	main_safe	True	0.0	695	0	0.0	0.0	1.0	1	right	2.0	1.0	1.0	1	0.08	blockFiles/set_13/main_safe/rightBlue\GB_RB_3.xlsx
6	main_safe	True	0.0	695	0	0.0	0.0	0.0	1	left	1.0	1.0	1.0	0	-0.08	blockFiles/set_13/main_safe/rightBlue\GB_RB_3.xlsx
7	main_safe	True	0.0	695	0	0.0	0.0	1.0	1	right	2.0	1.0	1.0	1	0.08	blockFiles/set_13/main_safe/rightBlue\GB_RB_3.xlsx
8	main_safe	True	0.0	695	0	0.0	0.0	1.0	1	right	2.0	1.0	1.0	1	0.08	blockFiles/set_13/main_safe/rightBlue\GB_RB_3.xlsx
9	main_safe	True	0.0	695	0	0.0	0.0	0.0	1	left	1.0	1.0	1.0	0	-0.08	blockFiles/set_13/main_safe/rightBlue\GB_RB_3.xlsx
10	main_safe	True	0.0	695	0	0.0	0.0	0.0	1	left	1.0	1.0	1.0	0	-0.08	blockFiles/set_13/main_safe/rightBlue\GB_RB_3.xlsx
11	main_safe	True	0.0	695	0	0.0	0.0	1.0	1	right	2.0	0.0	1.0	1	0.08	blockFiles/set_13/main_safe/rightBlue\GB_RB_3.xlsx
12	main_safe	True	0.0	695	0	0.0	0.0	0.0	1	left	1.0	1.0	1.0	0	-0.08	blockFiles/set_13/main_safe/rightBlue\GB_RB_3.xlsx
13	main_safe	True	0.0	695	0	0.0	0.0	1.0	1	right	2.0	1.0	1.0	1	0.08	blockFiles/set_13/main_safe/rightBlue\GB_RB_3.xlsx
14	main_safe	True	0.0	695	0	0.0	0.0	0.0	1	left	1.0	1.0	1.0	0	-0.08	blockFiles/set_13/main_safe/rightBlue\GB_RB_3.xlsx
15	main_safe	True	0.0	695	0	0.0	0.0	0.0	1	left	1.0	1.0	1.0	0	-0.08	blockFiles/set_13/main_safe/rightBlue\GB_RB_3.xlsx
16	main_safe	True	0.0	695	0	0.0	0.0	1.0	1	right	2.0	1.0	1.0	1	0.08	blockFiles/set_13/main_safe/rightBlue\GB_RB_3.xlsx
17	main_safe	True	0.0	695	0	0.0	0.0	0.0	1	left	1.0	0.0	1.0	0	-0.08	blockFiles/set_13/main_safe/rightBlue\GB_RB_3.xlsx
18	main_safe	True	0.0	695	0	0.0	0.0	1.0	1	right	2.0	1.0	1.0	1	0.08	blockFiles/set_13/main_safe/rightBlue\GB_RB_3.xlsx
19	main_safe	True	0.0	695	0	0.0	0.0	0.0	1	left	1.0	1.0	1.0	0	-0.08	blockFiles/set_13/main_safe/rightBlue\GB_RB_3.xlsx
20	main_safe	True	0.0	695	0	0.0	0.0	1.0	1	right	2.0	0.0	1.0	1	0.08	blockFiles/set_13/main_safe/rightBlue\GB_RB_3.xlsx
21	main_safe	True	0.0	695	0	0.0	0.0	0.0	1	left	1.0	1.0	1.0	0	-0.08	blockFiles/set_13/main_safe/rightBlue\GB_RB_3.xlsx
22	main_safe	True	0.0	695	0	0.0	0.0	0.0	1	left	1.0	0.0	1.0	0	-0.08	blockFiles/set_13/main_safe/rightBlue\GB_RB_3.xlsx
23	main_safe	True	0.0	695	0	0.0	0.0	1.0	1	right	2.0	1.0	1.0	1	0.08	blockFiles/set_13/main_safe/rightBlue\GB_RB_3.xlsx
24	main_safe	True	0.0	695	0	0.0	0.0	0.0	1	left	1.0	0.0	1.0	0	-0.08	blockFiles/set_13/main_safe/rightBlue\GB_RB_3.xlsx
25	main_safe	True	0.0	695	0	0.0	0.0	1.0	1	right	2.0	1.0	1.0	1	0.08	blockFiles/set_13/main_safe/rightBlue\GB_RB_3.xlsx
26	main_safe	True	0.0	695	0	1.0	1.0	0.0	1	left	1.0	1.0	0.0	0	-0.08	blockFiles/set_13/main_safe/leftBlue\GB_LB_1.xlsx
27	main_safe	True	0.0	695	0	1.0	1.0	1.0	1	right	2.0	0.0	0.0	1	0.08	blockFiles/set_13/main_safe/leftBlue\GB_LB_1.xlsx
28	main_safe	True	0.0	695	0	1.0	1.0	0.0	1	left	1.0	0.0	0.0	0	-0.08	blockFiles/set_13/main_safe/leftBlue\GB_LB_1.xlsx
29	main_safe	True	0.0	695	0	1.0	1.0	1.0	1	right	1.0	0.0	1.0	1	0.08	blockFiles/set_13/main_safe/leftBlue\GB_LB_1.xlsx
30	main_safe	True	0.0	695	0	1.0	1.0	0.0	1	left	1.0	0.0	0.0	0	-0.08	blockFiles/set_13/main_safe/leftBlue\GB_LB_1.xlsx
31	main_safe	True	0.0	695	0	1.0	1.0	1.0	1	right	1.0	1.0	1.0	1	0.08	blockFiles/set_13/main_safe/leftBlue\GB_LB_1.xlsx
32	main_safe	True	0.0	695	0	1.0	1.0	1.0	1	right	1.0	1.0	1.0	1	0.08	blockFiles/set_13/main_safe/leftBlue\GB_LB_1.xlsx
33	main_safe	True	0.0	695	0	1.0	1.0	0.0	1	left	2.0	1.0	1.0	0	-0.08	blockFiles/set_13/main_safe/leftBlue\GB_LB_1.xlsx
34	main_safe	True	0.0	695	0	1.0	1.0	1.0	1	right	1.0	1.0	1.0	1	0.08	blockFiles/set_13/main_safe/leftBlue\GB_LB_1.xlsx
35	main_safe	True	0.0	695	0	1.0	1.0	1.0	1	right	1.0	1.0	1.0	1	0.08	blockFiles/set_13/main_safe/leftBlue\GB_LB_1.xlsx
36	main_safe	True	0.0	695	0	1.0	1.0	1.0	1	right	1.0	1.0	1.0	1	0.08	blockFiles/set_13/main_safe/leftBlue\GB_LB_1.xlsx
37	main_safe	True	0.0	695	0	1.0	1.0	1.0	1	right	1.0	1.0	1.0	1	0.08	blockFiles/set_13/main_safe/leftBlue\GB_LB_1.xlsx
38	main_safe	True	0.0	695	0	1.0	1.0	1.0	1	right	1.0	1.0	1.0	1	0.08	blockFiles/set_13/main_safe/leftBlue\GB_LB_1.xlsx
39	main_safe	True	0.0	695	0	1.0	1.0	0.0	1	left	2.0	1.0	1.0	0	-0.08	blockFiles/set_13/main_safe/leftBlue\GB_LB_1.xlsx
40	main_safe	True	0.0	695	0	1.0	1.0	0.0	1	left	2.0	0.0	1.0	0	-0.08	blockFiles/set_13/main_safe/leftBlue\GB_LB_1.xlsx
41	main_safe	True	0.0	695	0	1.0	1.0	0.0	1	left	2.0	1.0	1.0	0	-0.08	blockFiles/set_13/main_safe/leftBlue\GB_LB_1.xlsx
42	main_safe	True	0.0	695	0	1.0	1.0	1.0	1	right	1.0	1.0	1.0	1	0.08	blockFiles/set_13/main_safe/leftBlue\GB_LB_1.xlsx
43	main_safe	True	0.0	695	0	1.0	1.0	0.0	1	left	2.0	1.0	1.0	0	-0.08	blockFiles/set_13/main_safe/leftBlue\GB_LB_1.xlsx
44	main_safe	True	0.0	695	0	1.0	1.0	0.0	1	left	1.0	0.0	0.0	0	-0.08	blockFiles/set_13/main_safe/leftBlue\GB_LB_1.xlsx
45	main_safe	True	0.0	695	0	1.0	1.0	1.0	1	right	1.0	0.0	1.0	1	0.08	blockFiles/set_13/main_safe/leftBlue\GB_LB_1.xlsx
46	main_safe	True	0.0	695	0	1.0	1.0	1.0	1	right	1.0	1.0	1.0	1	0.08	blockFiles/set_13/main_safe/leftBlue\GB_LB_1.xlsx
47	main_safe	True	0.0	695	0	1.0	1.0	0.0	1	left	2.0	1.0	1.0	0	-0.08	blockFiles/set_13/main_safe/leftBlue\GB_LB_1.xlsx
48	main_safe	True	0.0	695	0	1.0	1.0	0.0	1	left	1.0	0.0	0.0	0	-0.08	blockFiles/set_13/main_safe/leftBlue\GB_LB_1.xlsx
49	main_safe	True	0.0	695	0	1.0	1.0	0.0	1	left	2.0	0.0	1.0	0	-0.08	blockFiles/set_13/main_safe/leftBlue\GB_LB_1.xlsx
50	main_safe	True	0.0	695	0	1.0	1.0	1.0	1	right	2.0	0.0	0.0	1	0.08	blockFiles/set_13/main_safe/leftBlue\GB_LB_1.xlsx
51	main_safe	True	0.0	695	0	2.0	2.0	1.0	1	right	2.0	1.0	1.0	1	0.08	blockFiles/set_13/main_safe/rightBlue\GB_RB_1.xlsx
52	main_safe	True	0.0	695	0	2.0	2.0	0.0	1	left	1.0	1.0	1.0	0	-0.08	blockFiles/set_13/main_safe/rightBlue\GB_RB_1.xlsx
53	main_safe	True	0.0	695	0	2.0	2.0	0.0	1	left	1.0	1.0	1.0	0	-0.08	blockFiles/set_13/main_safe/rightBlue\GB_RB_1.xlsx
54	main_safe	True	0.0	695	0	2.0	2.0	0.0	1	left	2.0	0.0	0.0	0	-0.08	blockFiles/set_13/main_safe/rightBlue\GB_RB_1.xlsx
55	main_safe	True	0.0	695	0	2.0	2.0	0.0	1	left	1.0	1.0	1.0	0	-0.08	blockFiles/set_13/main_safe/rightBlue\GB_RB_1.xlsx
56	main_safe	True	0.0	695	0	2.0	2.0	1.0	1	right	2.0	1.0	1.0	1	0.08	blockFiles/set_13/main_safe/rightBlue\GB_RB_1.xlsx
57	main_safe	True	1.0	695	0	2.0	2.0	1.0	1	right	n/a	0.0	n/a	1	0.08	blockFiles/set_13/main_safe/rightBlue\GB_RB_1.xlsx
58	main_safe	True	0.0	695	0	2.0	2.0	1.0	1	right	2.0	1.0	1.0	1	0.08	blockFiles/set_13/main_safe/rightBlue\GB_RB_1.xlsx
59	main_safe	True	0.0	695	0	2.0	2.0	1.0	1	right	2.0	1.0	1.0	1	0.08	blockFiles/set_13/main_safe/rightBlue\GB_RB_1.xlsx
60	main_safe	True	0.0	695	0	2.0	2.0	1.0	1	right	2.0	1.0	1.0	1	0.08	blockFiles/set_13/main_safe/rightBlue\GB_RB_1.xlsx
61	main_safe	True	0.0	695	0	2.0	2.0	1.0	1	right	2.0	0.0	1.0	1	0.08	blockFiles/set_13/main_safe/rightBlue\GB_RB_1.xlsx
62	main_safe	True	0.0	695	0	2.0	2.0	0.0	1	left	1.0	1.0	1.0	0	-0.08	blockFiles/set_13/main_safe/rightBlue\GB_RB_1.xlsx
63	main_safe	True	0.0	695	0	2.0	2.0	0.0	1	left	1.0	1.0	1.0	0	-0.08	blockFiles/set_13/main_safe/rightBlue\GB_RB_1.xlsx
64	main_safe	True	0.0	695	0	2.0	2.0	0.0	1	left	1.0	1.0	1.0	0	-0.08	blockFiles/set_13/main_safe/rightBlue\GB_RB_1.xlsx
65	main_safe	True	0.0	695	0	2.0	2.0	0.0	0	left	1.0	0.0	0.0	1	0.08	blockFiles/set_13/main_safe/rightBlue\GB_RB_1.xlsx
66	main_safe	True	0.0	695	0	2.0	2.0	0.0	1	left	1.0	0.0	1.0	0	-0.08	blockFiles/set_13/main_safe/rightBlue\GB_RB_1.xlsx
67	main_safe	True	0.0	695	0	2.0	2.0	1.0	1	right	2.0	1.0	1.0	1	0.08	blockFiles/set_13/main_safe/rightBlue\GB_RB_1.xlsx
68	main_safe	True	0.0	695	0	2.0	2.0	0.0	1	left	1.0	0.0	1.0	0	-0.08	blockFiles/set_13/main_safe/rightBlue\GB_RB_1.xlsx
69	main_safe	True	0.0	695	0	2.0	2.0	1.0	1	right	2.0	1.0	1.0	1	0.08	blockFiles/set_13/main_safe/rightBlue\GB_RB_1.xlsx
70	main_safe	True	0.0	695	0	2.0	2.0	1.0	1	right	1.0	0.0	0.0	1	0.08	blockFiles/set_13/main_safe/rightBlue\GB_RB_1.xlsx
71	main_safe	True	0.0	695	0	2.0	2.0	1.0	1	right	2.0	0.0	1.0	1	0.08	blockFiles/set_13/main_safe/rightBlue\GB_RB_1.xlsx
72	main_safe	True	0.0	695	0	2.0	2.0	1.0	1	right	2.0	1.0	1.0	1	0.08	blockFiles/set_13/main_safe/rightBlue\GB_RB_1.xlsx
73	main_safe	True	0.0	695	0	2.0	2.0	0.0	1	left	1.0	0.0	1.0	0	-0.08	blockFiles/set_13/main_safe/rightBlue\GB_RB_1.xlsx
74	main_safe	True	0.0	695	0	2.0	2.0	0.0	1	left	1.0	0.0	1.0	0	-0.08	blockFiles/set_13/main_safe/rightBlue\GB_RB_1.xlsx
75	main_safe	True	0.0	695	0	2.0	2.0	0.0	1	left	1.0	1.0	1.0	0	-0.08	blockFiles/set_13/main_safe/rightBlue\GB_RB_1.xlsx
76	main_safe	True	0.0	695	0	2.0	2.0	1.0	1	right	2.0	1.0	1.0	1	0.08	blockFiles/set_13/main_safe/rightBlue\GB_RB_1.xlsx
77	main_safe	True	0.0	695	0	3.0	3.0	1.0	1	right	2.0	0.0	0.0	1	0.08	blockFiles/set_13/main_safe/leftBlue\GB_LB_3.xlsx
78	main_safe	True	0.0	695	0	3.0	3.0	0.0	1	left	2.0	1.0	1.0	0	-0.08	blockFiles/set_13/main_safe/leftBlue\GB_LB_3.xlsx
79	main_safe	True	0.0	695	0	3.0	3.0	1.0	1	right	1.0	0.0	1.0	1	0.08	blockFiles/set_13/main_safe/leftBlue\GB_LB_3.xlsx
80	main_safe	True	0.0	695	0	3.0	3.0	1.0	1	right	1.0	0.0	1.0	1	0.08	blockFiles/set_13/main_safe/leftBlue\GB_LB_3.xlsx
81	main_safe	True	0.0	695	0	3.0	3.0	0.0	1	left	2.0	1.0	1.0	0	-0.08	blockFiles/set_13/main_safe/leftBlue\GB_LB_3.xlsx
82	main_safe	True	0.0	695	0	3.0	3.0	1.0	1	right	1.0	1.0	1.0	1	0.08	blockFiles/set_13/main_safe/leftBlue\GB_LB_3.xlsx
83	main_safe	True	0.0	695	0	3.0	3.0	1.0	1	right	1.0	1.0	1.0	1	0.08	blockFiles/set_13/main_safe/leftBlue\GB_LB_3.xlsx
84	main_safe	True	0.0	695	0	3.0	3.0	0.0	1	left	2.0	1.0	1.0	0	-0.08	blockFiles/set_13/main_safe/leftBlue\GB_LB_3.xlsx
85	main_safe	True	0.0	695	0	3.0	3.0	0.0	1	left	2.0	1.0	1.0	0	-0.08	blockFiles/set_13/main_safe/leftBlue\GB_LB_3.xlsx
86	main_safe	True	0.0	695	0	3.0	3.0	1.0	1	right	1.0	1.0	1.0	1	0.08	blockFiles/set_13/main_safe/leftBlue\GB_LB_3.xlsx
87	main_safe	True	0.0	695	0	3.0	3.0	1.0	1	right	1.0	1.0	1.0	1	0.08	blockFiles/set_13/main_safe/leftBlue\GB_LB_3.xlsx
88	main_safe	True	0.0	695	0	3.0	3.0	0.0	1	left	2.0	1.0	1.0	0	-0.08	blockFiles/set_13/main_safe/leftBlue\GB_LB_3.xlsx
89	main_safe	True	0.0	695	0	3.0	3.0	1.0	1	right	2.0	0.0	0.0	1	0.08	blockFiles/set_13/main_safe/leftBlue\GB_LB_3.xlsx
90	main_safe	True	0.0	695	0	3.0	3.0	1.0	1	right	1.0	1.0	1.0	1	0.08	blockFiles/set_13/main_safe/leftBlue\GB_LB_3.xlsx
91	main_safe	True	0.0	695	0	3.0	3.0	1.0	1	right	1.0	1.0	1.0	1	0.08	blockFiles/set_13/main_safe/leftBlue\GB_LB_3.xlsx
92	main_safe	True	0.0	695	0	3.0	3.0	0.0	1	left	2.0	1.0	1.0	0	-0.08	blockFiles/set_13/main_safe/leftBlue\GB_LB_3.xlsx
93	main_safe	True	0.0	695	0	3.0	3.0	1.0	1	right	1.0	0.0	1.0	1	0.08	blockFiles/set_13/main_safe/leftBlue\GB_LB_3.xlsx
94	main_safe	True	0.0	695	0	3.0	3.0	0.0	1	left	2.0	1.0	1.0	0	-0.08	blockFiles/set_13/main_safe/leftBlue\GB_LB_3.xlsx
95	main_safe	True	0.0	695	0	3.0	3.0	0.0	1	left	2.0	0.0	1.0	0	-0.08	blockFiles/set_13/main_safe/leftBlue\GB_LB_3.xlsx
96	main_safe	True	0.0	695	0	3.0	3.0	0.0	1	left	2.0	1.0	1.0	0	-0.08	blockFiles/set_13/main_safe/leftBlue\GB_LB_3.xlsx
97	main_safe	True	0.0	695	0	3.0	3.0	0.0	1	left	1.0	1.0	0.0	0	-0.08	blockFiles/set_13/main_safe/leftBlue\GB_LB_3.xlsx
98	main_safe	True	0.0	695	0	3.0	3.0	1.0	1	right	1.0	1.0	1.0	1	0.08	blockFiles/set_13/main_safe/leftBlue\GB_LB_3.xlsx
99	main_safe	True	0.0	695	0	3.0	3.0	0.0	1	left	2.0	1.0	1.0	0	-0.08	blockFiles/set_13/main_safe/leftBlue\GB_LB_3.xlsx
100	main_safe	True	0.0	695	0	3.0	3.0	0.0	1	left	2.0	1.0	1.0	0	-0.08	blockFiles/set_13/main_safe/leftBlue\GB_LB_3.xlsx
101	main_safe	True	0.0	695	0	3.0	3.0	1.0	1	right	1.0	0.0	1.0	1	0.08	blockFiles/set_13/main_safe/leftBlue\GB_LB_3.xlsx
102	main_safe	True	0.0	695	0	4.0	4.0	0.0	1	left	1.0	1.0	0.0	0	-0.08	blockFiles/set_13/main_safe/leftBlue\GB_LB_2.xlsx
103	main_safe	True	0.0	695	0	4.0	4.0	1.0	1	right	2.0	0.0	0.0	1	0.08	blockFiles/set_13/main_safe/leftBlue\GB_LB_2.xlsx
104	main_safe	True	0.0	695	0	4.0	4.0	0.0	1	left	1.0	1.0	0.0	0	-0.08	blockFiles/set_13/main_safe/leftBlue\GB_LB_2.xlsx
105	main_safe	True	0.0	695	0	4.0	4.0	1.0	1	right	2.0	0.0	0.0	1	0.08	blockFiles/set_13/main_safe/leftBlue\GB_LB_2.xlsx
106	main_safe	True	0.0	695	0	4.0	4.0	1.0	1	right	2.0	0.0	0.0	1	0.08	blockFiles/set_13/main_safe/leftBlue\GB_LB_2.xlsx
107	main_safe	True	0.0	695	0	4.0	4.0	1.0	1	right	2.0	0.0	0.0	1	0.08	blockFiles/set_13/main_safe/leftBlue\GB_LB_2.xlsx
108	main_safe	True	0.0	695	0	4.0	4.0	1.0	1	right	1.0	1.0	1.0	1	0.08	blockFiles/set_13/main_safe/leftBlue\GB_LB_2.xlsx
109	main_safe	True	0.0	695	0	4.0	4.0	0.0	1	left	2.0	1.0	1.0	0	-0.08	blockFiles/set_13/main_safe/leftBlue\GB_LB_2.xlsx
110	main_safe	True	0.0	695	0	4.0	4.0	1.0	1	right	1.0	1.0	1.0	1	0.08	blockFiles/set_13/main_safe/leftBlue\GB_LB_2.xlsx
111	main_safe	True	0.0	695	0	4.0	4.0	0.0	1	left	2.0	1.0	1.0	0	-0.08	blockFiles/set_13/main_safe/leftBlue\GB_LB_2.xlsx
112	main_safe	True	0.0	695	0	4.0	4.0	0.0	1	left	2.0	1.0	1.0	0	-0.08	blockFiles/set_13/main_safe/leftBlue\GB_LB_2.xlsx
113	main_safe	True	0.0	695	0	4.0	4.0	0.0	1	left	2.0	1.0	1.0	0	-0.08	blockFiles/set_13/main_safe/leftBlue\GB_LB_2.xlsx
114	main_safe	True	0.0	695	0	4.0	4.0	0.0	0	left	2.0	1.0	0.0	1	0.08	blockFiles/set_13/main_safe/leftBlue\GB_LB_2.xlsx
115	main_safe	True	0.0	695	0	4.0	4.0	1.0	1	right	1.0	1.0	1.0	1	0.08	blockFiles/set_13/main_safe/leftBlue\GB_LB_2.xlsx
116	main_safe	True	0.0	695	0	4.0	4.0	1.0	1	right	1.0	1.0	1.0	1	0.08	blockFiles/set_13/main_safe/leftBlue\GB_LB_2.xlsx
117	main_safe	True	0.0	695	0	4.0	4.0	1.0	1	right	1.0	1.0	1.0	1	0.08	blockFiles/set_13/main_safe/leftBlue\GB_LB_2.xlsx
118	main_safe	True	0.0	695	0	4.0	4.0	1.0	1	right	1.0	1.0	1.0	1	0.08	blockFiles/set_13/main_safe/leftBlue\GB_LB_2.xlsx
119	main_safe	True	0.0	695	0	4.0	4.0	0.0	1	left	2.0	0.0	1.0	0	-0.08	blockFiles/set_13/main_safe/leftBlue\GB_LB_2.xlsx
120	main_safe	True	0.0	695	0	4.0	4.0	0.0	1	left	2.0	1.0	1.0	0	-0.08	blockFiles/set_13/main_safe/leftBlue\GB_LB_2.xlsx
121	main_safe	True	0.0	695	0	4.0	4.0	1.0	1	right	1.0	1.0	1.0	1	0.08	blockFiles/set_13/main_safe/leftBlue\GB_LB_2.xlsx
122	main_safe	True	0.0	695	0	4.0	4.0	0.0	1	left	1.0	0.0	0.0	0	-0.08	blockFiles/set_13/main_safe/leftBlue\GB_LB_2.xlsx
123	main_safe	True	0.0	695	0	4.0	4.0	0.0	1	left	2.0	1.0	1.0	0	-0.08	blockFiles/set_13/main_safe/leftBlue\GB_LB_2.xlsx
124	main_safe	True	0.0	695	0	4.0	4.0	0.0	1	left	2.0	1.0	1.0	0	-0.08	blockFiles/set_13/main_safe/leftBlue\GB_LB_2.xlsx
125	main_safe	True	0.0	695	0	4.0	4.0	1.0	1	right	1.0	1.0	1.0	1	0.08	blockFiles/set_13/main_safe/leftBlue\GB_LB_2.xlsx
126	main_safe	True	0.0	695	0	4.0	4.0	0.0	1	left	2.0	1.0	1.0	0	-0.08	blockFiles/set_13/main_safe/leftBlue\GB_LB_2.xlsx
127	main_safe	True	0.0	695	0	5.0	5.0	1.0	1	right	2.0	1.0	1.0	1	0.08	blockFiles/set_13/main_safe/rightBlue\GB_RB_2.xlsx
128	main_safe	True	0.0	695	0	5.0	5.0	0.0	1	left	1.0	1.0	1.0	0	-0.08	blockFiles/set_13/main_safe/rightBlue\GB_RB_2.xlsx
129	main_safe	True	0.0	695	0	5.0	5.0	0.0	1	left	1.0	0.0	1.0	0	-0.08	blockFiles/set_13/main_safe/rightBlue\GB_RB_2.xlsx
130	main_safe	True	0.0	695	0	5.0	5.0	0.0	1	left	1.0	1.0	1.0	0	-0.08	blockFiles/set_13/main_safe/rightBlue\GB_RB_2.xlsx
131	main_safe	True	0.0	695	0	5.0	5.0	1.0	1	right	2.0	1.0	1.0	1	0.08	blockFiles/set_13/main_safe/rightBlue\GB_RB_2.xlsx
132	main_safe	True	0.0	695	0	5.0	5.0	1.0	1	right	2.0	0.0	1.0	1	0.08	blockFiles/set_13/main_safe/rightBlue\GB_RB_2.xlsx
133	main_safe	True	0.0	695	0	5.0	5.0	1.0	1	right	2.0	1.0	1.0	1	0.08	blockFiles/set_13/main_safe/rightBlue\GB_RB_2.xlsx
134	main_safe	True	0.0	695	0	5.0	5.0	0.0	1	left	1.0	1.0	1.0	0	-0.08	blockFiles/set_13/main_safe/rightBlue\GB_RB_2.xlsx
135	main_safe	True	0.0	695	0	5.0	5.0	1.0	1	right	2.0	0.0	1.0	1	0.08	blockFiles/set_13/main_safe/rightBlue\GB_RB_2.xlsx
136	main_safe	True	0.0	695	0	5.0	5.0	1.0	1	right	2.0	0.0	1.0	1	0.08	blockFiles/set_13/main_safe/rightBlue\GB_RB_2.xlsx
137	main_safe	True	0.0	695	0	5.0	5.0	1.0	1	right	2.0	1.0	1.0	1	0.08	blockFiles/set_13/main_safe/rightBlue\GB_RB_2.xlsx
138	main_safe	True	0.0	695	0	5.0	5.0	1.0	1	right	2.0	1.0	1.0	1	0.08	blockFiles/set_13/main_safe/rightBlue\GB_RB_2.xlsx
139	main_safe	True	0.0	695	0	5.0	5.0	0.0	1	left	1.0	0.0	1.0	0	-0.08	blockFiles/set_13/main_safe/rightBlue\GB_RB_2.xlsx
140	main_safe	True	0.0	695	0	5.0	5.0	1.0	1	right	2.0	1.0	1.0	1	0.08	blockFiles/set_13/main_safe/rightBlue\GB_RB_2.xlsx
141	main_safe	True	0.0	695	0	5.0	5.0	0.0	1	left	1.0	1.0	1.0	0	-0.08	blockFiles/set_13/main_safe/rightBlue\GB_RB_2.xlsx
142	main_safe	True	0.0	695	0	5.0	5.0	0.0	1	left	1.0	1.0	1.0	0	-0.08	blockFiles/set_13/main_safe/rightBlue\GB_RB_2.xlsx
143	main_safe	True	0.0	695	0	5.0	5.0	1.0	1	right	2.0	1.0	1.0	1	0.08	blockFiles/set_13/main_safe/rightBlue\GB_RB_2.xlsx
144	main_safe	True	0.0	695	0	5.0	5.0	0.0	1	left	1.0	1.0	1.0	0	-0.08	blockFiles/set_13/main_safe/rightBlue\GB_RB_2.xlsx
145	main_safe	True	0.0	695	0	5.0	5.0	0.0	1	left	2.0	0.0	0.0	0	-0.08	blockFiles/set_13/main_safe/rightBlue\GB_RB_2.xlsx
146	main_safe	True	0.0	695	0	5.0	5.0	0.0	1	left	1.0	1.0	1.0	0	-0.08	blockFiles/set_13/main_safe/rightBlue\GB_RB_2.xlsx
147	main_safe	True	1.0	695	0	5.0	5.0	n/a	0	None	n/a	0.0	n/a	0	-0.08	blockFiles/set_13/main_safe/rightBlue\GB_RB_2.xlsx
148	main_safe	True	0.0	695	0	5.0	5.0	1.0	1	right	2.0	1.0	1.0	1	0.08	blockFiles/set_13/main_safe/rightBlue\GB_RB_2.xlsx
149	main_safe	True	0.0	695	0	5.0	5.0	1.0	1	right	2.0	1.0	1.0	1	0.08	blockFiles/set_13/main_safe/rightBlue\GB_RB_2.xlsx
150	main_safe	True	0.0	695	0	5.0	5.0	0.0	1	left	2.0	0.0	0.0	0	-0.08	blockFiles/set_13/main_safe/rightBlue\GB_RB_2.xlsx
151	main_safe	True	0.0	695	0	5.0	5.0	1.0	1	right	2.0	1.0	1.0	1	0.08	blockFiles/set_13/main_safe/rightBlue\GB_RB_2.xlsx
152	main_safe	True	0.0	695	0	5.0	5.0	0.0	1	left	1.0	1.0	1.0	0	-0.08	blockFiles/set_13/main_safe/rightBlue\GB_RB_2.xlsx
153	patches	True	n/a	695	0	n/a	n/a	1.0	1	right	n/a	n/a	n/a	1	0.0016823195852300001	blockFiles/set_13/main_PD/GB_runPatches1.xlsx
154	patches	True	n/a	695	0	n/a	n/a	0.0	0	left	n/a	n/a	n/a	1	0.00156604386866	blockFiles/set_13/main_PD/GB_runPatches1.xlsx
155	patches	True	n/a	695	0	n/a	n/a	0.0	1	left	n/a	n/a	n/a	0	-0.0508703857474	blockFiles/set_13/main_PD/GB_runPatches1.xlsx
156	patches	True	n/a	695	0	n/a	n/a	1.0	1	right	n/a	n/a	n/a	1	0.0538410066441	blockFiles/set_13/main_PD/GB_runPatches1.xlsx
157	patches	True	n/a	695	0	n/a	n/a	1.0	1	right	n/a	n/a	n/a	1	0.056769878044699996	blockFiles/set_13/main_PD/GB_runPatches1.xlsx
158	patches	True	n/a	695	0	n/a	n/a	0.0	1	left	n/a	n/a	n/a	0	-0.021653457805499998	blockFiles/set_13/main_PD/GB_runPatches1.xlsx
159	patches	True	n/a	695	0	n/a	n/a	0.0	1	left	n/a	n/a	n/a	0	-0.0466111634672	blockFiles/set_13/main_PD/GB_runPatches1.xlsx
160	patches	True	n/a	695	0	n/a	n/a	0.0	0	left	n/a	n/a	n/a	1	0.036033046133800005	blockFiles/set_13/main_PD/GB_runPatches1.xlsx
161	patches	True	n/a	695	0	n/a	n/a	0.0	1	left	n/a	n/a	n/a	0	-0.0173727451824	blockFiles/set_13/main_PD/GB_runPatches1.xlsx
162	patches	True	n/a	695	0	n/a	n/a	0.0	1	left	n/a	n/a	n/a	0	-0.020117123425	blockFiles/set_13/main_PD/GB_runPatches1.xlsx
163	patches	True	n/a	695	0	n/a	n/a	1.0	1	right	n/a	n/a	n/a	1	0.057329448107599996	blockFiles/set_13/main_PD/GB_runPatches1.xlsx
164	patches	True	n/a	695	0	n/a	n/a	0.0	1	left	n/a	n/a	n/a	0	-0.0799562437087	blockFiles/set_13/main_PD/GB_runPatches1.xlsx
165	patches	True	n/a	695	0	n/a	n/a	1.0	1	right	n/a	n/a	n/a	1	0.051488316860100004	blockFiles/set_13/main_PD/GB_runPatches1.xlsx
166	patches	True	n/a	695	0	n/a	n/a	1.0	0	right	n/a	n/a	n/a	0	-0.022493387721500002	blockFiles/set_13/main_PD/GB_runPatches1.xlsx
167	patches	True	n/a	695	0	n/a	n/a	0.0	1	left	n/a	n/a	n/a	0	-0.0381142294034	blockFiles/set_13/main_PD/GB_runPatches1.xlsx
168	patches	True	n/a	695	0	n/a	n/a	0.0	0	left	n/a	n/a	n/a	1	0.0130975140259	blockFiles/set_13/main_PD/GB_runPatches1.xlsx
169	patches	True	n/a	695	0	n/a	n/a	0.0	1	left	n/a	n/a	n/a	0	-0.0487790261582	blockFiles/set_13/main_PD/GB_runPatches1.xlsx
170	patches	True	n/a	695	0	n/a	n/a	1.0	0	right	n/a	n/a	n/a	0	-0.0675759243593	blockFiles/set_13/main_PD/GB_runPatches1.xlsx
171	patches	True	n/a	695	0	n/a	n/a	0.0	1	left	n/a	n/a	n/a	0	-0.00545238405466	blockFiles/set_13/main_PD/GB_runPatches1.xlsx
172	patches	True	n/a	695	0	n/a	n/a	1.0	1	right	n/a	n/a	n/a	1	0.027287969682400003	blockFiles/set_13/main_PD/GB_runPatches1.xlsx
173	patches	True	n/a	695	0	n/a	n/a	1.0	1	right	n/a	n/a	n/a	1	0.0394725863822	blockFiles/set_13/main_PD/GB_runPatches1.xlsx
174	patches	True	n/a	695	0	n/a	n/a	0.0	1	left	n/a	n/a	n/a	0	-0.0420403100178	blockFiles/set_13/main_PD/GB_runPatches1.xlsx
175	patches	True	n/a	695	0	n/a	n/a	0.0	1	left	n/a	n/a	n/a	0	-0.0642006279901	blockFiles/set_13/main_PD/GB_runPatches1.xlsx
176	patches	True	n/a	695	0	n/a	n/a	0.0	1	left	n/a	n/a	n/a	0	-0.0155277845263	blockFiles/set_13/main_PD/GB_runPatches1.xlsx
177	patches	True	n/a	695	0	n/a	n/a	0.0	1	left	n/a	n/a	n/a	0	-0.07896500427280001	blockFiles/set_13/main_PD/GB_runPatches1.xlsx
178	patches	True	n/a	695	0	n/a	n/a	0.0	1	left	n/a	n/a	n/a	0	-0.0030651774816199996	blockFiles/set_13/main_PD/GB_runPatches1.xlsx
179	patches	True	n/a	695	0	n/a	n/a	0.0	1	left	n/a	n/a	n/a	0	-0.0379258282669	blockFiles/set_13/main_PD/GB_runPatches1.xlsx
180	patches	True	n/a	695	0	n/a	n/a	n/a	0	None	n/a	n/a	n/a	0	-0.0393719535321	blockFiles/set_13/main_PD/GB_runPatches1.xlsx
181	patches	True	n/a	695	0	n/a	n/a	0.0	1	left	n/a	n/a	n/a	0	-0.05734121793880001	blockFiles/set_13/main_PD/GB_runPatches1.xlsx
182	patches	True	n/a	695	0	n/a	n/a	1.0	1	right	n/a	n/a	n/a	1	0.00175476895645	blockFiles/set_13/main_PD/GB_runPatches1.xlsx
183	patches	True	n/a	695	0	n/a	n/a	0.0	0	left	n/a	n/a	n/a	1	0.0069747779332099994	blockFiles/set_13/main_PD/GB_runPatches1.xlsx
184	patches	True	n/a	695	0	n/a	n/a	1.0	1	right	n/a	n/a	n/a	1	0.045095451325199994	blockFiles/set_13/main_PD/GB_runPatches1.xlsx
185	patches	True	n/a	695	0	n/a	n/a	1.0	1	right	n/a	n/a	n/a	1	0.06798112168909999	blockFiles/set_13/main_PD/GB_runPatches1.xlsx
186	patches	True	n/a	695	0	n/a	n/a	1.0	0	right	n/a	n/a	n/a	0	-0.0345014011115	blockFiles/set_13/main_PD/GB_runPatches1.xlsx
187	patches	True	n/a	695	0	n/a	n/a	1.0	1	right	n/a	n/a	n/a	1	0.022119666915400002	blockFiles/set_13/main_PD/GB_runPatches1.xlsx
188	patches	True	n/a	695	0	n/a	n/a	1.0	1	right	n/a	n/a	n/a	1	0.0746187650785	blockFiles/set_13/main_PD/GB_runPatches1.xlsx
189	patches	True	n/a	695	0	n/a	n/a	1.0	1	right	n/a	n/a	n/a	1	0.0475682334602	blockFiles/set_13/main_PD/GB_runPatches1.xlsx
190	patches	True	n/a	695	0	n/a	n/a	0.0	1	left	n/a	n/a	n/a	0	-0.0169614397921	blockFiles/set_13/main_PD/GB_runPatches1.xlsx
191	patches	True	n/a	695	0	n/a	n/a	0.0	1	left	n/a	n/a	n/a	0	-0.0219520986453	blockFiles/set_13/main_PD/GB_runPatches1.xlsx
192	patches	True	n/a	695	0	n/a	n/a	1.0	1	right	n/a	n/a	n/a	1	0.07346491005269999	blockFiles/set_13/main_PD/GB_runPatches1.xlsx
193	patches	True	n/a	695	0	n/a	n/a	1.0	0	right	n/a	n/a	n/a	0	-0.025039419010299997	blockFiles/set_13/main_PD/GB_runPatches1.xlsx
194	patches	True	n/a	695	0	n/a	n/a	0.0	0	left	n/a	n/a	n/a	1	0.0208280241117	blockFiles/set_13/main_PD/GB_runPatches1.xlsx
195	patches	True	n/a	695	0	n/a	n/a	0.0	1	left	n/a	n/a	n/a	0	-0.0622212545946	blockFiles/set_13/main_PD/GB_runPatches1.xlsx
196	patches	True	n/a	695	0	n/a	n/a	0.0	1	left	n/a	n/a	n/a	0	-0.0444789416529	blockFiles/set_13/main_PD/GB_runPatches1.xlsx
197	patches	True	n/a	695	0	n/a	n/a	1.0	1	right	n/a	n/a	n/a	1	0.060772599205400006	blockFiles/set_13/main_PD/GB_runPatches1.xlsx
198	patches	True	n/a	695	0	n/a	n/a	1.0	1	right	n/a	n/a	n/a	1	0.00732930790633	blockFiles/set_13/main_PD/GB_runPatches1.xlsx
199	patches	True	n/a	695	0	n/a	n/a	1.0	1	right	n/a	n/a	n/a	1	0.030190208517	blockFiles/set_13/main_PD/GB_runPatches1.xlsx
200	patches	True	n/a	695	0	n/a	n/a	1.0	0	right	n/a	n/a	n/a	0	-0.022140989787900002	blockFiles/set_13/main_PD/GB_runPatches1.xlsx
201	patches	True	n/a	695	0	n/a	n/a	0.0	1	left	n/a	n/a	n/a	0	-0.07901644764469999	blockFiles/set_13/main_PD/GB_runPatches1.xlsx
202	patches	True	n/a	695	0	n/a	n/a	0.0	1	left	n/a	n/a	n/a	0	-0.06727771576489999	blockFiles/set_13/main_PD/GB_runPatches1.xlsx
203	patches	True	n/a	695	0	n/a	n/a	0.0	1	left	n/a	n/a	n/a	0	-0.05110019017009999	blockFiles/set_13/main_PD/GB_runPatches1.xlsx
204	patches	True	n/a	695	0	n/a	n/a	1.0	0	right	n/a	n/a	n/a	0	-0.017170365769400002	blockFiles/set_13/main_PD/GB_runPatches1.xlsx
205	patches	True	n/a	695	0	n/a	n/a	1.0	1	right	n/a	n/a	n/a	1	0.0071885880269099995	blockFiles/set_13/main_PD/GB_runPatches1.xlsx
206	patches	True	n/a	695	0	n/a	n/a	0.0	1	left	n/a	n/a	n/a	0	-0.0273678172566	blockFiles/set_13/main_PD/GB_runPatches1.xlsx
207	patches	True	n/a	695	0	n/a	n/a	1.0	1	right	n/a	n/a	n/a	1	0.07718606585639999	blockFiles/set_13/main_PD/GB_runPatches1.xlsx
208	patches	True	n/a	695	0	n/a	n/a	1.0	0	right	n/a	n/a	n/a	0	-0.0057637379691000004	blockFiles/set_13/main_PD/GB_runPatches1.xlsx
209	patches	True	n/a	695	0	n/a	n/a	1.0	1	right	n/a	n/a	n/a	1	0.0620315785147	blockFiles/set_13/main_PD/GB_runPatches1.xlsx
210	patches	True	n/a	695	0	n/a	n/a	0.0	1	left	n/a	n/a	n/a	0	-0.0177198878676	blockFiles/set_13/main_PD/GB_runPatches1.xlsx
211	patches	True	n/a	695	0	n/a	n/a	n/a	0	None	n/a	n/a	n/a	1	0.047328374888699995	blockFiles/set_13/main_PD/GB_runPatches1.xlsx
212	patches	True	n/a	695	0	n/a	n/a	0.0	1	left	n/a	n/a	n/a	0	-0.0610528864153	blockFiles/set_13/main_PD/GB_runPatches1.xlsx
213	patches	True	n/a	695	0	n/a	n/a	0.0	1	left	n/a	n/a	n/a	0	-0.0356033225544	blockFiles/set_13/main_PD/GB_runPatches1.xlsx
214	patches	True	n/a	695	0	n/a	n/a	1.0	1	right	n/a	n/a	n/a	1	0.0715818263777	blockFiles/set_13/main_PD/GB_runPatches1.xlsx
215	patches	True	n/a	695	0	n/a	n/a	1.0	1	right	n/a	n/a	n/a	1	0.0722485116869	blockFiles/set_13/main_PD/GB_runPatches1.xlsx
216	patches	True	n/a	695	0	n/a	n/a	1.0	1	right	n/a	n/a	n/a	1	0.00930906126276	blockFiles/set_13/main_PD/GB_runPatches1.xlsx
217	patches	True	n/a	695	0	n/a	n/a	0.0	1	left	n/a	n/a	n/a	0	-0.0264990105852	blockFiles/set_13/main_PD/GB_runPatches1.xlsx
218	patches	True	n/a	695	0	n/a	n/a	1.0	0	right	n/a	n/a	n/a	0	-0.0501583315991	blockFiles/set_13/main_PD/GB_runPatches1.xlsx
219	patches	True	n/a	695	0	n/a	n/a	0.0	1	left	n/a	n/a	n/a	0	-0.041646119281599996	blockFiles/set_13/main_PD/GB_runPatches1.xlsx
220	patches	True	n/a	695	0	n/a	n/a	0.0	1	left	n/a	n/a	n/a	0	-0.06882736396039998	blockFiles/set_13/main_PD/GB_runPatches1.xlsx
221	patches	True	n/a	695	0	n/a	n/a	0.0	0	left	n/a	n/a	n/a	1	0.04805602356790001	blockFiles/set_13/main_PD/GB_runPatches1.xlsx
222	patches	True	n/a	695	0	n/a	n/a	0.0	1	left	n/a	n/a	n/a	0	-0.0488791500777	blockFiles/set_13/main_PD/GB_runPatches1.xlsx
223	patches	True	n/a	695	0	n/a	n/a	0.0	0	left	n/a	n/a	n/a	1	0.0436878809705	blockFiles/set_13/main_PD/GB_runPatches1.xlsx
224	patches	True	n/a	695	0	n/a	n/a	0.0	1	left	n/a	n/a	n/a	0	-0.028803350906799998	blockFiles/set_13/main_PD/GB_runPatches1.xlsx
225	patches	True	n/a	695	0	n/a	n/a	0.0	0	left	n/a	n/a	n/a	1	0.00247115127742	blockFiles/set_13/main_PD/GB_runPatches1.xlsx
226	patches	True	n/a	695	0	n/a	n/a	1.0	1	right	n/a	n/a	n/a	1	0.0754989148304	blockFiles/set_13/main_PD/GB_runPatches1.xlsx
227	patches	True	n/a	695	0	n/a	n/a	1.0	1	right	n/a	n/a	n/a	1	0.058768797759	blockFiles/set_13/main_PD/GB_runPatches1.xlsx
228	patches	True	n/a	695	0	n/a	n/a	0.0	1	left	n/a	n/a	n/a	0	-0.0457842005789	blockFiles/set_13/main_PD/GB_runPatches1.xlsx
229	patches	True	n/a	695	0	n/a	n/a	0.0	0	left	n/a	n/a	n/a	1	0.038729030974199996	blockFiles/set_13/main_PD/GB_runPatches1.xlsx
230	patches	True	n/a	695	0	n/a	n/a	1.0	1	right	n/a	n/a	n/a	1	0.0376720360294	blockFiles/set_13/main_PD/GB_runPatches1.xlsx
231	patches	True	n/a	695	0	n/a	n/a	1.0	1	right	n/a	n/a	n/a	1	0.0795179783553	blockFiles/set_13/main_PD/GB_runPatches1.xlsx
232	patches	True	n/a	695	0	n/a	n/a	0.0	1	left	n/a	n/a	n/a	0	-0.00605841219425	blockFiles/set_13/main_PD/GB_runPatches1.xlsx
233	patches	True	n/a	695	0	n/a	n/a	0.0	1	left	n/a	n/a	n/a	0	-0.0450496404059	blockFiles/set_13/main_PD/GB_runPatches1.xlsx
234	patches	True	n/a	695	0	n/a	n/a	0.0	0	left	n/a	n/a	n/a	1	0.0269275196828	blockFiles/set_13/main_PD/GB_runPatches1.xlsx
235	patches	True	n/a	695	0	n/a	n/a	1.0	1	right	n/a	n/a	n/a	1	0.0535842220485	blockFiles/set_13/main_PD/GB_runPatches1.xlsx
236	patches	True	n/a	695	0	n/a	n/a	1.0	1	right	n/a	n/a	n/a	1	0.0591069975868	blockFiles/set_13/main_PD/GB_runPatches1.xlsx
237	patches	True	n/a	695	0	n/a	n/a	1.0	1	right	n/a	n/a	n/a	1	0.0702147401497	blockFiles/set_13/main_PD/GB_runPatches1.xlsx
238	patches	True	n/a	695	0	n/a	n/a	1.0	1	right	n/a	n/a	n/a	1	0.0282297501527	blockFiles/set_13/main_PD/GB_runPatches1.xlsx
239	patches	True	n/a	695	0	n/a	n/a	0.0	1	left	n/a	n/a	n/a	0	-0.0269721517153	blockFiles/set_13/main_PD/GB_runPatches1.xlsx
240	patches	True	n/a	695	0	n/a	n/a	1.0	1	right	n/a	n/a	n/a	1	0.021024633720499997	blockFiles/set_13/main_PD/GB_runPatches1.xlsx
241	patches	True	n/a	695	0	n/a	n/a	1.0	0	right	n/a	n/a	n/a	0	-0.0698000939563	blockFiles/set_13/main_PD/GB_runPatches1.xlsx
242	patches	True	n/a	695	0	n/a	n/a	0.0	1	left	n/a	n/a	n/a	0	-0.06920135166500001	blockFiles/set_13/main_PD/GB_runPatches1.xlsx
243	patches	True	n/a	695	0	n/a	n/a	0.0	1	left	n/a	n/a	n/a	0	-0.017173164188899998	blockFiles/set_13/main_PD/GB_runPatches1.xlsx
244	patches	True	n/a	695	0	n/a	n/a	0.0	0	left	n/a	n/a	n/a	1	0.0109167840332	blockFiles/set_13/main_PD/GB_runPatches1.xlsx
245	patches	True	n/a	695	0	n/a	n/a	1.0	1	right	n/a	n/a	n/a	1	0.0667500225268	blockFiles/set_13/main_PD/GB_runPatches1.xlsx
246	patches	True	n/a	695	0	n/a	n/a	1.0	1	right	n/a	n/a	n/a	1	0.07673748899249999	blockFiles/set_13/main_PD/GB_runPatches1.xlsx
247	patches	True	n/a	695	0	n/a	n/a	1.0	0	right	n/a	n/a	n/a	0	-0.0363632315025	blockFiles/set_13/main_PD/GB_runPatches1.xlsx
248	patches	True	n/a	695	0	n/a	n/a	0.0	1	left	n/a	n/a	n/a	0	-0.014293918777299998	blockFiles/set_13/main_PD/GB_runPatches1.xlsx
249	patches	True	n/a	695	0	n/a	n/a	0.0	0	left	n/a	n/a	n/a	1	0.0459487631917	blockFiles/set_13/main_PD/GB_runPatches1.xlsx
250	patches	True	n/a	695	0	n/a	n/a	1.0	1	right	n/a	n/a	n/a	1	0.059218879696	blockFiles/set_13/main_PD/GB_runPatches1.xlsx
251	patches	True	n/a	695	0	n/a	n/a	1.0	1	right	n/a	n/a	n/a	1	0.0316987606324	blockFiles/set_13/main_PD/GB_runPatches1.xlsx
252	patches	True	n/a	695	0	n/a	n/a	0.0	0	left	n/a	n/a	n/a	1	0.057152885757400004	blockFiles/set_13/main_PD/GB_runPatches1.xlsx
253	main_unc	True	0.0	695	0	0.0	0.0	0.0	1	left	2.0	1.0	1.0	0	-0.00544125543907	blockFiles/set_13/main_unc/leftBlue\GB_LB_5.xlsx
254	main_unc	True	0.0	695	0	0.0	0.0	0.0	1	left	2.0	0.0	1.0	0	-0.0594867176563	blockFiles/set_13/main_unc/leftBlue\GB_LB_5.xlsx
255	main_unc	True	0.0	695	0	0.0	0.0	1.0	1	right	1.0	1.0	1.0	1	0.04926530688999999	blockFiles/set_13/main_unc/leftBlue\GB_LB_5.xlsx
256	main_unc	True	0.0	695	0	0.0	0.0	0.0	0	left	2.0	0.0	0.0	1	0.0122831970081	blockFiles/set_13/main_unc/leftBlue\GB_LB_5.xlsx
257	main_unc	True	0.0	695	0	0.0	0.0	1.0	1	right	1.0	1.0	1.0	1	0.0593744291738	blockFiles/set_13/main_unc/leftBlue\GB_LB_5.xlsx
258	main_unc	True	0.0	695	0	0.0	0.0	0.0	1	left	2.0	1.0	1.0	0	-0.0266309364326	blockFiles/set_13/main_unc/leftBlue\GB_LB_5.xlsx
259	main_unc	True	0.0	695	0	0.0	0.0	1.0	1	right	1.0	1.0	1.0	1	0.029251704812	blockFiles/set_13/main_unc/leftBlue\GB_LB_5.xlsx
260	main_unc	True	0.0	695	0	0.0	0.0	0.0	1	left	2.0	0.0	1.0	0	-0.054356932323400005	blockFiles/set_13/main_unc/leftBlue\GB_LB_5.xlsx
261	main_unc	True	0.0	695	0	0.0	0.0	1.0	1	right	1.0	1.0	1.0	1	0.03455779716369999	blockFiles/set_13/main_unc/leftBlue\GB_LB_5.xlsx
262	main_unc	True	0.0	695	0	0.0	0.0	0.0	0	left	1.0	1.0	1.0	1	0.0640524279512	blockFiles/set_13/main_unc/leftBlue\GB_LB_5.xlsx
263	main_unc	True	0.0	695	0	0.0	0.0	1.0	1	right	1.0	0.0	1.0	1	0.0441779321432	blockFiles/set_13/main_unc/leftBlue\GB_LB_5.xlsx
264	main_unc	True	0.0	695	0	0.0	0.0	1.0	1	right	2.0	0.0	0.0	1	0.0344345728308	blockFiles/set_13/main_unc/leftBlue\GB_LB_5.xlsx
265	main_unc	True	0.0	695	0	0.0	0.0	0.0	1	left	2.0	0.0	1.0	0	-0.0218871831708	blockFiles/set_13/main_unc/leftBlue\GB_LB_5.xlsx
266	main_unc	True	0.0	695	0	0.0	0.0	0.0	1	left	1.0	0.0	0.0	0	-0.07964081637560001	blockFiles/set_13/main_unc/leftBlue\GB_LB_5.xlsx
267	main_unc	True	0.0	695	0	0.0	0.0	1.0	1	right	1.0	0.0	1.0	1	0.059980454072400005	blockFiles/set_13/main_unc/leftBlue\GB_LB_5.xlsx
268	main_unc	True	0.0	695	0	0.0	0.0	1.0	0	right	1.0	0.0	0.0	0	-0.0180155273899	blockFiles/set_13/main_unc/leftBlue\GB_LB_5.xlsx
269	main_unc	True	0.0	695	0	0.0	0.0	0.0	0	left	1.0	1.0	1.0	1	0.0726349885575	blockFiles/set_13/main_unc/leftBlue\GB_LB_5.xlsx
270	main_unc	True	0.0	695	0	0.0	0.0	0.0	1	left	1.0	0.0	0.0	0	-0.010829014498700001	blockFiles/set_13/main_unc/leftBlue\GB_LB_5.xlsx
271	main_unc	True	0.0	695	0	0.0	0.0	1.0	1	right	1.0	1.0	1.0	1	0.04422807155180001	blockFiles/set_13/main_unc/leftBlue\GB_LB_5.xlsx
272	main_unc	True	0.0	695	0	0.0	0.0	0.0	1	left	2.0	1.0	1.0	0	-0.0467259817012	blockFiles/set_13/main_unc/leftBlue\GB_LB_5.xlsx
273	main_unc	True	0.0	695	0	0.0	0.0	1.0	1	right	1.0	1.0	1.0	1	0.0495233886689	blockFiles/set_13/main_unc/leftBlue\GB_LB_5.xlsx
274	main_unc	True	0.0	695	0	0.0	0.0	0.0	1	left	2.0	1.0	1.0	0	-0.0707483168133	blockFiles/set_13/main_unc/leftBlue\GB_LB_5.xlsx
275	main_unc	True	0.0	695	0	0.0	0.0	1.0	1	right	1.0	1.0	1.0	1	0.049016523081800004	blockFiles/set_13/main_unc/leftBlue\GB_LB_5.xlsx
276	main_unc	True	0.0	695	0	0.0	0.0	0.0	1	left	2.0	1.0	1.0	0	-0.0291661945358	blockFiles/set_13/main_unc/leftBlue\GB_LB_5.xlsx
277	main_unc	True	0.0	695	0	0.0	0.0	1.0	0	right	1.0	0.0	0.0	0	-0.024642454627900004	blockFiles/set_13/main_unc/leftBlue\GB_LB_5.xlsx
278	main_unc	True	0.0	695	0	1.0	1.0	1.0	1	right	1.0	0.0	1.0	1	0.0108146628737	blockFiles/set_13/main_unc/leftBlue\GB_LB_3.xlsx
279	main_unc	True	0.0	695	0	1.0	1.0	0.0	1	left	2.0	1.0	1.0	0	-0.0777886553295	blockFiles/set_13/main_unc/leftBlue\GB_LB_3.xlsx
280	main_unc	True	0.0	695	0	1.0	1.0	0.0	1	left	2.0	0.0	1.0	0	-0.062980555594	blockFiles/set_13/main_unc/leftBlue\GB_LB_3.xlsx
281	main_unc	True	0.0	695	0	1.0	1.0	0.0	0	left	2.0	0.0	0.0	1	0.019512828830599998	blockFiles/set_13/main_unc/leftBlue\GB_LB_3.xlsx
282	main_unc	True	0.0	695	0	1.0	1.0	0.0	0	left	1.0	1.0	1.0	1	0.03787158908319999	blockFiles/set_13/main_unc/leftBlue\GB_LB_3.xlsx
283	main_unc	True	0.0	695	0	1.0	1.0	1.0	1	right	1.0	1.0	1.0	1	0.058335484620199995	blockFiles/set_13/main_unc/leftBlue\GB_LB_3.xlsx
284	main_unc	True	0.0	695	0	1.0	1.0	1.0	1	right	1.0	0.0	1.0	1	0.0347234287485	blockFiles/set_13/main_unc/leftBlue\GB_LB_3.xlsx
285	main_unc	True	0.0	695	0	1.0	1.0	0.0	1	left	2.0	1.0	1.0	0	-0.022770352009700002	blockFiles/set_13/main_unc/leftBlue\GB_LB_3.xlsx
286	main_unc	True	0.0	695	0	1.0	1.0	1.0	1	right	2.0	0.0	0.0	1	0.056407177299300004	blockFiles/set_13/main_unc/leftBlue\GB_LB_3.xlsx
287	main_unc	True	0.0	695	0	1.0	1.0	1.0	1	right	1.0	1.0	1.0	1	0.0701473461837	blockFiles/set_13/main_unc/leftBlue\GB_LB_3.xlsx
288	main_unc	True	0.0	695	0	1.0	1.0	1.0	1	right	1.0	1.0	1.0	1	0.038963100314099997	blockFiles/set_13/main_unc/leftBlue\GB_LB_3.xlsx
289	main_unc	True	0.0	695	0	1.0	1.0	1.0	0	right	1.0	0.0	0.0	0	-0.00143804391846	blockFiles/set_13/main_unc/leftBlue\GB_LB_3.xlsx
290	main_unc	True	0.0	695	0	1.0	1.0	0.0	1	left	2.0	1.0	1.0	0	-0.0705995635688	blockFiles/set_13/main_unc/leftBlue\GB_LB_3.xlsx
291	main_unc	True	0.0	695	0	1.0	1.0	1.0	1	right	1.0	1.0	1.0	1	0.0586669160984	blockFiles/set_13/main_unc/leftBlue\GB_LB_3.xlsx
292	main_unc	True	0.0	695	0	1.0	1.0	0.0	1	left	2.0	1.0	1.0	0	-0.0639095653966	blockFiles/set_13/main_unc/leftBlue\GB_LB_3.xlsx
293	main_unc	True	0.0	695	0	1.0	1.0	0.0	1	left	2.0	1.0	1.0	0	-0.0163593926094	blockFiles/set_13/main_unc/leftBlue\GB_LB_3.xlsx
294	main_unc	True	0.0	695	0	1.0	1.0	0.0	1	left	1.0	1.0	0.0	0	-0.023616922330099994	blockFiles/set_13/main_unc/leftBlue\GB_LB_3.xlsx
295	main_unc	True	0.0	695	0	1.0	1.0	0.0	1	left	2.0	0.0	1.0	0	-0.0093839694187	blockFiles/set_13/main_unc/leftBlue\GB_LB_3.xlsx
296	main_unc	True	0.0	695	0	1.0	1.0	1.0	1	right	2.0	0.0	0.0	1	0.0320915343985	blockFiles/set_13/main_unc/leftBlue\GB_LB_3.xlsx
297	main_unc	True	0.0	695	0	1.0	1.0	1.0	1	right	2.0	0.0	0.0	1	0.049848823100300005	blockFiles/set_13/main_unc/leftBlue\GB_LB_3.xlsx
298	main_unc	True	0.0	695	0	1.0	1.0	0.0	1	left	1.0	0.0	0.0	0	-0.0363501347788	blockFiles/set_13/main_unc/leftBlue\GB_LB_3.xlsx
299	main_unc	True	0.0	695	0	1.0	1.0	1.0	1	right	2.0	0.0	0.0	1	0.07437512263660001	blockFiles/set_13/main_unc/leftBlue\GB_LB_3.xlsx
300	main_unc	True	0.0	695	0	1.0	1.0	0.0	1	left	1.0	0.0	0.0	0	-0.0309975056723	blockFiles/set_13/main_unc/leftBlue\GB_LB_3.xlsx
301	main_unc	True	0.0	695	0	1.0	1.0	1.0	1	right	2.0	0.0	0.0	1	0.0348860637285	blockFiles/set_13/main_unc/leftBlue\GB_LB_3.xlsx
302	main_unc	True	0.0	695	0	1.0	1.0	0.0	1	left	2.0	1.0	1.0	0	-0.023931867144999997	blockFiles/set_13/main_unc/leftBlue\GB_LB_3.xlsx
303	main_unc	True	0.0	695	0	2.0	2.0	0.0	1	left	1.0	0.0	0.0	0	-0.0039634690620000005	blockFiles/set_13/main_unc/leftBlue\GB_LB_2.xlsx
304	main_unc	True	0.0	695	0	2.0	2.0	0.0	0	left	2.0	0.0	0.0	1	0.0266830890067	blockFiles/set_13/main_unc/leftBlue\GB_LB_2.xlsx
305	main_unc	True	0.0	695	0	2.0	2.0	0.0	0	left	2.0	1.0	0.0	1	0.0574561330117	blockFiles/set_13/main_unc/leftBlue\GB_LB_2.xlsx
306	main_unc	True	0.0	695	0	2.0	2.0	0.0	1	left	2.0	1.0	1.0	0	-0.052351085003500004	blockFiles/set_13/main_unc/leftBlue\GB_LB_2.xlsx
307	main_unc	True	0.0	695	0	2.0	2.0	0.0	0	left	2.0	0.0	0.0	1	0.0648981125839	blockFiles/set_13/main_unc/leftBlue\GB_LB_2.xlsx
308	main_unc	True	0.0	695	0	2.0	2.0	0.0	0	left	2.0	0.0	0.0	1	0.0091318317689	blockFiles/set_13/main_unc/leftBlue\GB_LB_2.xlsx
309	main_unc	True	0.0	695	0	2.0	2.0	1.0	1	right	1.0	1.0	1.0	1	0.0684075660631	blockFiles/set_13/main_unc/leftBlue\GB_LB_2.xlsx
310	main_unc	True	0.0	695	0	2.0	2.0	1.0	0	right	1.0	0.0	0.0	0	-0.015311745964	blockFiles/set_13/main_unc/leftBlue\GB_LB_2.xlsx
311	main_unc	True	0.0	695	0	2.0	2.0	0.0	1	left	1.0	0.0	0.0	0	-0.058425807431300006	blockFiles/set_13/main_unc/leftBlue\GB_LB_2.xlsx
312	main_unc	True	0.0	695	0	2.0	2.0	1.0	1	right	1.0	1.0	1.0	1	0.04747636217619999	blockFiles/set_13/main_unc/leftBlue\GB_LB_2.xlsx
313	main_unc	True	0.0	695	0	2.0	2.0	0.0	1	left	2.0	0.0	1.0	0	-0.0378915188089	blockFiles/set_13/main_unc/leftBlue\GB_LB_2.xlsx
314	main_unc	True	0.0	695	0	2.0	2.0	0.0	1	left	1.0	0.0	0.0	0	-0.07184301937000001	blockFiles/set_13/main_unc/leftBlue\GB_LB_2.xlsx
315	main_unc	True	0.0	695	0	2.0	2.0	1.0	1	right	2.0	1.0	0.0	1	0.046341540049800005	blockFiles/set_13/main_unc/leftBlue\GB_LB_2.xlsx
316	main_unc	True	0.0	695	0	2.0	2.0	0.0	1	left	2.0	1.0	1.0	0	-0.0070186743698999994	blockFiles/set_13/main_unc/leftBlue\GB_LB_2.xlsx
317	main_unc	True	0.0	695	0	2.0	2.0	1.0	1	right	1.0	1.0	1.0	1	0.058534981124099994	blockFiles/set_13/main_unc/leftBlue\GB_LB_2.xlsx
318	main_unc	True	0.0	695	0	2.0	2.0	0.0	1	left	1.0	0.0	0.0	0	-0.038285309989	blockFiles/set_13/main_unc/leftBlue\GB_LB_2.xlsx
319	main_unc	True	0.0	695	0	2.0	2.0	1.0	1	right	1.0	0.0	1.0	1	0.0465428817086	blockFiles/set_13/main_unc/leftBlue\GB_LB_2.xlsx
320	main_unc	True	0.0	695	0	2.0	2.0	0.0	1	left	2.0	1.0	1.0	0	-0.04338599668819999	blockFiles/set_13/main_unc/leftBlue\GB_LB_2.xlsx
321	main_unc	True	0.0	695	0	2.0	2.0	0.0	0	left	2.0	0.0	0.0	1	0.0382899737731	blockFiles/set_13/main_unc/leftBlue\GB_LB_2.xlsx
322	main_unc	True	0.0	695	0	2.0	2.0	1.0	0	right	1.0	1.0	0.0	0	-0.017302318383	blockFiles/set_13/main_unc/leftBlue\GB_LB_2.xlsx
323	main_unc	True	0.0	695	0	2.0	2.0	0.0	1	left	2.0	1.0	1.0	0	-0.022419765591599996	blockFiles/set_13/main_unc/leftBlue\GB_LB_2.xlsx
324	main_unc	True	0.0	695	0	2.0	2.0	1.0	0	right	1.0	0.0	0.0	0	-0.022934781573700002	blockFiles/set_13/main_unc/leftBlue\GB_LB_2.xlsx
325	main_unc	True	0.0	695	0	2.0	2.0	0.0	0	left	2.0	0.0	0.0	1	0.0704310869053	blockFiles/set_13/main_unc/leftBlue\GB_LB_2.xlsx
326	main_unc	True	0.0	695	0	2.0	2.0	0.0	0	left	1.0	1.0	1.0	1	0.0076538207195699995	blockFiles/set_13/main_unc/leftBlue\GB_LB_2.xlsx
327	main_unc	True	0.0	695	0	2.0	2.0	0.0	0	left	1.0	1.0	1.0	1	0.0667886436358	blockFiles/set_13/main_unc/leftBlue\GB_LB_2.xlsx
328	main_unc	True	0.0	695	0	3.0	3.0	0.0	1	left	1.0	0.0	1.0	0	-0.0545328456536	blockFiles/set_13/main_unc/rightBlue\GB_RB_5.xlsx
329	main_unc	True	0.0	695	0	3.0	3.0	0.0	0	left	1.0	0.0	0.0	1	0.00448798319325	blockFiles/set_13/main_unc/rightBlue\GB_RB_5.xlsx
330	main_unc	True	0.0	695	0	3.0	3.0	0.0	1	left	2.0	0.0	0.0	0	-0.0521482184343	blockFiles/set_13/main_unc/rightBlue\GB_RB_5.xlsx
331	main_unc	True	0.0	695	0	3.0	3.0	0.0	1	left	2.0	0.0	0.0	0	-0.020153047144400003	blockFiles/set_13/main_unc/rightBlue\GB_RB_5.xlsx
332	main_unc	True	0.0	695	0	3.0	3.0	1.0	1	right	1.0	0.0	0.0	1	0.0642552926391	blockFiles/set_13/main_unc/rightBlue\GB_RB_5.xlsx
333	main_unc	True	0.0	695	0	3.0	3.0	0.0	1	left	1.0	1.0	1.0	0	-0.0354227065109	blockFiles/set_13/main_unc/rightBlue\GB_RB_5.xlsx
334	main_unc	True	0.0	695	0	3.0	3.0	0.0	1	left	1.0	1.0	1.0	0	-0.0703425210901	blockFiles/set_13/main_unc/rightBlue\GB_RB_5.xlsx
335	main_unc	True	0.0	695	0	3.0	3.0	1.0	1	right	2.0	1.0	1.0	1	0.0388709409535	blockFiles/set_13/main_unc/rightBlue\GB_RB_5.xlsx
336	main_unc	True	0.0	695	0	3.0	3.0	0.0	1	left	1.0	1.0	1.0	0	-0.0766813025437	blockFiles/set_13/main_unc/rightBlue\GB_RB_5.xlsx
337	main_unc	True	0.0	695	0	3.0	3.0	1.0	1	right	2.0	1.0	1.0	1	0.013379530738999999	blockFiles/set_13/main_unc/rightBlue\GB_RB_5.xlsx
338	main_unc	True	0.0	695	0	3.0	3.0	1.0	1	right	2.0	0.0	1.0	1	0.0217571989447	blockFiles/set_13/main_unc/rightBlue\GB_RB_5.xlsx
339	main_unc	True	0.0	695	0	3.0	3.0	1.0	1	right	2.0	1.0	1.0	1	0.07899812055750001	blockFiles/set_13/main_unc/rightBlue\GB_RB_5.xlsx
340	main_unc	True	0.0	695	0	3.0	3.0	1.0	1	right	2.0	1.0	1.0	1	0.029611903130999997	blockFiles/set_13/main_unc/rightBlue\GB_RB_5.xlsx
341	main_unc	True	0.0	695	0	3.0	3.0	0.0	0	left	1.0	0.0	0.0	1	0.032659178804599995	blockFiles/set_13/main_unc/rightBlue\GB_RB_5.xlsx
342	main_unc	True	0.0	695	0	3.0	3.0	0.0	1	left	1.0	0.0	1.0	0	-0.0349936146289	blockFiles/set_13/main_unc/rightBlue\GB_RB_5.xlsx
343	main_unc	True	0.0	695	0	3.0	3.0	0.0	1	left	1.0	0.0	1.0	0	-0.0210246543214	blockFiles/set_13/main_unc/rightBlue\GB_RB_5.xlsx
344	main_unc	True	0.0	695	0	3.0	3.0	0.0	1	left	1.0	1.0	1.0	0	-0.0744764105976	blockFiles/set_13/main_unc/rightBlue\GB_RB_5.xlsx
345	main_unc	True	0.0	695	0	3.0	3.0	1.0	1	right	2.0	1.0	1.0	1	0.0402915231138	blockFiles/set_13/main_unc/rightBlue\GB_RB_5.xlsx
346	main_unc	True	0.0	695	0	3.0	3.0	0.0	0	left	1.0	0.0	0.0	1	0.012345942482399999	blockFiles/set_13/main_unc/rightBlue\GB_RB_5.xlsx
347	main_unc	True	0.0	695	0	3.0	3.0	1.0	1	right	2.0	1.0	1.0	1	0.0418336768076	blockFiles/set_13/main_unc/rightBlue\GB_RB_5.xlsx
348	main_unc	True	0.0	695	0	3.0	3.0	0.0	0	left	1.0	0.0	0.0	1	0.00979712352157	blockFiles/set_13/main_unc/rightBlue\GB_RB_5.xlsx
349	main_unc	True	0.0	695	0	3.0	3.0	0.0	1	left	1.0	1.0	1.0	0	-0.0777282590978	blockFiles/set_13/main_unc/rightBlue\GB_RB_5.xlsx
350	main_unc	True	0.0	695	0	3.0	3.0	0.0	1	left	1.0	0.0	1.0	0	-0.0176237503067	blockFiles/set_13/main_unc/rightBlue\GB_RB_5.xlsx
351	main_unc	True	0.0	695	0	3.0	3.0	0.0	1	left	1.0	1.0	1.0	0	-0.0270468618907	blockFiles/set_13/main_unc/rightBlue\GB_RB_5.xlsx
352	main_unc	True	0.0	695	0	3.0	3.0	0.0	1	left	1.0	1.0	1.0	0	-0.0323535990715	blockFiles/set_13/main_unc/rightBlue\GB_RB_5.xlsx
353	main_unc	True	0.0	695	0	4.0	4.0	0.0	1	left	2.0	0.0	0.0	0	-0.0182805721462	blockFiles/set_13/main_unc/rightBlue\GB_RB_1.xlsx
354	main_unc	True	0.0	695	0	4.0	4.0	0.0	1	left	2.0	1.0	0.0	0	-0.057887041829500004	blockFiles/set_13/main_unc/rightBlue\GB_RB_1.xlsx
355	main_unc	True	0.0	695	0	4.0	4.0	0.0	1	left	2.0	0.0	0.0	0	-0.0701548889466	blockFiles/set_13/main_unc/rightBlue\GB_RB_1.xlsx
356	main_unc	True	0.0	695	0	4.0	4.0	0.0	0	left	2.0	0.0	1.0	1	0.0237384487502	blockFiles/set_13/main_unc/rightBlue\GB_RB_1.xlsx
357	main_unc	True	0.0	695	0	4.0	4.0	1.0	1	right	2.0	1.0	1.0	1	0.0341094922833	blockFiles/set_13/main_unc/rightBlue\GB_RB_1.xlsx
358	main_unc	True	0.0	695	0	4.0	4.0	1.0	0	right	1.0	1.0	1.0	0	-0.04574921963740001	blockFiles/set_13/main_unc/rightBlue\GB_RB_1.xlsx
359	main_unc	True	0.0	695	0	4.0	4.0	1.0	1	right	1.0	0.0	0.0	1	0.0624810452014	blockFiles/set_13/main_unc/rightBlue\GB_RB_1.xlsx
360	main_unc	True	0.0	695	0	4.0	4.0	0.0	1	left	1.0	0.0	1.0	0	-0.015564450807900001	blockFiles/set_13/main_unc/rightBlue\GB_RB_1.xlsx
361	main_unc	True	0.0	695	0	4.0	4.0	1.0	1	right	2.0	1.0	1.0	1	0.0522884489223	blockFiles/set_13/main_unc/rightBlue\GB_RB_1.xlsx
362	main_unc	True	0.0	695	0	4.0	4.0	1.0	1	right	2.0	1.0	1.0	1	0.027069695442900003	blockFiles/set_13/main_unc/rightBlue\GB_RB_1.xlsx
363	main_unc	True	0.0	695	0	4.0	4.0	0.0	1	left	1.0	1.0	1.0	0	-0.043563197758	blockFiles/set_13/main_unc/rightBlue\GB_RB_1.xlsx
364	main_unc	True	0.0	695	0	4.0	4.0	0.0	1	left	1.0	1.0	1.0	0	-0.00619684165344	blockFiles/set_13/main_unc/rightBlue\GB_RB_1.xlsx
365	main_unc	True	0.0	695	0	4.0	4.0	0.0	1	left	1.0	1.0	1.0	0	-0.0535147784278	blockFiles/set_13/main_unc/rightBlue\GB_RB_1.xlsx
366	main_unc	True	0.0	695	0	4.0	4.0	1.0	1	right	2.0	1.0	1.0	1	0.011683790087700001	blockFiles/set_13/main_unc/rightBlue\GB_RB_1.xlsx
367	main_unc	True	0.0	695	0	4.0	4.0	0.0	1	left	1.0	1.0	1.0	0	-0.07000776173550001	blockFiles/set_13/main_unc/rightBlue\GB_RB_1.xlsx
368	main_unc	True	0.0	695	0	4.0	4.0	1.0	1	right	2.0	0.0	1.0	1	0.0689977564476	blockFiles/set_13/main_unc/rightBlue\GB_RB_1.xlsx
369	main_unc	True	0.0	695	0	4.0	4.0	0.0	1	left	2.0	0.0	0.0	0	-0.07422520862889999	blockFiles/set_13/main_unc/rightBlue\GB_RB_1.xlsx
370	main_unc	True	0.0	695	0	4.0	4.0	1.0	1	right	2.0	1.0	1.0	1	0.0419793676585	blockFiles/set_13/main_unc/rightBlue\GB_RB_1.xlsx
371	main_unc	True	0.0	695	0	4.0	4.0	0.0	1	left	1.0	1.0	1.0	0	-0.0613902212866	blockFiles/set_13/main_unc/rightBlue\GB_RB_1.xlsx
372	main_unc	True	0.0	695	0	4.0	4.0	1.0	1	right	1.0	0.0	0.0	1	0.00550463821739	blockFiles/set_13/main_unc/rightBlue\GB_RB_1.xlsx
373	main_unc	True	0.0	695	0	4.0	4.0	0.0	1	left	1.0	1.0	1.0	0	-0.0249450940453	blockFiles/set_13/main_unc/rightBlue\GB_RB_1.xlsx
374	main_unc	True	0.0	695	0	4.0	4.0	0.0	1	left	1.0	1.0	1.0	0	-0.04532109973949999	blockFiles/set_13/main_unc/rightBlue\GB_RB_1.xlsx
375	main_unc	True	0.0	695	0	4.0	4.0	0.0	0	left	1.0	0.0	0.0	1	0.00876697843894	blockFiles/set_13/main_unc/rightBlue\GB_RB_1.xlsx
376	main_unc	True	0.0	695	0	4.0	4.0	1.0	1	right	2.0	0.0	1.0	1	0.0170128624141	blockFiles/set_13/main_unc/rightBlue\GB_RB_1.xlsx
377	main_unc	True	0.0	695	0	4.0	4.0	0.0	1	left	1.0	0.0	1.0	0	-0.0682329498045	blockFiles/set_13/main_unc/rightBlue\GB_RB_1.xlsx
378	main_unc	True	0.0	695	0	5.0	5.0	1.0	1	right	1.0	0.0	1.0	1	0.057839299254099995	blockFiles/set_13/main_unc/leftBlue\GB_LB_6.xlsx
379	main_unc	True	0.0	695	0	5.0	5.0	1.0	1	right	1.0	1.0	1.0	1	0.005883138738569999	blockFiles/set_13/main_unc/leftBlue\GB_LB_6.xlsx
380	main_unc	True	0.0	695	0	5.0	5.0	1.0	1	right	1.0	0.0	1.0	1	0.07743772557010001	blockFiles/set_13/main_unc/leftBlue\GB_LB_6.xlsx
381	main_unc	True	0.0	695	0	5.0	5.0	1.0	0	right	2.0	1.0	1.0	0	-0.0497820279934	blockFiles/set_13/main_unc/leftBlue\GB_LB_6.xlsx
382	main_unc	True	0.0	695	0	5.0	5.0	1.0	0	right	2.0	0.0	1.0	0	-0.0072518702410200005	blockFiles/set_13/main_unc/leftBlue\GB_LB_6.xlsx
383	main_unc	True	0.0	695	0	5.0	5.0	0.0	1	left	1.0	1.0	0.0	0	-0.050463734753400005	blockFiles/set_13/main_unc/leftBlue\GB_LB_6.xlsx
384	main_unc	True	0.0	695	0	5.0	5.0	1.0	1	right	2.0	0.0	0.0	1	0.04912127526480001	blockFiles/set_13/main_unc/leftBlue\GB_LB_6.xlsx
385	main_unc	True	0.0	695	0	5.0	5.0	1.0	1	right	2.0	0.0	0.0	1	0.05484512338409999	blockFiles/set_13/main_unc/leftBlue\GB_LB_6.xlsx
386	main_unc	True	0.0	695	0	5.0	5.0	0.0	1	left	1.0	0.0	0.0	0	-2.86272540689e-05	blockFiles/set_13/main_unc/leftBlue\GB_LB_6.xlsx
387	main_unc	True	0.0	695	0	5.0	5.0	1.0	0	right	2.0	1.0	1.0	0	-0.024776059109700002	blockFiles/set_13/main_unc/leftBlue\GB_LB_6.xlsx
388	main_unc	True	0.0	695	0	5.0	5.0	0.0	1	left	1.0	0.0	0.0	0	-0.0390110951103	blockFiles/set_13/main_unc/leftBlue\GB_LB_6.xlsx
389	main_unc	True	0.0	695	0	5.0	5.0	0.0	1	left	2.0	0.0	1.0	0	-0.061585278939500006	blockFiles/set_13/main_unc/leftBlue\GB_LB_6.xlsx
390	main_unc	True	0.0	695	0	5.0	5.0	0.0	0	left	2.0	0.0	0.0	1	0.0617277575471	blockFiles/set_13/main_unc/leftBlue\GB_LB_6.xlsx
391	main_unc	True	0.0	695	0	5.0	5.0	0.0	0	left	1.0	1.0	1.0	1	0.0539315141737	blockFiles/set_13/main_unc/leftBlue\GB_LB_6.xlsx
392	main_unc	True	0.0	695	0	5.0	5.0	0.0	1	left	1.0	0.0	0.0	0	-0.0650058184005	blockFiles/set_13/main_unc/leftBlue\GB_LB_6.xlsx
393	main_unc	True	0.0	695	0	5.0	5.0	1.0	1	right	2.0	0.0	0.0	1	0.0040374022536	blockFiles/set_13/main_unc/leftBlue\GB_LB_6.xlsx
394	main_unc	True	0.0	695	0	5.0	5.0	0.0	1	left	1.0	0.0	0.0	0	-0.0672872392461	blockFiles/set_13/main_unc/leftBlue\GB_LB_6.xlsx
395	main_unc	True	0.0	695	0	5.0	5.0	0.0	1	left	1.0	0.0	0.0	0	-0.044164114650300006	blockFiles/set_13/main_unc/leftBlue\GB_LB_6.xlsx
396	main_unc	True	0.0	695	0	5.0	5.0	1.0	0	right	2.0	1.0	1.0	0	-0.00036813991144300003	blockFiles/set_13/main_unc/leftBlue\GB_LB_6.xlsx
397	main_unc	True	1.0	695	0	5.0	5.0	1.0	0	right	n/a	0.0	n/a	0	-0.020530585907400003	blockFiles/set_13/main_unc/leftBlue\GB_LB_6.xlsx
398	main_unc	True	0.0	695	0	5.0	5.0	1.0	1	right	1.0	0.0	1.0	1	0.0607147890888	blockFiles/set_13/main_unc/leftBlue\GB_LB_6.xlsx
399	main_unc	True	0.0	695	0	5.0	5.0	0.0	0	left	1.0	1.0	1.0	1	0.0713273402117	blockFiles/set_13/main_unc/leftBlue\GB_LB_6.xlsx
400	main_unc	True	0.0	695	0	5.0	5.0	1.0	0	right	1.0	0.0	0.0	0	-0.028361836168900003	blockFiles/set_13/main_unc/leftBlue\GB_LB_6.xlsx
401	main_unc	True	1.0	695	0	5.0	5.0	n/a	0	None	n/a	0.0	n/a	0	-0.045437163431199995	blockFiles/set_13/main_unc/leftBlue\GB_LB_6.xlsx
402	main_unc	True	0.0	695	0	5.0	5.0	1.0	1	right	1.0	1.0	1.0	1	0.056694504451	blockFiles/set_13/main_unc/leftBlue\GB_LB_6.xlsx
403	main_unc	True	0.0	695	0	5.0	5.0	0.0	1	left	2.0	1.0	1.0	0	-0.020530585907400003	blockFiles/set_13/main_unc/leftBlue\GB_LB_6.xlsx
404	main_unc	True	0.0	695	0	5.0	5.0	1.0	0	right	1.0	0.0	0.0	0	-0.045437163431199995	blockFiles/set_13/main_unc/leftBlue\GB_LB_6.xlsx
405	main_unc	True	0.0	695	0	6.0	6.0	1.0	0	right	2.0	0.0	0.0	0	-0.0209501901269	blockFiles/set_13/main_unc/rightBlue\GB_RB_6.xlsx
406	main_unc	True	0.0	695	0	6.0	6.0	0.0	1	left	1.0	1.0	1.0	0	-0.0463155783713	blockFiles/set_13/main_unc/rightBlue\GB_RB_6.xlsx
407	main_unc	True	0.0	695	0	6.0	6.0	1.0	1	right	1.0	0.0	0.0	1	0.039830471351699995	blockFiles/set_13/main_unc/rightBlue\GB_RB_6.xlsx
408	main_unc	True	0.0	695	0	6.0	6.0	0.0	1	left	1.0	0.0	1.0	0	-0.00510982563719	blockFiles/set_13/main_unc/rightBlue\GB_RB_6.xlsx
409	main_unc	True	0.0	695	0	6.0	6.0	1.0	1	right	2.0	1.0	1.0	1	0.0608523476496	blockFiles/set_13/main_unc/rightBlue\GB_RB_6.xlsx
410	main_unc	True	0.0	695	0	6.0	6.0	1.0	1	right	2.0	1.0	1.0	1	0.038386940863	blockFiles/set_13/main_unc/rightBlue\GB_RB_6.xlsx
411	main_unc	True	0.0	695	0	6.0	6.0	0.0	1	left	1.0	1.0	1.0	0	-0.0680456427298	blockFiles/set_13/main_unc/rightBlue\GB_RB_6.xlsx
412	main_unc	True	0.0	695	0	6.0	6.0	0.0	0	left	1.0	0.0	0.0	1	0.0224580040574	blockFiles/set_13/main_unc/rightBlue\GB_RB_6.xlsx
413	main_unc	True	0.0	695	0	6.0	6.0	1.0	1	right	1.0	0.0	0.0	1	0.0598114570603	blockFiles/set_13/main_unc/rightBlue\GB_RB_6.xlsx
414	main_unc	True	0.0	695	0	6.0	6.0	0.0	1	left	1.0	0.0	1.0	0	-0.008416527695949999	blockFiles/set_13/main_unc/rightBlue\GB_RB_6.xlsx
415	main_unc	True	0.0	695	0	6.0	6.0	0.0	1	left	1.0	1.0	1.0	0	-0.0768707725219	blockFiles/set_13/main_unc/rightBlue\GB_RB_6.xlsx
416	main_unc	True	1.0	695	0	6.0	6.0	0.0	0	left	n/a	0.0	n/a	1	0.05494764523580001	blockFiles/set_13/main_unc/rightBlue\GB_RB_6.xlsx
417	main_unc	True	0.0	695	0	6.0	6.0	1.0	1	right	2.0	1.0	1.0	1	0.059880313388999996	blockFiles/set_13/main_unc/rightBlue\GB_RB_6.xlsx
418	main_unc	True	0.0	695	0	6.0	6.0	1.0	1	right	2.0	1.0	1.0	1	0.0327328358404	blockFiles/set_13/main_unc/rightBlue\GB_RB_6.xlsx
419	main_unc	True	0.0	695	0	6.0	6.0	0.0	1	left	1.0	0.0	1.0	0	-0.0351245982572	blockFiles/set_13/main_unc/rightBlue\GB_RB_6.xlsx
420	main_unc	True	0.0	695	0	6.0	6.0	0.0	0	left	2.0	1.0	1.0	1	0.042506850529500005	blockFiles/set_13/main_unc/rightBlue\GB_RB_6.xlsx
421	main_unc	True	0.0	695	0	6.0	6.0	1.0	0	right	2.0	0.0	0.0	0	-0.020332212932400003	blockFiles/set_13/main_unc/rightBlue\GB_RB_6.xlsx
422	main_unc	True	0.0	695	0	6.0	6.0	1.0	0	right	2.0	0.0	0.0	0	-0.007010180223729999	blockFiles/set_13/main_unc/rightBlue\GB_RB_6.xlsx
423	main_unc	True	0.0	695	0	6.0	6.0	0.0	1	left	1.0	0.0	1.0	0	-0.036292941384	blockFiles/set_13/main_unc/rightBlue\GB_RB_6.xlsx
424	main_unc	True	0.0	695	0	6.0	6.0	0.0	0	left	1.0	0.0	0.0	1	0.060643711555699996	blockFiles/set_13/main_unc/rightBlue\GB_RB_6.xlsx
425	main_unc	True	0.0	695	0	6.0	6.0	0.0	1	left	2.0	0.0	0.0	0	-0.072774629388	blockFiles/set_13/main_unc/rightBlue\GB_RB_6.xlsx
426	main_unc	True	0.0	695	0	6.0	6.0	0.0	0	left	1.0	0.0	0.0	1	0.00193275179714	blockFiles/set_13/main_unc/rightBlue\GB_RB_6.xlsx
427	main_unc	True	0.0	695	0	6.0	6.0	0.0	0	left	2.0	1.0	1.0	1	0.06411101218309999	blockFiles/set_13/main_unc/rightBlue\GB_RB_6.xlsx
428	main_unc	True	0.0	695	0	6.0	6.0	0.0	1	left	2.0	1.0	0.0	0	-0.037405411303	blockFiles/set_13/main_unc/rightBlue\GB_RB_6.xlsx
429	main_unc	True	1.0	695	0	6.0	6.0	n/a	0	None	n/a	0.0	n/a	1	0.042509286683099994	blockFiles/set_13/main_unc/rightBlue\GB_RB_6.xlsx
430	main_unc	True	0.0	695	0	6.0	6.0	1.0	1	right	2.0	1.0	1.0	1	0.05494764523580001	blockFiles/set_13/main_unc/rightBlue\GB_RB_6.xlsx
431	main_unc	True	0.0	695	0	6.0	6.0	1.0	1	right	2.0	1.0	1.0	1	0.042509286683099994	blockFiles/set_13/main_unc/rightBlue\GB_RB_6.xlsx
432	main_unc	True	0.0	695	0	7.0	7.0	0.0	1	left	1.0	1.0	0.0	0	-0.035227254908500004	blockFiles/set_13/main_unc/leftBlue\GB_LB_1.xlsx
433	main_unc	True	0.0	695	0	7.0	7.0	1.0	1	right	2.0	0.0	0.0	1	0.06511776641009999	blockFiles/set_13/main_unc/leftBlue\GB_LB_1.xlsx
434	main_unc	True	0.0	695	0	7.0	7.0	0.0	1	left	1.0	0.0	0.0	0	-0.0348488781415	blockFiles/set_13/main_unc/leftBlue\GB_LB_1.xlsx
435	main_unc	True	0.0	695	0	7.0	7.0	0.0	1	left	1.0	0.0	0.0	0	-0.0182376170903	blockFiles/set_13/main_unc/leftBlue\GB_LB_1.xlsx
436	main_unc	True	0.0	695	0	7.0	7.0	0.0	0	left	1.0	1.0	1.0	1	0.0650557001121	blockFiles/set_13/main_unc/leftBlue\GB_LB_1.xlsx
437	main_unc	True	0.0	695	0	7.0	7.0	0.0	1	left	2.0	0.0	1.0	0	-0.0613988432661	blockFiles/set_13/main_unc/leftBlue\GB_LB_1.xlsx
438	main_unc	True	0.0	695	0	7.0	7.0	0.0	1	left	1.0	0.0	0.0	0	-0.012307562734900001	blockFiles/set_13/main_unc/leftBlue\GB_LB_1.xlsx
439	main_unc	True	0.0	695	0	7.0	7.0	0.0	1	left	2.0	1.0	1.0	0	-0.042023866828500005	blockFiles/set_13/main_unc/leftBlue\GB_LB_1.xlsx
440	main_unc	True	0.0	695	0	7.0	7.0	1.0	1	right	1.0	0.0	1.0	1	0.0676083112136	blockFiles/set_13/main_unc/leftBlue\GB_LB_1.xlsx
441	main_unc	True	0.0	695	0	7.0	7.0	0.0	0	left	1.0	1.0	1.0	1	0.053142613563699995	blockFiles/set_13/main_unc/leftBlue\GB_LB_1.xlsx
442	main_unc	True	0.0	695	0	7.0	7.0	1.0	1	right	1.0	1.0	1.0	1	0.0463790580817	blockFiles/set_13/main_unc/leftBlue\GB_LB_1.xlsx
443	main_unc	True	0.0	695	0	7.0	7.0	0.0	1	left	1.0	0.0	0.0	0	-0.024071128387000002	blockFiles/set_13/main_unc/leftBlue\GB_LB_1.xlsx
444	main_unc	True	0.0	695	0	7.0	7.0	1.0	1	right	2.0	0.0	0.0	1	0.0795509095863	blockFiles/set_13/main_unc/leftBlue\GB_LB_1.xlsx
445	main_unc	True	0.0	695	0	7.0	7.0	1.0	1	right	2.0	0.0	0.0	1	0.0430712683871	blockFiles/set_13/main_unc/leftBlue\GB_LB_1.xlsx
446	main_unc	True	0.0	695	0	7.0	7.0	0.0	1	left	2.0	1.0	1.0	0	-0.015604251585899998	blockFiles/set_13/main_unc/leftBlue\GB_LB_1.xlsx
447	main_unc	True	0.0	695	0	7.0	7.0	0.0	1	left	2.0	1.0	1.0	0	-0.0296961490251	blockFiles/set_13/main_unc/leftBlue\GB_LB_1.xlsx
448	main_unc	True	0.0	695	0	7.0	7.0	0.0	0	left	2.0	0.0	0.0	1	0.0712529974617	blockFiles/set_13/main_unc/leftBlue\GB_LB_1.xlsx
449	main_unc	True	0.0	695	0	7.0	7.0	1.0	1	right	1.0	1.0	1.0	1	0.018337392956000002	blockFiles/set_13/main_unc/leftBlue\GB_LB_1.xlsx
450	main_unc	True	0.0	695	0	7.0	7.0	0.0	1	left	2.0	1.0	1.0	0	-0.0564928055555	blockFiles/set_13/main_unc/leftBlue\GB_LB_1.xlsx
451	main_unc	True	0.0	695	0	7.0	7.0	0.0	0	left	2.0	0.0	0.0	1	0.0672338880971	blockFiles/set_13/main_unc/leftBlue\GB_LB_1.xlsx
452	main_unc	True	1.0	695	0	7.0	7.0	1.0	0	right	n/a	0.0	n/a	0	-0.0021975983493	blockFiles/set_13/main_unc/leftBlue\GB_LB_1.xlsx
453	main_unc	True	0.0	695	0	7.0	7.0	1.0	1	right	2.0	0.0	0.0	1	0.0165665925667	blockFiles/set_13/main_unc/leftBlue\GB_LB_1.xlsx
454	main_unc	True	0.0	695	0	7.0	7.0	1.0	1	right	1.0	1.0	1.0	1	0.0761516542546	blockFiles/set_13/main_unc/leftBlue\GB_LB_1.xlsx
455	main_unc	True	0.0	695	0	7.0	7.0	1.0	1	right	1.0	0.0	1.0	1	0.054042816907199996	blockFiles/set_13/main_unc/leftBlue\GB_LB_1.xlsx
456	main_unc	True	1.0	695	0	7.0	7.0	n/a	0	None	n/a	0.0	n/a	0	-0.0020715653523800002	blockFiles/set_13/main_unc/leftBlue\GB_LB_1.xlsx
457	main_unc	True	0.0	695	0	7.0	7.0	1.0	0	right	1.0	0.0	0.0	0	-0.0021975983493	blockFiles/set_13/main_unc/leftBlue\GB_LB_1.xlsx
458	main_unc	True	0.0	695	0	7.0	7.0	1.0	0	right	2.0	0.0	1.0	0	-0.0020715653523800002	blockFiles/set_13/main_unc/leftBlue\GB_LB_1.xlsx
459	main_unc	True	0.0	695	0	8.0	8.0	0.0	1	left	1.0	1.0	1.0	0	-0.040404094699800004	blockFiles/set_13/main_unc/rightBlue\GB_RB_3.xlsx
460	main_unc	True	0.0	695	0	8.0	8.0	0.0	1	left	1.0	1.0	1.0	0	-0.0659137990326	blockFiles/set_13/main_unc/rightBlue\GB_RB_3.xlsx
461	main_unc	True	0.0	695	0	8.0	8.0	0.0	1	left	1.0	1.0	1.0	0	-0.0484123568051	blockFiles/set_13/main_unc/rightBlue\GB_RB_3.xlsx
462	main_unc	True	0.0	695	0	8.0	8.0	0.0	0	left	1.0	0.0	0.0	1	0.0438814394735	blockFiles/set_13/main_unc/rightBlue\GB_RB_3.xlsx
463	main_unc	True	0.0	695	0	8.0	8.0	1.0	1	right	2.0	0.0	1.0	1	0.07318386605010001	blockFiles/set_13/main_unc/rightBlue\GB_RB_3.xlsx
464	main_unc	True	0.0	695	0	8.0	8.0	0.0	1	left	2.0	1.0	0.0	0	-0.00974957808852	blockFiles/set_13/main_unc/rightBlue\GB_RB_3.xlsx
465	main_unc	True	0.0	695	0	8.0	8.0	0.0	1	left	1.0	1.0	1.0	0	-0.0739676089771	blockFiles/set_13/main_unc/rightBlue\GB_RB_3.xlsx
466	main_unc	True	0.0	695	0	8.0	8.0	0.0	1	left	1.0	1.0	1.0	0	-0.007235408611600001	blockFiles/set_13/main_unc/rightBlue\GB_RB_3.xlsx
467	main_unc	True	0.0	695	0	8.0	8.0	0.0	1	left	1.0	1.0	1.0	0	-0.0205626919307	blockFiles/set_13/main_unc/rightBlue\GB_RB_3.xlsx
468	main_unc	True	0.0	695	0	8.0	8.0	0.0	1	left	1.0	1.0	1.0	0	-0.029166323132799998	blockFiles/set_13/main_unc/rightBlue\GB_RB_3.xlsx
469	main_unc	True	0.0	695	0	8.0	8.0	0.0	1	left	1.0	1.0	1.0	0	-0.021105646546900003	blockFiles/set_13/main_unc/rightBlue\GB_RB_3.xlsx
470	main_unc	True	0.0	695	0	8.0	8.0	1.0	1	right	2.0	0.0	1.0	1	0.0627256105468	blockFiles/set_13/main_unc/rightBlue\GB_RB_3.xlsx
471	main_unc	True	0.0	695	0	8.0	8.0	1.0	1	right	2.0	1.0	1.0	1	0.0372012818418	blockFiles/set_13/main_unc/rightBlue\GB_RB_3.xlsx
472	main_unc	True	0.0	695	0	8.0	8.0	1.0	1	right	2.0	0.0	1.0	1	0.0766588359885	blockFiles/set_13/main_unc/rightBlue\GB_RB_3.xlsx
473	main_unc	True	0.0	695	0	8.0	8.0	1.0	1	right	1.0	0.0	0.0	1	0.0507223757915	blockFiles/set_13/main_unc/rightBlue\GB_RB_3.xlsx
474	main_unc	True	0.0	695	0	8.0	8.0	1.0	1	right	2.0	1.0	1.0	1	0.0654665796272	blockFiles/set_13/main_unc/rightBlue\GB_RB_3.xlsx
475	main_unc	True	0.0	695	0	8.0	8.0	1.0	1	right	2.0	1.0	1.0	1	0.044302238356300004	blockFiles/set_13/main_unc/rightBlue\GB_RB_3.xlsx
476	main_unc	True	0.0	695	0	8.0	8.0	1.0	1	right	1.0	0.0	0.0	1	0.0103093759343	blockFiles/set_13/main_unc/rightBlue\GB_RB_3.xlsx
477	main_unc	True	0.0	695	0	8.0	8.0	1.0	1	right	1.0	1.0	0.0	1	0.0241835686564	blockFiles/set_13/main_unc/rightBlue\GB_RB_3.xlsx
478	main_unc	True	0.0	695	0	8.0	8.0	0.0	1	left	2.0	0.0	0.0	0	-0.0700449886173	blockFiles/set_13/main_unc/rightBlue\GB_RB_3.xlsx
479	main_unc	True	0.0	695	0	8.0	8.0	0.0	1	left	1.0	1.0	1.0	0	-0.0372862544283	blockFiles/set_13/main_unc/rightBlue\GB_RB_3.xlsx
480	main_unc	True	1.0	695	0	8.0	8.0	n/a	0	None	n/a	0.0	n/a	1	0.006314542107279999	blockFiles/set_13/main_unc/rightBlue\GB_RB_3.xlsx
481	main_unc	True	0.0	695	0	8.0	8.0	0.0	0	left	2.0	0.0	1.0	1	0.0578180292808	blockFiles/set_13/main_unc/rightBlue\GB_RB_3.xlsx
482	main_unc	True	0.0	695	0	8.0	8.0	0.0	1	left	1.0	1.0	1.0	0	-0.0312381710857	blockFiles/set_13/main_unc/rightBlue\GB_RB_3.xlsx
483	main_unc	True	0.0	695	0	8.0	8.0	0.0	0	left	1.0	0.0	0.0	1	0.0299866070598	blockFiles/set_13/main_unc/rightBlue\GB_RB_3.xlsx
484	main_unc	True	0.0	695	0	8.0	8.0	0.0	0	left	1.0	0.0	0.0	1	0.006314542107279999	blockFiles/set_13/main_unc/rightBlue\GB_RB_3.xlsx
485	main_unc	True	0.0	695	0	9.0	9.0	1.0	1	right	1.0	0.0	0.0	1	0.016107415910799998	blockFiles/set_13/main_unc/rightBlue\GB_RB_2.xlsx
486	main_unc	True	0.0	695	0	9.0	9.0	1.0	1	right	1.0	1.0	0.0	1	0.05465222092349999	blockFiles/set_13/main_unc/rightBlue\GB_RB_2.xlsx
487	main_unc	True	1.0	695	0	9.0	9.0	n/a	0	None	n/a	0.0	n/a	0	-0.011627133004399999	blockFiles/set_13/main_unc/rightBlue\GB_RB_2.xlsx
488	main_unc	True	0.0	695	0	9.0	9.0	0.0	1	left	1.0	1.0	1.0	0	-0.0587539554201	blockFiles/set_13/main_unc/rightBlue\GB_RB_2.xlsx
489	main_unc	True	0.0	695	0	9.0	9.0	0.0	1	left	1.0	0.0	1.0	0	-0.042182155624	blockFiles/set_13/main_unc/rightBlue\GB_RB_2.xlsx
490	main_unc	True	0.0	695	0	9.0	9.0	1.0	1	right	1.0	0.0	0.0	1	0.040081774778699994	blockFiles/set_13/main_unc/rightBlue\GB_RB_2.xlsx
491	main_unc	True	0.0	695	0	9.0	9.0	0.0	1	left	1.0	0.0	1.0	0	-0.0332312962413	blockFiles/set_13/main_unc/rightBlue\GB_RB_2.xlsx
492	main_unc	True	0.0	695	0	9.0	9.0	1.0	1	right	1.0	0.0	0.0	1	0.0745288758725	blockFiles/set_13/main_unc/rightBlue\GB_RB_2.xlsx
493	main_unc	True	0.0	695	0	9.0	9.0	0.0	1	left	2.0	0.0	0.0	0	-0.0047649491764599995	blockFiles/set_13/main_unc/rightBlue\GB_RB_2.xlsx
494	main_unc	True	0.0	695	0	9.0	9.0	0.0	1	left	2.0	0.0	0.0	0	-0.0596160600893	blockFiles/set_13/main_unc/rightBlue\GB_RB_2.xlsx
495	main_unc	True	0.0	695	0	9.0	9.0	1.0	0	right	1.0	1.0	1.0	0	-0.024406986814	blockFiles/set_13/main_unc/rightBlue\GB_RB_2.xlsx
496	main_unc	True	0.0	695	0	9.0	9.0	1.0	1	right	2.0	1.0	1.0	1	0.0642608902045	blockFiles/set_13/main_unc/rightBlue\GB_RB_2.xlsx
497	main_unc	True	0.0	695	0	9.0	9.0	1.0	1	right	2.0	1.0	1.0	1	0.015239032954	blockFiles/set_13/main_unc/rightBlue\GB_RB_2.xlsx
498	main_unc	True	0.0	695	0	9.0	9.0	1.0	1	right	2.0	1.0	1.0	1	0.0328033410944	blockFiles/set_13/main_unc/rightBlue\GB_RB_2.xlsx
499	main_unc	True	0.0	695	0	9.0	9.0	0.0	1	left	1.0	1.0	1.0	0	-0.0645342901349	blockFiles/set_13/main_unc/rightBlue\GB_RB_2.xlsx
500	main_unc	True	0.0	695	0	9.0	9.0	1.0	0	right	2.0	0.0	0.0	0	-0.0180702244863	blockFiles/set_13/main_unc/rightBlue\GB_RB_2.xlsx
501	main_unc	True	1.0	695	0	9.0	9.0	n/a	0	None	n/a	0.0	n/a	0	-0.078902346734	blockFiles/set_13/main_unc/rightBlue\GB_RB_2.xlsx
502	main_unc	True	0.0	695	0	9.0	9.0	0.0	0	left	2.0	1.0	1.0	1	0.0135496719927	blockFiles/set_13/main_unc/rightBlue\GB_RB_2.xlsx
503	main_unc	True	0.0	695	0	9.0	9.0	1.0	1	right	2.0	0.0	1.0	1	0.033709167614599994	blockFiles/set_13/main_unc/rightBlue\GB_RB_2.xlsx
504	main_unc	True	0.0	695	0	9.0	9.0	0.0	1	left	1.0	1.0	1.0	0	-0.059873677548	blockFiles/set_13/main_unc/rightBlue\GB_RB_2.xlsx
505	main_unc	True	0.0	695	0	9.0	9.0	0.0	1	left	2.0	0.0	0.0	0	-0.04795440262180001	blockFiles/set_13/main_unc/rightBlue\GB_RB_2.xlsx
506	main_unc	True	0.0	695	0	9.0	9.0	1.0	1	right	2.0	1.0	1.0	1	0.065141559951	blockFiles/set_13/main_unc/rightBlue\GB_RB_2.xlsx
507	main_unc	True	0.0	695	0	9.0	9.0	1.0	0	right	1.0	1.0	1.0	0	-0.0525895853341	blockFiles/set_13/main_unc/rightBlue\GB_RB_2.xlsx
508	main_unc	True	0.0	695	0	9.0	9.0	1.0	1	right	1.0	0.0	0.0	1	0.016355414744500002	blockFiles/set_13/main_unc/rightBlue\GB_RB_2.xlsx
509	main_unc	True	1.0	695	0	9.0	9.0	n/a	0	None	n/a	0.0	n/a	0	-0.0576060489193	blockFiles/set_13/main_unc/rightBlue\GB_RB_2.xlsx
510	main_unc	True	0.0	695	0	9.0	9.0	0.0	1	left	2.0	0.0	0.0	0	-0.011627133004399999	blockFiles/set_13/main_unc/rightBlue\GB_RB_2.xlsx
511	main_unc	True	0.0	695	0	9.0	9.0	0.0	1	left	1.0	0.0	1.0	0	-0.078902346734	blockFiles/set_13/main_unc/rightBlue\GB_RB_2.xlsx
512	main_unc	True	0.0	695	0	9.0	9.0	0.0	1	left	1.0	1.0	1.0	0	-0.0576060489193	blockFiles/set_13/main_unc/rightBlue\GB_RB_2.xlsx
513	main_unc	True	0.0	695	0	10.0	10.0	0.0	1	left	2.0	1.0	0.0	0	-0.0269903365895	blockFiles/set_13/main_unc/rightBlue\GB_RB_4.xlsx
514	main_unc	True	0.0	695	0	10.0	10.0	0.0	0	left	1.0	0.0	0.0	1	0.0412759878673	blockFiles/set_13/main_unc/rightBlue\GB_RB_4.xlsx
515	main_unc	True	0.0	695	0	10.0	10.0	1.0	1	right	1.0	0.0	0.0	1	0.0694171171263	blockFiles/set_13/main_unc/rightBlue\GB_RB_4.xlsx
516	main_unc	True	0.0	695	0	10.0	10.0	0.0	1	left	1.0	1.0	1.0	0	-0.021564980857099996	blockFiles/set_13/main_unc/rightBlue\GB_RB_4.xlsx
517	main_unc	True	0.0	695	0	10.0	10.0	0.0	1	left	1.0	1.0	1.0	0	-0.0726359716058	blockFiles/set_13/main_unc/rightBlue\GB_RB_4.xlsx
518	main_unc	True	0.0	695	0	10.0	10.0	1.0	1	right	2.0	1.0	1.0	1	0.037738925796	blockFiles/set_13/main_unc/rightBlue\GB_RB_4.xlsx
519	main_unc	True	0.0	695	0	10.0	10.0	0.0	1	left	1.0	0.0	1.0	0	-0.048269078787400006	blockFiles/set_13/main_unc/rightBlue\GB_RB_4.xlsx
520	main_unc	True	0.0	695	0	10.0	10.0	0.0	0	left	1.0	0.0	0.0	1	0.012548280246600001	blockFiles/set_13/main_unc/rightBlue\GB_RB_4.xlsx
521	main_unc	True	0.0	695	0	10.0	10.0	1.0	1	right	1.0	0.0	0.0	1	0.0245758084394	blockFiles/set_13/main_unc/rightBlue\GB_RB_4.xlsx
522	main_unc	True	0.0	695	0	10.0	10.0	0.0	1	left	1.0	1.0	1.0	0	-0.0105007396266	blockFiles/set_13/main_unc/rightBlue\GB_RB_4.xlsx
523	main_unc	True	0.0	695	0	10.0	10.0	0.0	1	left	1.0	1.0	1.0	0	-0.0385699690506	blockFiles/set_13/main_unc/rightBlue\GB_RB_4.xlsx
524	main_unc	True	0.0	695	0	10.0	10.0	0.0	1	left	1.0	1.0	1.0	0	-0.0335697562061	blockFiles/set_13/main_unc/rightBlue\GB_RB_4.xlsx
525	main_unc	True	0.0	695	0	10.0	10.0	1.0	1	right	1.0	0.0	0.0	1	0.0681469237246	blockFiles/set_13/main_unc/rightBlue\GB_RB_4.xlsx
526	main_unc	True	0.0	695	0	10.0	10.0	0.0	1	left	1.0	1.0	1.0	0	-0.0684119662829	blockFiles/set_13/main_unc/rightBlue\GB_RB_4.xlsx
527	main_unc	True	0.0	695	0	10.0	10.0	1.0	1	right	2.0	0.0	1.0	1	0.0201166385598	blockFiles/set_13/main_unc/rightBlue\GB_RB_4.xlsx
528	main_unc	True	0.0	695	0	10.0	10.0	1.0	1	right	1.0	1.0	0.0	1	0.021346911005700003	blockFiles/set_13/main_unc/rightBlue\GB_RB_4.xlsx
529	main_unc	True	0.0	695	0	10.0	10.0	0.0	1	left	1.0	1.0	1.0	0	-0.0648242938519	blockFiles/set_13/main_unc/rightBlue\GB_RB_4.xlsx
530	main_unc	True	0.0	695	0	10.0	10.0	0.0	1	left	1.0	1.0	1.0	0	-0.00653023239225	blockFiles/set_13/main_unc/rightBlue\GB_RB_4.xlsx
531	main_unc	True	1.0	695	0	10.0	10.0	n/a	0	None	n/a	0.0	n/a	1	0.020693178307299998	blockFiles/set_13/main_unc/rightBlue\GB_RB_4.xlsx
532	main_unc	True	0.0	695	0	10.0	10.0	1.0	1	right	2.0	1.0	1.0	1	0.066313848421	blockFiles/set_13/main_unc/rightBlue\GB_RB_4.xlsx
533	main_unc	True	0.0	695	0	10.0	10.0	0.0	1	left	1.0	1.0	1.0	0	-0.00786060728133	blockFiles/set_13/main_unc/rightBlue\GB_RB_4.xlsx
534	main_unc	True	0.0	695	0	10.0	10.0	1.0	0	right	1.0	1.0	1.0	0	-0.0640555834956	blockFiles/set_13/main_unc/rightBlue\GB_RB_4.xlsx
535	main_unc	True	0.0	695	0	10.0	10.0	1.0	1	right	2.0	1.0	1.0	1	0.0646711231954	blockFiles/set_13/main_unc/rightBlue\GB_RB_4.xlsx
536	main_unc	True	0.0	695	0	10.0	10.0	0.0	1	left	1.0	1.0	1.0	0	-0.050507298279599995	blockFiles/set_13/main_unc/rightBlue\GB_RB_4.xlsx
537	main_unc	True	0.0	695	0	10.0	10.0	1.0	1	right	2.0	1.0	1.0	1	0.0675733891688	blockFiles/set_13/main_unc/rightBlue\GB_RB_4.xlsx
538	main_unc	True	0.0	695	0	10.0	10.0	1.0	1	right	2.0	0.0	1.0	1	0.020693178307299998	blockFiles/set_13/main_unc/rightBlue\GB_RB_4.xlsx
539	main_unc	True	0.0	695	0	11.0	11.0	0.0	1	left	1.0	0.0	0.0	0	-0.0018384377285799998	blockFiles/set_13/main_unc/leftBlue\GB_LB_4.xlsx
540	main_unc	True	0.0	695	0	11.0	11.0	0.0	0	left	2.0	0.0	0.0	1	0.0563768402115	blockFiles/set_13/main_unc/leftBlue\GB_LB_4.xlsx
541	main_unc	True	0.0	695	0	11.0	11.0	1.0	0	right	2.0	1.0	1.0	0	-0.0147543105111	blockFiles/set_13/main_unc/leftBlue\GB_LB_4.xlsx
542	main_unc	True	0.0	695	0	11.0	11.0	0.0	1	left	1.0	1.0	0.0	0	-0.0167936962098	blockFiles/set_13/main_unc/leftBlue\GB_LB_4.xlsx
543	main_unc	True	0.0	695	0	11.0	11.0	0.0	1	left	1.0	0.0	0.0	0	-0.0737208790332	blockFiles/set_13/main_unc/leftBlue\GB_LB_4.xlsx
544	main_unc	True	0.0	695	0	11.0	11.0	1.0	0	right	2.0	1.0	1.0	0	-0.023442018870299997	blockFiles/set_13/main_unc/leftBlue\GB_LB_4.xlsx
545	main_unc	True	0.0	695	0	11.0	11.0	0.0	0	left	1.0	0.0	1.0	1	0.0789177344181	blockFiles/set_13/main_unc/leftBlue\GB_LB_4.xlsx
546	main_unc	True	0.0	695	0	11.0	11.0	0.0	1	left	1.0	0.0	0.0	0	-0.026620325148099998	blockFiles/set_13/main_unc/leftBlue\GB_LB_4.xlsx
547	main_unc	True	0.0	695	0	11.0	11.0	1.0	1	right	1.0	0.0	1.0	1	0.0158453357406	blockFiles/set_13/main_unc/leftBlue\GB_LB_4.xlsx
548	main_unc	True	0.0	695	0	11.0	11.0	1.0	0	right	2.0	1.0	1.0	0	-0.0287609580718	blockFiles/set_13/main_unc/leftBlue\GB_LB_4.xlsx
549	main_unc	True	0.0	695	0	11.0	11.0	1.0	1	right	1.0	1.0	1.0	1	0.0778545362316	blockFiles/set_13/main_unc/leftBlue\GB_LB_4.xlsx
550	main_unc	True	0.0	695	0	11.0	11.0	0.0	1	left	2.0	1.0	1.0	0	-0.0510653877072	blockFiles/set_13/main_unc/leftBlue\GB_LB_4.xlsx
551	main_unc	True	0.0	695	0	11.0	11.0	0.0	0	left	1.0	1.0	1.0	1	0.0415692760982	blockFiles/set_13/main_unc/leftBlue\GB_LB_4.xlsx
552	main_unc	True	0.0	695	0	11.0	11.0	1.0	1	right	2.0	0.0	0.0	1	0.0529390524328	blockFiles/set_13/main_unc/leftBlue\GB_LB_4.xlsx
553	main_unc	True	0.0	695	0	11.0	11.0	1.0	1	right	1.0	0.0	1.0	1	0.011901798192399999	blockFiles/set_13/main_unc/leftBlue\GB_LB_4.xlsx
554	main_unc	True	0.0	695	0	11.0	11.0	0.0	0	left	1.0	1.0	1.0	1	0.0101903469488	blockFiles/set_13/main_unc/leftBlue\GB_LB_4.xlsx
555	main_unc	True	0.0	695	0	11.0	11.0	0.0	0	left	1.0	1.0	1.0	1	0.0513357051089	blockFiles/set_13/main_unc/leftBlue\GB_LB_4.xlsx
556	main_unc	True	1.0	695	0	11.0	11.0	n/a	0	None	n/a	0.0	n/a	0	-0.031570026073599995	blockFiles/set_13/main_unc/leftBlue\GB_LB_4.xlsx
557	main_unc	True	0.0	695	0	11.0	11.0	0.0	1	left	1.0	0.0	0.0	0	-0.053865430038400004	blockFiles/set_13/main_unc/leftBlue\GB_LB_4.xlsx
558	main_unc	True	0.0	695	0	11.0	11.0	0.0	0	left	2.0	0.0	0.0	1	0.033931682035300004	blockFiles/set_13/main_unc/leftBlue\GB_LB_4.xlsx
559	main_unc	True	0.0	695	0	11.0	11.0	0.0	0	left	1.0	1.0	1.0	1	0.031128439940499998	blockFiles/set_13/main_unc/leftBlue\GB_LB_4.xlsx
560	main_unc	True	0.0	695	0	11.0	11.0	0.0	1	left	1.0	1.0	0.0	0	-0.0390933105163	blockFiles/set_13/main_unc/leftBlue\GB_LB_4.xlsx
561	main_unc	True	0.0	695	0	11.0	11.0	0.0	1	left	1.0	1.0	0.0	0	-0.0223129852489	blockFiles/set_13/main_unc/leftBlue\GB_LB_4.xlsx
562	main_unc	True	0.0	695	0	11.0	11.0	1.0	1	right	2.0	0.0	0.0	1	0.055303161051099996	blockFiles/set_13/main_unc/leftBlue\GB_LB_4.xlsx
563	main_unc	True	0.0	695	0	11.0	11.0	1.0	1	right	2.0	0.0	0.0	1	0.04304947448890001	blockFiles/set_13/main_unc/leftBlue\GB_LB_4.xlsx
564	main_unc	True	0.0	695	0	11.0	11.0	0.0	1	left	1.0	0.0	0.0	0	-0.031570026073599995	blockFiles/set_13/main_unc/leftBlue\GB_LB_4.xlsx
