	trial_type	complete	missIndex	participant	id	blockNumber	b_t	d_t	decision1.corr	decision1.keys	a_t	r_t	decision2.corr	s_t	u_t	block_file
0	main_safe	True	0.0	849	0	0.0	0.0	1.0	1	right	2.0	1.0	1.0	1	0.08	blockFiles/set_4/main_safe/rightBlue\GB_RB_3.xlsx
1	main_safe	True	0.0	849	0	0.0	0.0	1.0	1	right	2.0	1.0	1.0	1	0.08	blockFiles/set_4/main_safe/rightBlue\GB_RB_3.xlsx
2	main_safe	True	0.0	849	0	0.0	0.0	0.0	1	left	1.0	1.0	1.0	0	-0.08	blockFiles/set_4/main_safe/rightBlue\GB_RB_3.xlsx
3	main_safe	True	0.0	849	0	0.0	0.0	1.0	1	right	2.0	1.0	1.0	1	0.08	blockFiles/set_4/main_safe/rightBlue\GB_RB_3.xlsx
4	main_safe	True	0.0	849	0	0.0	0.0	0.0	1	left	1.0	1.0	1.0	0	-0.08	blockFiles/set_4/main_safe/rightBlue\GB_RB_3.xlsx
5	main_safe	True	0.0	849	0	0.0	0.0	1.0	1	right	2.0	0.0	1.0	1	0.08	blockFiles/set_4/main_safe/rightBlue\GB_RB_3.xlsx
6	main_safe	True	0.0	849	0	0.0	0.0	0.0	1	left	1.0	1.0	1.0	0	-0.08	blockFiles/set_4/main_safe/rightBlue\GB_RB_3.xlsx
7	main_safe	True	0.0	849	0	0.0	0.0	0.0	1	left	1.0	0.0	1.0	0	-0.08	blockFiles/set_4/main_safe/rightBlue\GB_RB_3.xlsx
8	main_safe	True	0.0	849	0	0.0	0.0	0.0	1	left	1.0	1.0	1.0	0	-0.08	blockFiles/set_4/main_safe/rightBlue\GB_RB_3.xlsx
9	main_safe	True	0.0	849	0	0.0	0.0	0.0	1	left	1.0	1.0	1.0	0	-0.08	blockFiles/set_4/main_safe/rightBlue\GB_RB_3.xlsx
10	main_safe	True	0.0	849	0	0.0	0.0	1.0	1	right	2.0	1.0	1.0	1	0.08	blockFiles/set_4/main_safe/rightBlue\GB_RB_3.xlsx
11	main_safe	True	1.0	849	0	0.0	0.0	n/a	0	None	n/a	0.0	n/a	1	0.08	blockFiles/set_4/main_safe/rightBlue\GB_RB_3.xlsx
12	main_safe	True	0.0	849	0	0.0	0.0	1.0	1	right	2.0	1.0	1.0	1	0.08	blockFiles/set_4/main_safe/rightBlue\GB_RB_3.xlsx
13	main_safe	True	0.0	849	0	0.0	0.0	0.0	1	left	1.0	1.0	1.0	0	-0.08	blockFiles/set_4/main_safe/rightBlue\GB_RB_3.xlsx
14	main_safe	True	0.0	849	0	0.0	0.0	0.0	1	left	1.0	1.0	1.0	0	-0.08	blockFiles/set_4/main_safe/rightBlue\GB_RB_3.xlsx
15	main_safe	True	0.0	849	0	0.0	0.0	1.0	1	right	2.0	1.0	1.0	1	0.08	blockFiles/set_4/main_safe/rightBlue\GB_RB_3.xlsx
16	main_safe	True	0.0	849	0	0.0	0.0	0.0	1	left	1.0	1.0	1.0	0	-0.08	blockFiles/set_4/main_safe/rightBlue\GB_RB_3.xlsx
17	main_safe	True	0.0	849	0	0.0	0.0	1.0	1	right	2.0	0.0	1.0	1	0.08	blockFiles/set_4/main_safe/rightBlue\GB_RB_3.xlsx
18	main_safe	True	0.0	849	0	0.0	0.0	0.0	1	left	1.0	1.0	1.0	0	-0.08	blockFiles/set_4/main_safe/rightBlue\GB_RB_3.xlsx
19	main_safe	True	0.0	849	0	0.0	0.0	1.0	1	right	2.0	1.0	1.0	1	0.08	blockFiles/set_4/main_safe/rightBlue\GB_RB_3.xlsx
20	main_safe	True	0.0	849	0	0.0	0.0	0.0	1	left	1.0	1.0	1.0	0	-0.08	blockFiles/set_4/main_safe/rightBlue\GB_RB_3.xlsx
21	main_safe	True	0.0	849	0	0.0	0.0	0.0	1	left	1.0	1.0	1.0	0	-0.08	blockFiles/set_4/main_safe/rightBlue\GB_RB_3.xlsx
22	main_safe	True	0.0	849	0	0.0	0.0	1.0	1	right	2.0	0.0	1.0	1	0.08	blockFiles/set_4/main_safe/rightBlue\GB_RB_3.xlsx
23	main_safe	True	0.0	849	0	0.0	0.0	1.0	1	right	2.0	1.0	1.0	1	0.08	blockFiles/set_4/main_safe/rightBlue\GB_RB_3.xlsx
24	main_safe	True	0.0	849	0	0.0	0.0	1.0	1	right	2.0	1.0	1.0	1	0.08	blockFiles/set_4/main_safe/rightBlue\GB_RB_3.xlsx
25	main_safe	True	0.0	849	0	0.0	0.0	1.0	1	right	2.0	0.0	1.0	1	0.08	blockFiles/set_4/main_safe/rightBlue\GB_RB_3.xlsx
26	main_safe	True	0.0	849	0	1.0	1.0	1.0	1	right	2.0	1.0	1.0	1	0.08	blockFiles/set_4/main_safe/rightBlue\GB_RB_2.xlsx
27	main_safe	True	0.0	849	0	1.0	1.0	1.0	1	right	2.0	1.0	1.0	1	0.08	blockFiles/set_4/main_safe/rightBlue\GB_RB_2.xlsx
28	main_safe	True	0.0	849	0	1.0	1.0	0.0	1	left	1.0	0.0	1.0	0	-0.08	blockFiles/set_4/main_safe/rightBlue\GB_RB_2.xlsx
29	main_safe	True	0.0	849	0	1.0	1.0	1.0	1	right	2.0	1.0	1.0	1	0.08	blockFiles/set_4/main_safe/rightBlue\GB_RB_2.xlsx
30	main_safe	True	0.0	849	0	1.0	1.0	1.0	1	right	2.0	0.0	1.0	1	0.08	blockFiles/set_4/main_safe/rightBlue\GB_RB_2.xlsx
31	main_safe	True	0.0	849	0	1.0	1.0	0.0	1	left	1.0	1.0	1.0	0	-0.08	blockFiles/set_4/main_safe/rightBlue\GB_RB_2.xlsx
32	main_safe	True	0.0	849	0	1.0	1.0	1.0	1	right	2.0	1.0	1.0	1	0.08	blockFiles/set_4/main_safe/rightBlue\GB_RB_2.xlsx
33	main_safe	True	0.0	849	0	1.0	1.0	1.0	1	right	2.0	1.0	1.0	1	0.08	blockFiles/set_4/main_safe/rightBlue\GB_RB_2.xlsx
34	main_safe	True	0.0	849	0	1.0	1.0	1.0	1	right	2.0	0.0	1.0	1	0.08	blockFiles/set_4/main_safe/rightBlue\GB_RB_2.xlsx
35	main_safe	True	0.0	849	0	1.0	1.0	1.0	1	right	2.0	1.0	1.0	1	0.08	blockFiles/set_4/main_safe/rightBlue\GB_RB_2.xlsx
36	main_safe	True	0.0	849	0	1.0	1.0	0.0	1	left	1.0	1.0	1.0	0	-0.08	blockFiles/set_4/main_safe/rightBlue\GB_RB_2.xlsx
37	main_safe	True	0.0	849	0	1.0	1.0	0.0	1	left	1.0	1.0	1.0	0	-0.08	blockFiles/set_4/main_safe/rightBlue\GB_RB_2.xlsx
38	main_safe	True	0.0	849	0	1.0	1.0	1.0	1	right	2.0	1.0	1.0	1	0.08	blockFiles/set_4/main_safe/rightBlue\GB_RB_2.xlsx
39	main_safe	True	0.0	849	0	1.0	1.0	0.0	1	left	1.0	1.0	1.0	0	-0.08	blockFiles/set_4/main_safe/rightBlue\GB_RB_2.xlsx
40	main_safe	True	0.0	849	0	1.0	1.0	0.0	1	left	1.0	1.0	1.0	0	-0.08	blockFiles/set_4/main_safe/rightBlue\GB_RB_2.xlsx
41	main_safe	True	0.0	849	0	1.0	1.0	1.0	1	right	2.0	0.0	1.0	1	0.08	blockFiles/set_4/main_safe/rightBlue\GB_RB_2.xlsx
42	main_safe	True	0.0	849	0	1.0	1.0	0.0	1	left	1.0	1.0	1.0	0	-0.08	blockFiles/set_4/main_safe/rightBlue\GB_RB_2.xlsx
43	main_safe	True	0.0	849	0	1.0	1.0	0.0	1	left	1.0	1.0	1.0	0	-0.08	blockFiles/set_4/main_safe/rightBlue\GB_RB_2.xlsx
44	main_safe	True	0.0	849	0	1.0	1.0	1.0	1	right	2.0	1.0	1.0	1	0.08	blockFiles/set_4/main_safe/rightBlue\GB_RB_2.xlsx
45	main_safe	True	0.0	849	0	1.0	1.0	0.0	1	left	1.0	1.0	1.0	0	-0.08	blockFiles/set_4/main_safe/rightBlue\GB_RB_2.xlsx
46	main_safe	True	0.0	849	0	1.0	1.0	1.0	1	right	2.0	1.0	1.0	1	0.08	blockFiles/set_4/main_safe/rightBlue\GB_RB_2.xlsx
47	main_safe	True	0.0	849	0	1.0	1.0	0.0	1	left	1.0	0.0	1.0	0	-0.08	blockFiles/set_4/main_safe/rightBlue\GB_RB_2.xlsx
48	main_safe	True	0.0	849	0	1.0	1.0	0.0	1	left	1.0	0.0	1.0	0	-0.08	blockFiles/set_4/main_safe/rightBlue\GB_RB_2.xlsx
49	main_safe	True	0.0	849	0	1.0	1.0	1.0	1	right	2.0	1.0	1.0	1	0.08	blockFiles/set_4/main_safe/rightBlue\GB_RB_2.xlsx
50	main_safe	True	0.0	849	0	1.0	1.0	0.0	1	left	1.0	1.0	1.0	0	-0.08	blockFiles/set_4/main_safe/rightBlue\GB_RB_2.xlsx
51	main_safe	True	0.0	849	0	2.0	2.0	1.0	1	right	2.0	0.0	0.0	1	0.08	blockFiles/set_4/main_safe/leftBlue\GB_LB_2.xlsx
52	main_safe	True	0.0	849	0	2.0	2.0	1.0	1	right	1.0	1.0	1.0	1	0.08	blockFiles/set_4/main_safe/leftBlue\GB_LB_2.xlsx
53	main_safe	True	0.0	849	0	2.0	2.0	0.0	1	left	2.0	0.0	1.0	0	-0.08	blockFiles/set_4/main_safe/leftBlue\GB_LB_2.xlsx
54	main_safe	True	0.0	849	0	2.0	2.0	0.0	1	left	2.0	1.0	1.0	0	-0.08	blockFiles/set_4/main_safe/leftBlue\GB_LB_2.xlsx
55	main_safe	True	0.0	849	0	2.0	2.0	0.0	1	left	2.0	0.0	1.0	0	-0.08	blockFiles/set_4/main_safe/leftBlue\GB_LB_2.xlsx
56	main_safe	True	0.0	849	0	2.0	2.0	1.0	1	right	1.0	0.0	1.0	1	0.08	blockFiles/set_4/main_safe/leftBlue\GB_LB_2.xlsx
57	main_safe	True	0.0	849	0	2.0	2.0	0.0	1	left	2.0	1.0	1.0	0	-0.08	blockFiles/set_4/main_safe/leftBlue\GB_LB_2.xlsx
58	main_safe	True	0.0	849	0	2.0	2.0	1.0	1	right	1.0	1.0	1.0	1	0.08	blockFiles/set_4/main_safe/leftBlue\GB_LB_2.xlsx
59	main_safe	True	0.0	849	0	2.0	2.0	1.0	1	right	1.0	1.0	1.0	1	0.08	blockFiles/set_4/main_safe/leftBlue\GB_LB_2.xlsx
60	main_safe	True	0.0	849	0	2.0	2.0	1.0	1	right	2.0	0.0	0.0	1	0.08	blockFiles/set_4/main_safe/leftBlue\GB_LB_2.xlsx
61	main_safe	True	0.0	849	0	2.0	2.0	0.0	1	left	2.0	1.0	1.0	0	-0.08	blockFiles/set_4/main_safe/leftBlue\GB_LB_2.xlsx
62	main_safe	True	0.0	849	0	2.0	2.0	1.0	1	right	1.0	0.0	1.0	1	0.08	blockFiles/set_4/main_safe/leftBlue\GB_LB_2.xlsx
63	main_safe	True	0.0	849	0	2.0	2.0	1.0	1	right	1.0	1.0	1.0	1	0.08	blockFiles/set_4/main_safe/leftBlue\GB_LB_2.xlsx
64	main_safe	True	0.0	849	0	2.0	2.0	0.0	1	left	2.0	1.0	1.0	0	-0.08	blockFiles/set_4/main_safe/leftBlue\GB_LB_2.xlsx
65	main_safe	True	0.0	849	0	2.0	2.0	0.0	1	left	2.0	1.0	1.0	0	-0.08	blockFiles/set_4/main_safe/leftBlue\GB_LB_2.xlsx
66	main_safe	True	0.0	849	0	2.0	2.0	0.0	1	left	2.0	1.0	1.0	0	-0.08	blockFiles/set_4/main_safe/leftBlue\GB_LB_2.xlsx
67	main_safe	True	0.0	849	0	2.0	2.0	0.0	1	left	2.0	0.0	1.0	0	-0.08	blockFiles/set_4/main_safe/leftBlue\GB_LB_2.xlsx
68	main_safe	True	0.0	849	0	2.0	2.0	0.0	1	left	2.0	1.0	1.0	0	-0.08	blockFiles/set_4/main_safe/leftBlue\GB_LB_2.xlsx
69	main_safe	True	0.0	849	0	2.0	2.0	1.0	1	right	1.0	1.0	1.0	1	0.08	blockFiles/set_4/main_safe/leftBlue\GB_LB_2.xlsx
70	main_safe	True	0.0	849	0	2.0	2.0	1.0	1	right	1.0	1.0	1.0	1	0.08	blockFiles/set_4/main_safe/leftBlue\GB_LB_2.xlsx
71	main_safe	True	0.0	849	0	2.0	2.0	1.0	1	right	1.0	1.0	1.0	1	0.08	blockFiles/set_4/main_safe/leftBlue\GB_LB_2.xlsx
72	main_safe	True	0.0	849	0	2.0	2.0	1.0	1	right	1.0	1.0	1.0	1	0.08	blockFiles/set_4/main_safe/leftBlue\GB_LB_2.xlsx
73	main_safe	True	0.0	849	0	2.0	2.0	0.0	1	left	2.0	1.0	1.0	0	-0.08	blockFiles/set_4/main_safe/leftBlue\GB_LB_2.xlsx
74	main_safe	True	0.0	849	0	2.0	2.0	0.0	1	left	2.0	1.0	1.0	0	-0.08	blockFiles/set_4/main_safe/leftBlue\GB_LB_2.xlsx
75	main_safe	True	0.0	849	0	2.0	2.0	1.0	1	right	1.0	1.0	1.0	1	0.08	blockFiles/set_4/main_safe/leftBlue\GB_LB_2.xlsx
76	main_safe	True	0.0	849	0	3.0	3.0	0.0	1	left	1.0	1.0	1.0	0	-0.08	blockFiles/set_4/main_safe/rightBlue\GB_RB_1.xlsx
77	main_safe	True	0.0	849	0	3.0	3.0	1.0	1	right	2.0	0.0	1.0	1	0.08	blockFiles/set_4/main_safe/rightBlue\GB_RB_1.xlsx
78	main_safe	True	0.0	849	0	3.0	3.0	1.0	1	right	2.0	0.0	1.0	1	0.08	blockFiles/set_4/main_safe/rightBlue\GB_RB_1.xlsx
79	main_safe	True	0.0	849	0	3.0	3.0	1.0	1	right	2.0	1.0	1.0	1	0.08	blockFiles/set_4/main_safe/rightBlue\GB_RB_1.xlsx
80	main_safe	True	0.0	849	0	3.0	3.0	0.0	1	left	1.0	1.0	1.0	0	-0.08	blockFiles/set_4/main_safe/rightBlue\GB_RB_1.xlsx
81	main_safe	True	0.0	849	0	3.0	3.0	0.0	1	left	1.0	1.0	1.0	0	-0.08	blockFiles/set_4/main_safe/rightBlue\GB_RB_1.xlsx
82	main_safe	True	0.0	849	0	3.0	3.0	0.0	1	left	1.0	0.0	1.0	0	-0.08	blockFiles/set_4/main_safe/rightBlue\GB_RB_1.xlsx
83	main_safe	True	0.0	849	0	3.0	3.0	1.0	1	right	2.0	1.0	1.0	1	0.08	blockFiles/set_4/main_safe/rightBlue\GB_RB_1.xlsx
84	main_safe	True	0.0	849	0	3.0	3.0	0.0	1	left	1.0	1.0	1.0	0	-0.08	blockFiles/set_4/main_safe/rightBlue\GB_RB_1.xlsx
85	main_safe	True	0.0	849	0	3.0	3.0	1.0	1	right	2.0	0.0	1.0	1	0.08	blockFiles/set_4/main_safe/rightBlue\GB_RB_1.xlsx
86	main_safe	True	0.0	849	0	3.0	3.0	0.0	1	left	1.0	1.0	1.0	0	-0.08	blockFiles/set_4/main_safe/rightBlue\GB_RB_1.xlsx
87	main_safe	True	0.0	849	0	3.0	3.0	1.0	1	right	2.0	1.0	1.0	1	0.08	blockFiles/set_4/main_safe/rightBlue\GB_RB_1.xlsx
88	main_safe	True	0.0	849	0	3.0	3.0	0.0	1	left	1.0	1.0	1.0	0	-0.08	blockFiles/set_4/main_safe/rightBlue\GB_RB_1.xlsx
89	main_safe	True	0.0	849	0	3.0	3.0	1.0	1	right	2.0	1.0	1.0	1	0.08	blockFiles/set_4/main_safe/rightBlue\GB_RB_1.xlsx
90	main_safe	True	0.0	849	0	3.0	3.0	1.0	1	right	2.0	1.0	1.0	1	0.08	blockFiles/set_4/main_safe/rightBlue\GB_RB_1.xlsx
91	main_safe	True	0.0	849	0	3.0	3.0	1.0	1	right	2.0	1.0	1.0	1	0.08	blockFiles/set_4/main_safe/rightBlue\GB_RB_1.xlsx
92	main_safe	True	0.0	849	0	3.0	3.0	0.0	1	left	1.0	1.0	1.0	0	-0.08	blockFiles/set_4/main_safe/rightBlue\GB_RB_1.xlsx
93	main_safe	True	0.0	849	0	3.0	3.0	0.0	1	left	1.0	1.0	1.0	0	-0.08	blockFiles/set_4/main_safe/rightBlue\GB_RB_1.xlsx
94	main_safe	True	0.0	849	0	3.0	3.0	1.0	1	right	2.0	1.0	1.0	1	0.08	blockFiles/set_4/main_safe/rightBlue\GB_RB_1.xlsx
95	main_safe	True	0.0	849	0	3.0	3.0	1.0	1	right	1.0	0.0	0.0	1	0.08	blockFiles/set_4/main_safe/rightBlue\GB_RB_1.xlsx
96	main_safe	True	0.0	849	0	3.0	3.0	1.0	1	right	2.0	1.0	1.0	1	0.08	blockFiles/set_4/main_safe/rightBlue\GB_RB_1.xlsx
97	main_safe	True	0.0	849	0	3.0	3.0	0.0	1	left	1.0	1.0	1.0	0	-0.08	blockFiles/set_4/main_safe/rightBlue\GB_RB_1.xlsx
98	main_safe	True	0.0	849	0	3.0	3.0	0.0	1	left	1.0	1.0	1.0	0	-0.08	blockFiles/set_4/main_safe/rightBlue\GB_RB_1.xlsx
99	main_safe	True	0.0	849	0	3.0	3.0	0.0	1	left	1.0	0.0	1.0	0	-0.08	blockFiles/set_4/main_safe/rightBlue\GB_RB_1.xlsx
100	main_safe	True	0.0	849	0	3.0	3.0	1.0	1	right	2.0	1.0	1.0	1	0.08	blockFiles/set_4/main_safe/rightBlue\GB_RB_1.xlsx
101	main_safe	True	0.0	849	0	4.0	4.0	1.0	1	right	2.0	0.0	0.0	1	0.08	blockFiles/set_4/main_safe/leftBlue\GB_LB_1.xlsx
102	main_safe	True	0.0	849	0	4.0	4.0	1.0	1	right	1.0	1.0	1.0	1	0.08	blockFiles/set_4/main_safe/leftBlue\GB_LB_1.xlsx
103	main_safe	True	0.0	849	0	4.0	4.0	0.0	1	left	2.0	0.0	1.0	0	-0.08	blockFiles/set_4/main_safe/leftBlue\GB_LB_1.xlsx
104	main_safe	True	0.0	849	0	4.0	4.0	0.0	1	left	2.0	1.0	1.0	0	-0.08	blockFiles/set_4/main_safe/leftBlue\GB_LB_1.xlsx
105	main_safe	True	0.0	849	0	4.0	4.0	1.0	1	right	1.0	1.0	1.0	1	0.08	blockFiles/set_4/main_safe/leftBlue\GB_LB_1.xlsx
106	main_safe	True	0.0	849	0	4.0	4.0	1.0	1	right	1.0	1.0	1.0	1	0.08	blockFiles/set_4/main_safe/leftBlue\GB_LB_1.xlsx
107	main_safe	True	0.0	849	0	4.0	4.0	0.0	1	left	2.0	0.0	1.0	0	-0.08	blockFiles/set_4/main_safe/leftBlue\GB_LB_1.xlsx
108	main_safe	True	0.0	849	0	4.0	4.0	1.0	1	right	1.0	1.0	1.0	1	0.08	blockFiles/set_4/main_safe/leftBlue\GB_LB_1.xlsx
109	main_safe	True	0.0	849	0	4.0	4.0	0.0	1	left	2.0	1.0	1.0	0	-0.08	blockFiles/set_4/main_safe/leftBlue\GB_LB_1.xlsx
110	main_safe	True	0.0	849	0	4.0	4.0	0.0	1	left	2.0	1.0	1.0	0	-0.08	blockFiles/set_4/main_safe/leftBlue\GB_LB_1.xlsx
111	main_safe	True	0.0	849	0	4.0	4.0	1.0	1	right	1.0	1.0	1.0	1	0.08	blockFiles/set_4/main_safe/leftBlue\GB_LB_1.xlsx
112	main_safe	True	0.0	849	0	4.0	4.0	0.0	1	left	2.0	1.0	1.0	0	-0.08	blockFiles/set_4/main_safe/leftBlue\GB_LB_1.xlsx
113	main_safe	True	0.0	849	0	4.0	4.0	1.0	1	right	2.0	0.0	0.0	1	0.08	blockFiles/set_4/main_safe/leftBlue\GB_LB_1.xlsx
114	main_safe	True	0.0	849	0	4.0	4.0	0.0	1	left	2.0	1.0	1.0	0	-0.08	blockFiles/set_4/main_safe/leftBlue\GB_LB_1.xlsx
115	main_safe	True	0.0	849	0	4.0	4.0	1.0	1	right	1.0	1.0	1.0	1	0.08	blockFiles/set_4/main_safe/leftBlue\GB_LB_1.xlsx
116	main_safe	True	0.0	849	0	4.0	4.0	1.0	1	right	2.0	0.0	0.0	1	0.08	blockFiles/set_4/main_safe/leftBlue\GB_LB_1.xlsx
117	main_safe	True	0.0	849	0	4.0	4.0	0.0	1	left	2.0	1.0	1.0	0	-0.08	blockFiles/set_4/main_safe/leftBlue\GB_LB_1.xlsx
118	main_safe	True	0.0	849	0	4.0	4.0	1.0	1	right	1.0	1.0	1.0	1	0.08	blockFiles/set_4/main_safe/leftBlue\GB_LB_1.xlsx
119	main_safe	True	0.0	849	0	4.0	4.0	1.0	1	right	1.0	0.0	1.0	1	0.08	blockFiles/set_4/main_safe/leftBlue\GB_LB_1.xlsx
120	main_safe	True	0.0	849	0	4.0	4.0	1.0	1	right	1.0	1.0	1.0	1	0.08	blockFiles/set_4/main_safe/leftBlue\GB_LB_1.xlsx
121	main_safe	True	0.0	849	0	4.0	4.0	0.0	1	left	2.0	1.0	1.0	0	-0.08	blockFiles/set_4/main_safe/leftBlue\GB_LB_1.xlsx
122	main_safe	True	0.0	849	0	4.0	4.0	0.0	1	left	2.0	1.0	1.0	0	-0.08	blockFiles/set_4/main_safe/leftBlue\GB_LB_1.xlsx
123	main_safe	True	0.0	849	0	4.0	4.0	0.0	1	left	2.0	0.0	1.0	0	-0.08	blockFiles/set_4/main_safe/leftBlue\GB_LB_1.xlsx
124	main_safe	True	0.0	849	0	4.0	4.0	1.0	1	right	1.0	0.0	1.0	1	0.08	blockFiles/set_4/main_safe/leftBlue\GB_LB_1.xlsx
125	main_safe	True	0.0	849	0	4.0	4.0	0.0	1	left	2.0	1.0	1.0	0	-0.08	blockFiles/set_4/main_safe/leftBlue\GB_LB_1.xlsx
126	main_safe	True	0.0	849	0	5.0	5.0	1.0	1	right	2.0	0.0	0.0	1	0.08	blockFiles/set_4/main_safe/leftBlue\GB_LB_3.xlsx
127	main_safe	True	0.0	849	0	5.0	5.0	0.0	1	left	2.0	1.0	1.0	0	-0.08	blockFiles/set_4/main_safe/leftBlue\GB_LB_3.xlsx
128	main_safe	True	0.0	849	0	5.0	5.0	1.0	1	right	1.0	0.0	1.0	1	0.08	blockFiles/set_4/main_safe/leftBlue\GB_LB_3.xlsx
129	main_safe	True	0.0	849	0	5.0	5.0	1.0	1	right	1.0	1.0	1.0	1	0.08	blockFiles/set_4/main_safe/leftBlue\GB_LB_3.xlsx
130	main_safe	True	0.0	849	0	5.0	5.0	0.0	1	left	2.0	1.0	1.0	0	-0.08	blockFiles/set_4/main_safe/leftBlue\GB_LB_3.xlsx
131	main_safe	True	0.0	849	0	5.0	5.0	0.0	1	left	2.0	1.0	1.0	0	-0.08	blockFiles/set_4/main_safe/leftBlue\GB_LB_3.xlsx
132	main_safe	True	0.0	849	0	5.0	5.0	1.0	1	right	1.0	1.0	1.0	1	0.08	blockFiles/set_4/main_safe/leftBlue\GB_LB_3.xlsx
133	main_safe	True	0.0	849	0	5.0	5.0	1.0	1	right	2.0	0.0	0.0	1	0.08	blockFiles/set_4/main_safe/leftBlue\GB_LB_3.xlsx
134	main_safe	True	0.0	849	0	5.0	5.0	0.0	1	left	2.0	0.0	1.0	0	-0.08	blockFiles/set_4/main_safe/leftBlue\GB_LB_3.xlsx
135	main_safe	True	0.0	849	0	5.0	5.0	1.0	1	right	1.0	1.0	1.0	1	0.08	blockFiles/set_4/main_safe/leftBlue\GB_LB_3.xlsx
136	main_safe	True	0.0	849	0	5.0	5.0	0.0	1	left	2.0	1.0	1.0	0	-0.08	blockFiles/set_4/main_safe/leftBlue\GB_LB_3.xlsx
137	main_safe	True	0.0	849	0	5.0	5.0	1.0	1	right	1.0	1.0	1.0	1	0.08	blockFiles/set_4/main_safe/leftBlue\GB_LB_3.xlsx
138	main_safe	True	0.0	849	0	5.0	5.0	1.0	1	right	1.0	1.0	1.0	1	0.08	blockFiles/set_4/main_safe/leftBlue\GB_LB_3.xlsx
139	main_safe	True	0.0	849	0	5.0	5.0	1.0	1	right	1.0	1.0	1.0	1	0.08	blockFiles/set_4/main_safe/leftBlue\GB_LB_3.xlsx
140	main_safe	True	0.0	849	0	5.0	5.0	0.0	1	left	2.0	1.0	1.0	0	-0.08	blockFiles/set_4/main_safe/leftBlue\GB_LB_3.xlsx
141	main_safe	True	0.0	849	0	5.0	5.0	0.0	1	left	2.0	1.0	1.0	0	-0.08	blockFiles/set_4/main_safe/leftBlue\GB_LB_3.xlsx
142	main_safe	True	0.0	849	0	5.0	5.0	0.0	1	left	2.0	1.0	1.0	0	-0.08	blockFiles/set_4/main_safe/leftBlue\GB_LB_3.xlsx
143	main_safe	True	0.0	849	0	5.0	5.0	0.0	1	left	2.0	1.0	1.0	0	-0.08	blockFiles/set_4/main_safe/leftBlue\GB_LB_3.xlsx
144	main_safe	True	0.0	849	0	5.0	5.0	0.0	1	left	2.0	1.0	1.0	0	-0.08	blockFiles/set_4/main_safe/leftBlue\GB_LB_3.xlsx
145	main_safe	True	0.0	849	0	5.0	5.0	1.0	1	right	1.0	1.0	1.0	1	0.08	blockFiles/set_4/main_safe/leftBlue\GB_LB_3.xlsx
146	main_safe	True	0.0	849	0	5.0	5.0	0.0	1	left	2.0	1.0	1.0	0	-0.08	blockFiles/set_4/main_safe/leftBlue\GB_LB_3.xlsx
147	main_safe	True	0.0	849	0	5.0	5.0	1.0	1	right	1.0	1.0	1.0	1	0.08	blockFiles/set_4/main_safe/leftBlue\GB_LB_3.xlsx
148	main_safe	True	0.0	849	0	5.0	5.0	1.0	1	right	1.0	0.0	1.0	1	0.08	blockFiles/set_4/main_safe/leftBlue\GB_LB_3.xlsx
149	main_safe	True	0.0	849	0	5.0	5.0	1.0	1	right	1.0	0.0	1.0	1	0.08	blockFiles/set_4/main_safe/leftBlue\GB_LB_3.xlsx
150	main_safe	True	0.0	849	0	5.0	5.0	0.0	1	left	2.0	1.0	1.0	0	-0.08	blockFiles/set_4/main_safe/leftBlue\GB_LB_3.xlsx
151	patches	True	n/a	849	0	n/a	n/a	0.0	1	left	n/a	n/a	n/a	0	-0.0638977718912	blockFiles/set_4/main_PD/GB_runPatches1.xlsx
152	patches	True	n/a	849	0	n/a	n/a	0.0	1	left	n/a	n/a	n/a	0	-0.0298204590008	blockFiles/set_4/main_PD/GB_runPatches1.xlsx
153	patches	True	n/a	849	0	n/a	n/a	n/a	0	None	n/a	n/a	n/a	1	0.014750407394000001	blockFiles/set_4/main_PD/GB_runPatches1.xlsx
154	patches	True	n/a	849	0	n/a	n/a	0.0	0	left	n/a	n/a	n/a	1	0.0115609230287	blockFiles/set_4/main_PD/GB_runPatches1.xlsx
155	patches	True	n/a	849	0	n/a	n/a	1.0	1	right	n/a	n/a	n/a	1	0.0692961826362	blockFiles/set_4/main_PD/GB_runPatches1.xlsx
156	patches	True	n/a	849	0	n/a	n/a	0.0	1	left	n/a	n/a	n/a	0	-0.018441670537	blockFiles/set_4/main_PD/GB_runPatches1.xlsx
157	patches	True	n/a	849	0	n/a	n/a	0.0	1	left	n/a	n/a	n/a	0	-0.061965870037699995	blockFiles/set_4/main_PD/GB_runPatches1.xlsx
158	patches	True	n/a	849	0	n/a	n/a	1.0	1	right	n/a	n/a	n/a	1	0.0453335480951	blockFiles/set_4/main_PD/GB_runPatches1.xlsx
159	patches	True	n/a	849	0	n/a	n/a	1.0	0	right	n/a	n/a	n/a	0	-0.0235758150183	blockFiles/set_4/main_PD/GB_runPatches1.xlsx
160	patches	True	n/a	849	0	n/a	n/a	0.0	0	left	n/a	n/a	n/a	1	0.0427007174306	blockFiles/set_4/main_PD/GB_runPatches1.xlsx
161	patches	True	n/a	849	0	n/a	n/a	1.0	1	right	n/a	n/a	n/a	1	0.0418983247504	blockFiles/set_4/main_PD/GB_runPatches1.xlsx
162	patches	True	n/a	849	0	n/a	n/a	0.0	1	left	n/a	n/a	n/a	0	-0.012244304195000002	blockFiles/set_4/main_PD/GB_runPatches1.xlsx
163	patches	True	n/a	849	0	n/a	n/a	1.0	1	right	n/a	n/a	n/a	1	0.0470716622286	blockFiles/set_4/main_PD/GB_runPatches1.xlsx
164	patches	True	n/a	849	0	n/a	n/a	1.0	1	right	n/a	n/a	n/a	1	0.0648222260922	blockFiles/set_4/main_PD/GB_runPatches1.xlsx
165	patches	True	n/a	849	0	n/a	n/a	1.0	0	right	n/a	n/a	n/a	0	-0.0312771461904	blockFiles/set_4/main_PD/GB_runPatches1.xlsx
166	patches	True	n/a	849	0	n/a	n/a	0.0	1	left	n/a	n/a	n/a	0	-0.034994053989599996	blockFiles/set_4/main_PD/GB_runPatches1.xlsx
167	patches	True	n/a	849	0	n/a	n/a	1.0	1	right	n/a	n/a	n/a	1	0.0299103872851	blockFiles/set_4/main_PD/GB_runPatches1.xlsx
168	patches	True	n/a	849	0	n/a	n/a	n/a	0	None	n/a	n/a	n/a	0	-0.045399163942800004	blockFiles/set_4/main_PD/GB_runPatches1.xlsx
169	patches	True	n/a	849	0	n/a	n/a	0.0	0	left	n/a	n/a	n/a	1	0.0152959426679	blockFiles/set_4/main_PD/GB_runPatches1.xlsx
170	patches	True	n/a	849	0	n/a	n/a	0.0	1	left	n/a	n/a	n/a	0	-0.0101916191354	blockFiles/set_4/main_PD/GB_runPatches1.xlsx
171	patches	True	n/a	849	0	n/a	n/a	1.0	1	right	n/a	n/a	n/a	1	0.071518291831	blockFiles/set_4/main_PD/GB_runPatches1.xlsx
172	patches	True	n/a	849	0	n/a	n/a	0.0	0	left	n/a	n/a	n/a	1	0.0392197951488	blockFiles/set_4/main_PD/GB_runPatches1.xlsx
173	patches	True	n/a	849	0	n/a	n/a	0.0	1	left	n/a	n/a	n/a	0	-0.0018828073516500001	blockFiles/set_4/main_PD/GB_runPatches1.xlsx
174	patches	True	n/a	849	0	n/a	n/a	1.0	1	right	n/a	n/a	n/a	1	0.051056290510999996	blockFiles/set_4/main_PD/GB_runPatches1.xlsx
175	patches	True	n/a	849	0	n/a	n/a	0.0	1	left	n/a	n/a	n/a	0	-0.0121026546508	blockFiles/set_4/main_PD/GB_runPatches1.xlsx
176	patches	True	n/a	849	0	n/a	n/a	1.0	1	right	n/a	n/a	n/a	1	0.06764469150449999	blockFiles/set_4/main_PD/GB_runPatches1.xlsx
177	patches	True	n/a	849	0	n/a	n/a	1.0	1	right	n/a	n/a	n/a	1	0.0627748713456	blockFiles/set_4/main_PD/GB_runPatches1.xlsx
178	patches	True	n/a	849	0	n/a	n/a	1.0	1	right	n/a	n/a	n/a	1	0.060121180545499996	blockFiles/set_4/main_PD/GB_runPatches1.xlsx
179	patches	True	n/a	849	0	n/a	n/a	1.0	0	right	n/a	n/a	n/a	0	-0.0036271284706900003	blockFiles/set_4/main_PD/GB_runPatches1.xlsx
180	patches	True	n/a	849	0	n/a	n/a	0.0	1	left	n/a	n/a	n/a	0	-0.0441326670907	blockFiles/set_4/main_PD/GB_runPatches1.xlsx
181	patches	True	n/a	849	0	n/a	n/a	1.0	1	right	n/a	n/a	n/a	1	0.032158238478	blockFiles/set_4/main_PD/GB_runPatches1.xlsx
182	patches	True	n/a	849	0	n/a	n/a	1.0	1	right	n/a	n/a	n/a	1	0.0405755879916	blockFiles/set_4/main_PD/GB_runPatches1.xlsx
183	patches	True	n/a	849	0	n/a	n/a	1.0	1	right	n/a	n/a	n/a	1	0.07880954908210001	blockFiles/set_4/main_PD/GB_runPatches1.xlsx
184	patches	True	n/a	849	0	n/a	n/a	1.0	1	right	n/a	n/a	n/a	1	0.0722257420793	blockFiles/set_4/main_PD/GB_runPatches1.xlsx
185	patches	True	n/a	849	0	n/a	n/a	1.0	1	right	n/a	n/a	n/a	1	0.00108685093001	blockFiles/set_4/main_PD/GB_runPatches1.xlsx
186	patches	True	n/a	849	0	n/a	n/a	0.0	1	left	n/a	n/a	n/a	0	-0.0351050008275	blockFiles/set_4/main_PD/GB_runPatches1.xlsx
187	patches	True	n/a	849	0	n/a	n/a	1.0	1	right	n/a	n/a	n/a	1	0.05748037310319999	blockFiles/set_4/main_PD/GB_runPatches1.xlsx
188	patches	True	n/a	849	0	n/a	n/a	1.0	1	right	n/a	n/a	n/a	1	0.00264609089121	blockFiles/set_4/main_PD/GB_runPatches1.xlsx
189	patches	True	n/a	849	0	n/a	n/a	1.0	0	right	n/a	n/a	n/a	0	-0.013023394402100002	blockFiles/set_4/main_PD/GB_runPatches1.xlsx
190	patches	True	n/a	849	0	n/a	n/a	0.0	1	left	n/a	n/a	n/a	0	-0.076545626279	blockFiles/set_4/main_PD/GB_runPatches1.xlsx
191	patches	True	n/a	849	0	n/a	n/a	0.0	1	left	n/a	n/a	n/a	0	-0.0622260438837	blockFiles/set_4/main_PD/GB_runPatches1.xlsx
192	patches	True	n/a	849	0	n/a	n/a	0.0	1	left	n/a	n/a	n/a	0	-0.0788902168907	blockFiles/set_4/main_PD/GB_runPatches1.xlsx
193	patches	True	n/a	849	0	n/a	n/a	1.0	0	right	n/a	n/a	n/a	0	-0.00079458296299	blockFiles/set_4/main_PD/GB_runPatches1.xlsx
194	patches	True	n/a	849	0	n/a	n/a	1.0	1	right	n/a	n/a	n/a	1	0.0667423132062	blockFiles/set_4/main_PD/GB_runPatches1.xlsx
195	patches	True	n/a	849	0	n/a	n/a	1.0	1	right	n/a	n/a	n/a	1	0.0289597218297	blockFiles/set_4/main_PD/GB_runPatches1.xlsx
196	patches	True	n/a	849	0	n/a	n/a	1.0	0	right	n/a	n/a	n/a	0	-0.011676960848299998	blockFiles/set_4/main_PD/GB_runPatches1.xlsx
197	patches	True	n/a	849	0	n/a	n/a	1.0	1	right	n/a	n/a	n/a	1	0.05138410102580001	blockFiles/set_4/main_PD/GB_runPatches1.xlsx
198	patches	True	n/a	849	0	n/a	n/a	1.0	0	right	n/a	n/a	n/a	0	-0.025448941923700005	blockFiles/set_4/main_PD/GB_runPatches1.xlsx
199	patches	True	n/a	849	0	n/a	n/a	0.0	1	left	n/a	n/a	n/a	0	-0.0507366706617	blockFiles/set_4/main_PD/GB_runPatches1.xlsx
200	patches	True	n/a	849	0	n/a	n/a	0.0	1	left	n/a	n/a	n/a	0	-0.0302903450839	blockFiles/set_4/main_PD/GB_runPatches1.xlsx
201	patches	True	n/a	849	0	n/a	n/a	0.0	1	left	n/a	n/a	n/a	0	-0.0715222845227	blockFiles/set_4/main_PD/GB_runPatches1.xlsx
202	patches	True	n/a	849	0	n/a	n/a	1.0	0	right	n/a	n/a	n/a	0	-0.00301753053442	blockFiles/set_4/main_PD/GB_runPatches1.xlsx
203	patches	True	n/a	849	0	n/a	n/a	0.0	1	left	n/a	n/a	n/a	0	-0.03685095099730001	blockFiles/set_4/main_PD/GB_runPatches1.xlsx
204	patches	True	n/a	849	0	n/a	n/a	1.0	1	right	n/a	n/a	n/a	1	0.06814137944950001	blockFiles/set_4/main_PD/GB_runPatches1.xlsx
205	patches	True	n/a	849	0	n/a	n/a	1.0	1	right	n/a	n/a	n/a	1	0.024601183980700003	blockFiles/set_4/main_PD/GB_runPatches1.xlsx
206	patches	True	n/a	849	0	n/a	n/a	0.0	1	left	n/a	n/a	n/a	0	-0.0681414590031	blockFiles/set_4/main_PD/GB_runPatches1.xlsx
207	patches	True	n/a	849	0	n/a	n/a	0.0	1	left	n/a	n/a	n/a	0	-0.028034069612599997	blockFiles/set_4/main_PD/GB_runPatches1.xlsx
208	patches	True	n/a	849	0	n/a	n/a	1.0	0	right	n/a	n/a	n/a	0	-0.0315448089316	blockFiles/set_4/main_PD/GB_runPatches1.xlsx
209	patches	True	n/a	849	0	n/a	n/a	1.0	0	right	n/a	n/a	n/a	0	-0.062253413945399995	blockFiles/set_4/main_PD/GB_runPatches1.xlsx
210	patches	True	n/a	849	0	n/a	n/a	0.0	1	left	n/a	n/a	n/a	0	-0.018281375970700002	blockFiles/set_4/main_PD/GB_runPatches1.xlsx
211	patches	True	n/a	849	0	n/a	n/a	1.0	1	right	n/a	n/a	n/a	1	0.012922356966899999	blockFiles/set_4/main_PD/GB_runPatches1.xlsx
212	patches	True	n/a	849	0	n/a	n/a	1.0	1	right	n/a	n/a	n/a	1	0.0408244457282	blockFiles/set_4/main_PD/GB_runPatches1.xlsx
213	patches	True	n/a	849	0	n/a	n/a	0.0	1	left	n/a	n/a	n/a	0	-0.0318250717036	blockFiles/set_4/main_PD/GB_runPatches1.xlsx
214	patches	True	n/a	849	0	n/a	n/a	1.0	1	right	n/a	n/a	n/a	1	0.0768739064783	blockFiles/set_4/main_PD/GB_runPatches1.xlsx
215	patches	True	n/a	849	0	n/a	n/a	1.0	1	right	n/a	n/a	n/a	1	0.03692450499159999	blockFiles/set_4/main_PD/GB_runPatches1.xlsx
216	patches	True	n/a	849	0	n/a	n/a	1.0	1	right	n/a	n/a	n/a	1	0.0644871257991	blockFiles/set_4/main_PD/GB_runPatches1.xlsx
217	patches	True	n/a	849	0	n/a	n/a	0.0	1	left	n/a	n/a	n/a	0	-0.025589357540000003	blockFiles/set_4/main_PD/GB_runPatches1.xlsx
218	patches	True	n/a	849	0	n/a	n/a	0.0	1	left	n/a	n/a	n/a	0	-0.0159168803133	blockFiles/set_4/main_PD/GB_runPatches1.xlsx
219	patches	True	n/a	849	0	n/a	n/a	0.0	1	left	n/a	n/a	n/a	0	-0.0770179726183	blockFiles/set_4/main_PD/GB_runPatches1.xlsx
220	patches	True	n/a	849	0	n/a	n/a	1.0	1	right	n/a	n/a	n/a	1	0.0454794549197	blockFiles/set_4/main_PD/GB_runPatches1.xlsx
221	patches	True	n/a	849	0	n/a	n/a	n/a	0	None	n/a	n/a	n/a	1	0.011777653358899999	blockFiles/set_4/main_PD/GB_runPatches1.xlsx
222	patches	True	n/a	849	0	n/a	n/a	1.0	0	right	n/a	n/a	n/a	0	-0.0255256799608	blockFiles/set_4/main_PD/GB_runPatches1.xlsx
223	patches	True	n/a	849	0	n/a	n/a	0.0	1	left	n/a	n/a	n/a	0	-0.06511302409690001	blockFiles/set_4/main_PD/GB_runPatches1.xlsx
224	patches	True	n/a	849	0	n/a	n/a	0.0	0	left	n/a	n/a	n/a	1	0.0439993467368	blockFiles/set_4/main_PD/GB_runPatches1.xlsx
225	patches	True	n/a	849	0	n/a	n/a	1.0	0	right	n/a	n/a	n/a	0	-0.013844636306200002	blockFiles/set_4/main_PD/GB_runPatches1.xlsx
226	patches	True	n/a	849	0	n/a	n/a	1.0	0	right	n/a	n/a	n/a	0	-0.0402512867749	blockFiles/set_4/main_PD/GB_runPatches1.xlsx
227	patches	True	n/a	849	0	n/a	n/a	0.0	1	left	n/a	n/a	n/a	0	-0.040103923846	blockFiles/set_4/main_PD/GB_runPatches1.xlsx
228	patches	True	n/a	849	0	n/a	n/a	1.0	0	right	n/a	n/a	n/a	0	-0.0283583693951	blockFiles/set_4/main_PD/GB_runPatches1.xlsx
229	patches	True	n/a	849	0	n/a	n/a	1.0	1	right	n/a	n/a	n/a	1	0.0723522472568	blockFiles/set_4/main_PD/GB_runPatches1.xlsx
230	patches	True	n/a	849	0	n/a	n/a	1.0	1	right	n/a	n/a	n/a	1	0.0058030183426999995	blockFiles/set_4/main_PD/GB_runPatches1.xlsx
231	patches	True	n/a	849	0	n/a	n/a	0.0	1	left	n/a	n/a	n/a	0	-0.0177251392603	blockFiles/set_4/main_PD/GB_runPatches1.xlsx
232	patches	True	n/a	849	0	n/a	n/a	1.0	1	right	n/a	n/a	n/a	1	0.0375556112453	blockFiles/set_4/main_PD/GB_runPatches1.xlsx
233	patches	True	n/a	849	0	n/a	n/a	0.0	1	left	n/a	n/a	n/a	0	-0.025409781038799997	blockFiles/set_4/main_PD/GB_runPatches1.xlsx
234	patches	True	n/a	849	0	n/a	n/a	1.0	1	right	n/a	n/a	n/a	1	0.0249230754375	blockFiles/set_4/main_PD/GB_runPatches1.xlsx
235	patches	True	n/a	849	0	n/a	n/a	0.0	1	left	n/a	n/a	n/a	0	-0.05218712084	blockFiles/set_4/main_PD/GB_runPatches1.xlsx
236	patches	True	n/a	849	0	n/a	n/a	1.0	1	right	n/a	n/a	n/a	1	0.051527402848	blockFiles/set_4/main_PD/GB_runPatches1.xlsx
237	patches	True	n/a	849	0	n/a	n/a	1.0	1	right	n/a	n/a	n/a	1	0.0746553584933	blockFiles/set_4/main_PD/GB_runPatches1.xlsx
238	patches	True	n/a	849	0	n/a	n/a	1.0	1	right	n/a	n/a	n/a	1	0.0371230625175	blockFiles/set_4/main_PD/GB_runPatches1.xlsx
239	patches	True	n/a	849	0	n/a	n/a	1.0	1	right	n/a	n/a	n/a	1	0.0321502439119	blockFiles/set_4/main_PD/GB_runPatches1.xlsx
240	patches	True	n/a	849	0	n/a	n/a	1.0	1	right	n/a	n/a	n/a	1	0.0546808821708	blockFiles/set_4/main_PD/GB_runPatches1.xlsx
241	patches	True	n/a	849	0	n/a	n/a	1.0	0	right	n/a	n/a	n/a	0	-0.014935386311299998	blockFiles/set_4/main_PD/GB_runPatches1.xlsx
242	patches	True	n/a	849	0	n/a	n/a	1.0	1	right	n/a	n/a	n/a	1	0.014874398168200001	blockFiles/set_4/main_PD/GB_runPatches1.xlsx
243	patches	True	n/a	849	0	n/a	n/a	1.0	0	right	n/a	n/a	n/a	0	-0.0189466451667	blockFiles/set_4/main_PD/GB_runPatches1.xlsx
244	patches	True	n/a	849	0	n/a	n/a	n/a	0	None	n/a	n/a	n/a	1	0.0244187730551	blockFiles/set_4/main_PD/GB_runPatches1.xlsx
245	patches	True	n/a	849	0	n/a	n/a	1.0	1	right	n/a	n/a	n/a	1	0.064992066808	blockFiles/set_4/main_PD/GB_runPatches1.xlsx
246	patches	True	n/a	849	0	n/a	n/a	0.0	1	left	n/a	n/a	n/a	0	-0.0319720042869	blockFiles/set_4/main_PD/GB_runPatches1.xlsx
247	patches	True	n/a	849	0	n/a	n/a	0.0	1	left	n/a	n/a	n/a	0	-0.0628615248762	blockFiles/set_4/main_PD/GB_runPatches1.xlsx
248	patches	True	n/a	849	0	n/a	n/a	1.0	1	right	n/a	n/a	n/a	1	0.0191608375497	blockFiles/set_4/main_PD/GB_runPatches1.xlsx
249	patches	True	n/a	849	0	n/a	n/a	1.0	0	right	n/a	n/a	n/a	0	-0.026795537062	blockFiles/set_4/main_PD/GB_runPatches1.xlsx
250	patches	True	n/a	849	0	n/a	n/a	1.0	1	right	n/a	n/a	n/a	1	0.0699382414483	blockFiles/set_4/main_PD/GB_runPatches1.xlsx
251	main_unc	True	1.0	849	0	0.0	0.0	0.0	1	left	n/a	0.0	n/a	0	-0.0538377418183	blockFiles/set_4/main_unc/rightBlue\GB_RB_5.xlsx
252	main_unc	True	0.0	849	0	0.0	0.0	1.0	1	right	2.0	1.0	1.0	1	0.0409951742925	blockFiles/set_4/main_unc/rightBlue\GB_RB_5.xlsx
253	main_unc	True	0.0	849	0	0.0	0.0	0.0	1	left	1.0	1.0	1.0	0	-0.060786006711400005	blockFiles/set_4/main_unc/rightBlue\GB_RB_5.xlsx
254	main_unc	True	0.0	849	0	0.0	0.0	1.0	1	right	2.0	1.0	1.0	1	0.0275706718676	blockFiles/set_4/main_unc/rightBlue\GB_RB_5.xlsx
255	main_unc	True	0.0	849	0	0.0	0.0	0.0	1	left	1.0	0.0	1.0	0	-0.0656165026128	blockFiles/set_4/main_unc/rightBlue\GB_RB_5.xlsx
256	main_unc	True	0.0	849	0	0.0	0.0	0.0	0	left	1.0	1.0	0.0	1	0.0222042741068	blockFiles/set_4/main_unc/rightBlue\GB_RB_5.xlsx
257	main_unc	True	0.0	849	0	0.0	0.0	0.0	1	left	1.0	1.0	1.0	0	-0.043818163257099994	blockFiles/set_4/main_unc/rightBlue\GB_RB_5.xlsx
258	main_unc	True	0.0	849	0	0.0	0.0	0.0	1	left	1.0	1.0	1.0	0	-0.00917813500389	blockFiles/set_4/main_unc/rightBlue\GB_RB_5.xlsx
259	main_unc	True	0.0	849	0	0.0	0.0	0.0	0	left	1.0	0.0	0.0	1	0.011907695345600001	blockFiles/set_4/main_unc/rightBlue\GB_RB_5.xlsx
260	main_unc	True	0.0	849	0	0.0	0.0	0.0	0	left	1.0	0.0	0.0	1	0.025241281576499998	blockFiles/set_4/main_unc/rightBlue\GB_RB_5.xlsx
261	main_unc	True	0.0	849	0	0.0	0.0	0.0	1	left	1.0	0.0	1.0	0	-0.0424934339523	blockFiles/set_4/main_unc/rightBlue\GB_RB_5.xlsx
262	main_unc	True	0.0	849	0	0.0	0.0	1.0	1	right	2.0	1.0	1.0	1	0.0538295964152	blockFiles/set_4/main_unc/rightBlue\GB_RB_5.xlsx
263	main_unc	True	0.0	849	0	0.0	0.0	0.0	1	left	1.0	1.0	1.0	0	-0.055226027667500004	blockFiles/set_4/main_unc/rightBlue\GB_RB_5.xlsx
264	main_unc	True	0.0	849	0	0.0	0.0	0.0	1	left	1.0	1.0	1.0	0	-0.0724968757667	blockFiles/set_4/main_unc/rightBlue\GB_RB_5.xlsx
265	main_unc	True	0.0	849	0	0.0	0.0	0.0	1	left	1.0	0.0	1.0	0	-0.0540106824972	blockFiles/set_4/main_unc/rightBlue\GB_RB_5.xlsx
266	main_unc	True	0.0	849	0	0.0	0.0	0.0	1	left	1.0	1.0	1.0	0	-0.006604465004060001	blockFiles/set_4/main_unc/rightBlue\GB_RB_5.xlsx
267	main_unc	True	0.0	849	0	0.0	0.0	1.0	1	right	2.0	1.0	1.0	1	0.05081922482699999	blockFiles/set_4/main_unc/rightBlue\GB_RB_5.xlsx
268	main_unc	True	0.0	849	0	0.0	0.0	0.0	0	left	1.0	1.0	0.0	1	0.0143294199929	blockFiles/set_4/main_unc/rightBlue\GB_RB_5.xlsx
269	main_unc	True	0.0	849	0	0.0	0.0	0.0	1	left	1.0	1.0	1.0	0	-0.0588784980401	blockFiles/set_4/main_unc/rightBlue\GB_RB_5.xlsx
270	main_unc	True	0.0	849	0	0.0	0.0	0.0	0	left	1.0	0.0	0.0	1	0.00205110454932	blockFiles/set_4/main_unc/rightBlue\GB_RB_5.xlsx
271	main_unc	True	0.0	849	0	0.0	0.0	1.0	0	right	2.0	0.0	0.0	0	-0.04263806717469999	blockFiles/set_4/main_unc/rightBlue\GB_RB_5.xlsx
272	main_unc	True	0.0	849	0	0.0	0.0	1.0	0	right	2.0	0.0	0.0	0	-0.0128803374059	blockFiles/set_4/main_unc/rightBlue\GB_RB_5.xlsx
273	main_unc	True	0.0	849	0	0.0	0.0	0.0	1	left	1.0	1.0	1.0	0	-0.06505090450869999	blockFiles/set_4/main_unc/rightBlue\GB_RB_5.xlsx
274	main_unc	True	0.0	849	0	0.0	0.0	1.0	1	right	2.0	1.0	1.0	1	0.0722164595313	blockFiles/set_4/main_unc/rightBlue\GB_RB_5.xlsx
275	main_unc	True	0.0	849	0	0.0	0.0	1.0	1	right	2.0	0.0	1.0	1	0.07723452443260001	blockFiles/set_4/main_unc/rightBlue\GB_RB_5.xlsx
276	main_unc	True	0.0	849	0	0.0	0.0	0.0	1	left	2.0	0.0	0.0	0	-0.0538377418183	blockFiles/set_4/main_unc/rightBlue\GB_RB_5.xlsx
277	main_unc	True	0.0	849	0	1.0	1.0	0.0	1	left	1.0	0.0	0.0	0	-0.06366649154569999	blockFiles/set_4/main_unc/leftBlue\GB_LB_2.xlsx
278	main_unc	True	0.0	849	0	1.0	1.0	1.0	1	right	1.0	1.0	1.0	1	0.0300383086503	blockFiles/set_4/main_unc/leftBlue\GB_LB_2.xlsx
279	main_unc	True	0.0	849	0	1.0	1.0	1.0	1	right	1.0	1.0	1.0	1	0.0349328265898	blockFiles/set_4/main_unc/leftBlue\GB_LB_2.xlsx
280	main_unc	True	0.0	849	0	1.0	1.0	0.0	1	left	2.0	1.0	1.0	0	-0.0433721662872	blockFiles/set_4/main_unc/leftBlue\GB_LB_2.xlsx
281	main_unc	True	0.0	849	0	1.0	1.0	1.0	1	right	1.0	1.0	1.0	1	0.0668870968185	blockFiles/set_4/main_unc/leftBlue\GB_LB_2.xlsx
282	main_unc	True	0.0	849	0	1.0	1.0	1.0	1	right	2.0	0.0	0.0	1	0.040796027891300005	blockFiles/set_4/main_unc/leftBlue\GB_LB_2.xlsx
283	main_unc	True	0.0	849	0	1.0	1.0	1.0	1	right	1.0	0.0	1.0	1	0.0269714765996	blockFiles/set_4/main_unc/leftBlue\GB_LB_2.xlsx
284	main_unc	True	0.0	849	0	1.0	1.0	0.0	1	left	2.0	1.0	1.0	0	-0.040685603898	blockFiles/set_4/main_unc/leftBlue\GB_LB_2.xlsx
285	main_unc	True	0.0	849	0	1.0	1.0	1.0	1	right	1.0	1.0	1.0	1	0.0405635220185	blockFiles/set_4/main_unc/leftBlue\GB_LB_2.xlsx
286	main_unc	True	0.0	849	0	1.0	1.0	0.0	1	left	2.0	1.0	1.0	0	-0.0082959330827	blockFiles/set_4/main_unc/leftBlue\GB_LB_2.xlsx
287	main_unc	True	0.0	849	0	1.0	1.0	1.0	1	right	1.0	1.0	1.0	1	0.046387523375500006	blockFiles/set_4/main_unc/leftBlue\GB_LB_2.xlsx
288	main_unc	True	0.0	849	0	1.0	1.0	0.0	1	left	2.0	1.0	1.0	0	-0.0692142357491	blockFiles/set_4/main_unc/leftBlue\GB_LB_2.xlsx
289	main_unc	True	0.0	849	0	1.0	1.0	1.0	1	right	1.0	0.0	1.0	1	0.0750973279215	blockFiles/set_4/main_unc/leftBlue\GB_LB_2.xlsx
290	main_unc	True	0.0	849	0	1.0	1.0	0.0	1	left	2.0	1.0	1.0	0	-0.0583721260168	blockFiles/set_4/main_unc/leftBlue\GB_LB_2.xlsx
291	main_unc	True	0.0	849	0	1.0	1.0	1.0	1	right	1.0	1.0	1.0	1	0.0196732481197	blockFiles/set_4/main_unc/leftBlue\GB_LB_2.xlsx
292	main_unc	True	0.0	849	0	1.0	1.0	0.0	1	left	2.0	1.0	1.0	0	-0.038096018116900006	blockFiles/set_4/main_unc/leftBlue\GB_LB_2.xlsx
293	main_unc	True	0.0	849	0	1.0	1.0	1.0	1	right	1.0	0.0	1.0	1	0.07775125205519999	blockFiles/set_4/main_unc/leftBlue\GB_LB_2.xlsx
294	main_unc	True	0.0	849	0	1.0	1.0	0.0	1	left	2.0	1.0	1.0	0	-0.00644959490746	blockFiles/set_4/main_unc/leftBlue\GB_LB_2.xlsx
295	main_unc	True	0.0	849	0	1.0	1.0	1.0	0	right	1.0	0.0	0.0	0	-0.013398929163799998	blockFiles/set_4/main_unc/leftBlue\GB_LB_2.xlsx
296	main_unc	True	0.0	849	0	1.0	1.0	1.0	0	right	1.0	0.0	0.0	0	-0.030717841833799997	blockFiles/set_4/main_unc/leftBlue\GB_LB_2.xlsx
297	main_unc	True	0.0	849	0	1.0	1.0	0.0	1	left	2.0	1.0	1.0	0	-0.07071327149869999	blockFiles/set_4/main_unc/leftBlue\GB_LB_2.xlsx
298	main_unc	True	0.0	849	0	1.0	1.0	1.0	0	right	1.0	0.0	0.0	0	-0.0400601413287	blockFiles/set_4/main_unc/leftBlue\GB_LB_2.xlsx
299	main_unc	True	0.0	849	0	1.0	1.0	1.0	1	right	1.0	0.0	1.0	1	0.046266222503000005	blockFiles/set_4/main_unc/leftBlue\GB_LB_2.xlsx
300	main_unc	True	0.0	849	0	1.0	1.0	0.0	1	left	2.0	1.0	1.0	0	-0.032980187200000004	blockFiles/set_4/main_unc/leftBlue\GB_LB_2.xlsx
301	main_unc	True	0.0	849	0	1.0	1.0	1.0	1	right	1.0	1.0	1.0	1	0.0660777216591	blockFiles/set_4/main_unc/leftBlue\GB_LB_2.xlsx
302	main_unc	True	0.0	849	0	2.0	2.0	0.0	1	left	1.0	1.0	1.0	0	-0.0427681523934	blockFiles/set_4/main_unc/rightBlue\GB_RB_1.xlsx
303	main_unc	True	0.0	849	0	2.0	2.0	0.0	1	left	1.0	1.0	1.0	0	-0.0794888654165	blockFiles/set_4/main_unc/rightBlue\GB_RB_1.xlsx
304	main_unc	True	0.0	849	0	2.0	2.0	0.0	0	left	1.0	0.0	0.0	1	0.015942640397700002	blockFiles/set_4/main_unc/rightBlue\GB_RB_1.xlsx
305	main_unc	True	0.0	849	0	2.0	2.0	1.0	1	right	2.0	1.0	1.0	1	0.0617113958299	blockFiles/set_4/main_unc/rightBlue\GB_RB_1.xlsx
306	main_unc	True	0.0	849	0	2.0	2.0	1.0	1	right	2.0	1.0	1.0	1	0.0575406314991	blockFiles/set_4/main_unc/rightBlue\GB_RB_1.xlsx
307	main_unc	True	0.0	849	0	2.0	2.0	1.0	1	right	2.0	1.0	1.0	1	0.049809024632	blockFiles/set_4/main_unc/rightBlue\GB_RB_1.xlsx
308	main_unc	True	0.0	849	0	2.0	2.0	0.0	1	left	1.0	1.0	1.0	0	-0.0595837972499	blockFiles/set_4/main_unc/rightBlue\GB_RB_1.xlsx
309	main_unc	True	0.0	849	0	2.0	2.0	1.0	1	right	2.0	1.0	1.0	1	0.00617530997843	blockFiles/set_4/main_unc/rightBlue\GB_RB_1.xlsx
310	main_unc	True	0.0	849	0	2.0	2.0	1.0	1	right	2.0	1.0	1.0	1	0.0351934210584	blockFiles/set_4/main_unc/rightBlue\GB_RB_1.xlsx
311	main_unc	True	0.0	849	0	2.0	2.0	1.0	1	right	2.0	1.0	1.0	1	0.0724237492308	blockFiles/set_4/main_unc/rightBlue\GB_RB_1.xlsx
312	main_unc	True	0.0	849	0	2.0	2.0	1.0	1	right	2.0	1.0	1.0	1	0.0374070447497	blockFiles/set_4/main_unc/rightBlue\GB_RB_1.xlsx
313	main_unc	True	0.0	849	0	2.0	2.0	0.0	0	left	1.0	0.0	0.0	1	0.0332632565685	blockFiles/set_4/main_unc/rightBlue\GB_RB_1.xlsx
314	main_unc	True	0.0	849	0	2.0	2.0	1.0	1	right	2.0	1.0	1.0	1	0.0653739377484	blockFiles/set_4/main_unc/rightBlue\GB_RB_1.xlsx
315	main_unc	True	0.0	849	0	2.0	2.0	1.0	1	right	2.0	0.0	1.0	1	0.0345778025128	blockFiles/set_4/main_unc/rightBlue\GB_RB_1.xlsx
316	main_unc	True	0.0	849	0	2.0	2.0	1.0	0	right	2.0	0.0	0.0	0	-0.00166899651289	blockFiles/set_4/main_unc/rightBlue\GB_RB_1.xlsx
317	main_unc	True	0.0	849	0	2.0	2.0	0.0	1	left	1.0	1.0	1.0	0	-0.0602267730236	blockFiles/set_4/main_unc/rightBlue\GB_RB_1.xlsx
318	main_unc	True	0.0	849	0	2.0	2.0	0.0	1	left	1.0	1.0	1.0	0	-0.05983271814880001	blockFiles/set_4/main_unc/rightBlue\GB_RB_1.xlsx
319	main_unc	True	0.0	849	0	2.0	2.0	0.0	1	left	1.0	1.0	1.0	0	-0.0254019375704	blockFiles/set_4/main_unc/rightBlue\GB_RB_1.xlsx
320	main_unc	True	0.0	849	0	2.0	2.0	0.0	1	left	1.0	1.0	1.0	0	-0.008425859771670001	blockFiles/set_4/main_unc/rightBlue\GB_RB_1.xlsx
321	main_unc	True	0.0	849	0	2.0	2.0	1.0	1	right	2.0	0.0	1.0	1	0.034727105889499996	blockFiles/set_4/main_unc/rightBlue\GB_RB_1.xlsx
322	main_unc	True	0.0	849	0	2.0	2.0	1.0	1	right	2.0	1.0	1.0	1	0.05099861817430001	blockFiles/set_4/main_unc/rightBlue\GB_RB_1.xlsx
323	main_unc	True	0.0	849	0	2.0	2.0	0.0	1	left	1.0	0.0	1.0	0	-0.060522270388900005	blockFiles/set_4/main_unc/rightBlue\GB_RB_1.xlsx
324	main_unc	True	0.0	849	0	2.0	2.0	1.0	0	right	2.0	1.0	0.0	0	-0.00128231139854	blockFiles/set_4/main_unc/rightBlue\GB_RB_1.xlsx
325	main_unc	True	0.0	849	0	2.0	2.0	0.0	1	left	1.0	1.0	1.0	0	-0.074159458708	blockFiles/set_4/main_unc/rightBlue\GB_RB_1.xlsx
326	main_unc	True	0.0	849	0	2.0	2.0	0.0	1	left	1.0	1.0	1.0	0	-0.0169869944453	blockFiles/set_4/main_unc/rightBlue\GB_RB_1.xlsx
327	main_unc	True	0.0	849	0	3.0	3.0	1.0	0	right	2.0	1.0	1.0	0	-0.05213418982919999	blockFiles/set_4/main_unc/leftBlue\GB_LB_3.xlsx
328	main_unc	True	0.0	849	0	3.0	3.0	0.0	1	left	1.0	0.0	0.0	0	-0.0417458145134	blockFiles/set_4/main_unc/leftBlue\GB_LB_3.xlsx
329	main_unc	True	0.0	849	0	3.0	3.0	1.0	1	right	2.0	0.0	0.0	1	0.026915136054199998	blockFiles/set_4/main_unc/leftBlue\GB_LB_3.xlsx
330	main_unc	True	0.0	849	0	3.0	3.0	1.0	1	right	1.0	1.0	1.0	1	0.03455322410909999	blockFiles/set_4/main_unc/leftBlue\GB_LB_3.xlsx
331	main_unc	True	0.0	849	0	3.0	3.0	0.0	1	left	2.0	1.0	1.0	0	-0.0732310385257	blockFiles/set_4/main_unc/leftBlue\GB_LB_3.xlsx
332	main_unc	True	0.0	849	0	3.0	3.0	0.0	1	left	2.0	1.0	1.0	0	-0.018758592885	blockFiles/set_4/main_unc/leftBlue\GB_LB_3.xlsx
333	main_unc	True	0.0	849	0	3.0	3.0	1.0	1	right	1.0	1.0	1.0	1	0.030758373215799998	blockFiles/set_4/main_unc/leftBlue\GB_LB_3.xlsx
334	main_unc	True	0.0	849	0	3.0	3.0	1.0	1	right	1.0	1.0	1.0	1	0.0537141022831	blockFiles/set_4/main_unc/leftBlue\GB_LB_3.xlsx
335	main_unc	True	0.0	849	0	3.0	3.0	0.0	0	left	2.0	0.0	0.0	1	0.013914527967600001	blockFiles/set_4/main_unc/leftBlue\GB_LB_3.xlsx
336	main_unc	True	0.0	849	0	3.0	3.0	1.0	1	right	1.0	0.0	1.0	1	0.075568122454	blockFiles/set_4/main_unc/leftBlue\GB_LB_3.xlsx
337	main_unc	True	0.0	849	0	3.0	3.0	1.0	1	right	1.0	1.0	1.0	1	0.0314118026756	blockFiles/set_4/main_unc/leftBlue\GB_LB_3.xlsx
338	main_unc	True	1.0	849	0	3.0	3.0	1.0	0	right	n/a	0.0	n/a	0	-0.0113082010858	blockFiles/set_4/main_unc/leftBlue\GB_LB_3.xlsx
339	main_unc	True	0.0	849	0	3.0	3.0	0.0	1	left	2.0	1.0	1.0	0	-0.0714498789981	blockFiles/set_4/main_unc/leftBlue\GB_LB_3.xlsx
340	main_unc	True	0.0	849	0	3.0	3.0	1.0	0	right	1.0	0.0	0.0	0	-0.0222315072827	blockFiles/set_4/main_unc/leftBlue\GB_LB_3.xlsx
341	main_unc	True	0.0	849	0	3.0	3.0	0.0	1	left	2.0	1.0	1.0	0	-0.031458867155	blockFiles/set_4/main_unc/leftBlue\GB_LB_3.xlsx
342	main_unc	True	0.0	849	0	3.0	3.0	1.0	1	right	1.0	1.0	1.0	1	0.040615545325	blockFiles/set_4/main_unc/leftBlue\GB_LB_3.xlsx
343	main_unc	True	0.0	849	0	3.0	3.0	0.0	1	left	2.0	1.0	1.0	0	-0.0304578864761	blockFiles/set_4/main_unc/leftBlue\GB_LB_3.xlsx
344	main_unc	True	0.0	849	0	3.0	3.0	1.0	1	right	1.0	0.0	1.0	1	0.076105809249	blockFiles/set_4/main_unc/leftBlue\GB_LB_3.xlsx
345	main_unc	True	0.0	849	0	3.0	3.0	1.0	0	right	1.0	0.0	0.0	0	-0.006945881824939999	blockFiles/set_4/main_unc/leftBlue\GB_LB_3.xlsx
346	main_unc	True	0.0	849	0	3.0	3.0	0.0	1	left	2.0	0.0	1.0	0	-0.043119216468199995	blockFiles/set_4/main_unc/leftBlue\GB_LB_3.xlsx
347	main_unc	True	0.0	849	0	3.0	3.0	1.0	1	right	1.0	1.0	1.0	1	0.0599452702142	blockFiles/set_4/main_unc/leftBlue\GB_LB_3.xlsx
348	main_unc	True	0.0	849	0	3.0	3.0	0.0	1	left	2.0	1.0	1.0	0	-0.052801591996099996	blockFiles/set_4/main_unc/leftBlue\GB_LB_3.xlsx
349	main_unc	True	0.0	849	0	3.0	3.0	0.0	1	left	2.0	1.0	1.0	0	-0.0550160500221	blockFiles/set_4/main_unc/leftBlue\GB_LB_3.xlsx
350	main_unc	True	0.0	849	0	3.0	3.0	1.0	1	right	1.0	0.0	1.0	1	0.069380699601	blockFiles/set_4/main_unc/leftBlue\GB_LB_3.xlsx
351	main_unc	True	0.0	849	0	3.0	3.0	1.0	1	right	1.0	0.0	1.0	1	0.0033315918594599998	blockFiles/set_4/main_unc/leftBlue\GB_LB_3.xlsx
352	main_unc	True	0.0	849	0	3.0	3.0	0.0	1	left	2.0	1.0	1.0	0	-0.0113082010858	blockFiles/set_4/main_unc/leftBlue\GB_LB_3.xlsx
353	main_unc	True	0.0	849	0	4.0	4.0	0.0	1	left	1.0	1.0	1.0	0	-0.0477686288767	blockFiles/set_4/main_unc/rightBlue\GB_RB_4.xlsx
354	main_unc	True	0.0	849	0	4.0	4.0	1.0	1	right	2.0	1.0	1.0	1	0.0610903812945	blockFiles/set_4/main_unc/rightBlue\GB_RB_4.xlsx
355	main_unc	True	0.0	849	0	4.0	4.0	0.0	1	left	1.0	1.0	1.0	0	-0.023500698376400002	blockFiles/set_4/main_unc/rightBlue\GB_RB_4.xlsx
356	main_unc	True	0.0	849	0	4.0	4.0	1.0	1	right	2.0	1.0	1.0	1	0.0792654644325	blockFiles/set_4/main_unc/rightBlue\GB_RB_4.xlsx
357	main_unc	True	0.0	849	0	4.0	4.0	0.0	1	left	1.0	0.0	1.0	0	-0.046184777580199995	blockFiles/set_4/main_unc/rightBlue\GB_RB_4.xlsx
358	main_unc	True	0.0	849	0	4.0	4.0	1.0	1	right	2.0	0.0	1.0	1	0.010897545144	blockFiles/set_4/main_unc/rightBlue\GB_RB_4.xlsx
359	main_unc	True	0.0	849	0	4.0	4.0	1.0	1	right	2.0	1.0	1.0	1	0.0668938060477	blockFiles/set_4/main_unc/rightBlue\GB_RB_4.xlsx
360	main_unc	True	0.0	849	0	4.0	4.0	0.0	1	left	1.0	1.0	1.0	0	-0.0341858022474	blockFiles/set_4/main_unc/rightBlue\GB_RB_4.xlsx
361	main_unc	True	0.0	849	0	4.0	4.0	1.0	1	right	2.0	1.0	1.0	1	0.0402171323262	blockFiles/set_4/main_unc/rightBlue\GB_RB_4.xlsx
362	main_unc	True	0.0	849	0	4.0	4.0	1.0	1	right	2.0	1.0	1.0	1	0.0699067709595	blockFiles/set_4/main_unc/rightBlue\GB_RB_4.xlsx
363	main_unc	True	0.0	849	0	4.0	4.0	1.0	1	right	2.0	0.0	1.0	1	0.0421187119745	blockFiles/set_4/main_unc/rightBlue\GB_RB_4.xlsx
364	main_unc	True	0.0	849	0	4.0	4.0	0.0	1	left	1.0	1.0	1.0	0	-0.016357049495	blockFiles/set_4/main_unc/rightBlue\GB_RB_4.xlsx
365	main_unc	True	0.0	849	0	4.0	4.0	1.0	1	right	2.0	0.0	1.0	1	0.0039217047765900005	blockFiles/set_4/main_unc/rightBlue\GB_RB_4.xlsx
366	main_unc	True	0.0	849	0	4.0	4.0	0.0	1	left	1.0	1.0	1.0	0	-0.05059192495419999	blockFiles/set_4/main_unc/rightBlue\GB_RB_4.xlsx
367	main_unc	True	0.0	849	0	4.0	4.0	1.0	1	right	2.0	1.0	1.0	1	0.05268927024680001	blockFiles/set_4/main_unc/rightBlue\GB_RB_4.xlsx
368	main_unc	True	0.0	849	0	4.0	4.0	1.0	0	right	2.0	0.0	0.0	0	-0.00209333615378	blockFiles/set_4/main_unc/rightBlue\GB_RB_4.xlsx
369	main_unc	True	0.0	849	0	4.0	4.0	0.0	1	left	1.0	0.0	1.0	0	-0.0719259127788	blockFiles/set_4/main_unc/rightBlue\GB_RB_4.xlsx
370	main_unc	True	0.0	849	0	4.0	4.0	1.0	1	right	2.0	1.0	1.0	1	0.038135000448699996	blockFiles/set_4/main_unc/rightBlue\GB_RB_4.xlsx
371	main_unc	True	0.0	849	0	4.0	4.0	0.0	1	left	1.0	1.0	1.0	0	-0.0706393203698	blockFiles/set_4/main_unc/rightBlue\GB_RB_4.xlsx
372	main_unc	True	0.0	849	0	4.0	4.0	1.0	1	right	2.0	1.0	1.0	1	0.0191867748648	blockFiles/set_4/main_unc/rightBlue\GB_RB_4.xlsx
373	main_unc	True	0.0	849	0	4.0	4.0	0.0	1	left	1.0	1.0	1.0	0	-0.049244397562	blockFiles/set_4/main_unc/rightBlue\GB_RB_4.xlsx
374	main_unc	True	0.0	849	0	4.0	4.0	1.0	1	right	2.0	1.0	1.0	1	0.0726036733575	blockFiles/set_4/main_unc/rightBlue\GB_RB_4.xlsx
375	main_unc	True	0.0	849	0	4.0	4.0	0.0	1	left	1.0	1.0	1.0	0	-0.0208347368427	blockFiles/set_4/main_unc/rightBlue\GB_RB_4.xlsx
376	main_unc	True	0.0	849	0	4.0	4.0	1.0	1	right	2.0	1.0	1.0	1	0.0022054821811599997	blockFiles/set_4/main_unc/rightBlue\GB_RB_4.xlsx
377	main_unc	True	0.0	849	0	4.0	4.0	0.0	1	left	1.0	0.0	1.0	0	-0.0371185344085	blockFiles/set_4/main_unc/rightBlue\GB_RB_4.xlsx
378	main_unc	True	0.0	849	0	5.0	5.0	0.0	1	left	1.0	0.0	0.0	0	-0.0651454286277	blockFiles/set_4/main_unc/leftBlue\GB_LB_4.xlsx
379	main_unc	True	0.0	849	0	5.0	5.0	0.0	1	left	2.0	0.0	1.0	0	-0.0305420622043	blockFiles/set_4/main_unc/leftBlue\GB_LB_4.xlsx
380	main_unc	True	0.0	849	0	5.0	5.0	1.0	1	right	2.0	0.0	0.0	1	0.0376537361369	blockFiles/set_4/main_unc/leftBlue\GB_LB_4.xlsx
381	main_unc	True	0.0	849	0	5.0	5.0	0.0	1	left	2.0	0.0	1.0	0	-0.0633183817193	blockFiles/set_4/main_unc/leftBlue\GB_LB_4.xlsx
382	main_unc	True	0.0	849	0	5.0	5.0	0.0	1	left	1.0	0.0	0.0	0	-0.0353932444565	blockFiles/set_4/main_unc/leftBlue\GB_LB_4.xlsx
383	main_unc	True	0.0	849	0	5.0	5.0	1.0	1	right	2.0	0.0	0.0	1	0.045012378655400004	blockFiles/set_4/main_unc/leftBlue\GB_LB_4.xlsx
384	main_unc	True	0.0	849	0	5.0	5.0	0.0	1	left	2.0	0.0	1.0	0	-0.0487501453422	blockFiles/set_4/main_unc/leftBlue\GB_LB_4.xlsx
385	main_unc	True	0.0	849	0	5.0	5.0	0.0	1	left	2.0	1.0	1.0	0	-0.0354350013658	blockFiles/set_4/main_unc/leftBlue\GB_LB_4.xlsx
386	main_unc	True	0.0	849	0	5.0	5.0	1.0	1	right	1.0	1.0	1.0	1	0.054813729580499994	blockFiles/set_4/main_unc/leftBlue\GB_LB_4.xlsx
387	main_unc	True	0.0	849	0	5.0	5.0	1.0	1	right	1.0	1.0	1.0	1	0.040870714373900004	blockFiles/set_4/main_unc/leftBlue\GB_LB_4.xlsx
388	main_unc	True	0.0	849	0	5.0	5.0	0.0	1	left	2.0	0.0	1.0	0	-0.0644521899708	blockFiles/set_4/main_unc/leftBlue\GB_LB_4.xlsx
389	main_unc	True	0.0	849	0	5.0	5.0	1.0	1	right	1.0	0.0	1.0	1	0.0140775398351	blockFiles/set_4/main_unc/leftBlue\GB_LB_4.xlsx
390	main_unc	True	0.0	849	0	5.0	5.0	0.0	0	left	1.0	1.0	1.0	1	0.0013428637199100002	blockFiles/set_4/main_unc/leftBlue\GB_LB_4.xlsx
391	main_unc	True	0.0	849	0	5.0	5.0	0.0	1	left	1.0	0.0	0.0	0	-0.0732945779711	blockFiles/set_4/main_unc/leftBlue\GB_LB_4.xlsx
392	main_unc	True	0.0	849	0	5.0	5.0	1.0	1	right	2.0	0.0	0.0	1	0.028351332675700003	blockFiles/set_4/main_unc/leftBlue\GB_LB_4.xlsx
393	main_unc	True	0.0	849	0	5.0	5.0	1.0	1	right	2.0	1.0	0.0	1	0.031633903440099996	blockFiles/set_4/main_unc/leftBlue\GB_LB_4.xlsx
394	main_unc	True	0.0	849	0	5.0	5.0	0.0	1	left	1.0	0.0	0.0	0	-0.018242205902900002	blockFiles/set_4/main_unc/leftBlue\GB_LB_4.xlsx
395	main_unc	True	0.0	849	0	5.0	5.0	0.0	1	left	1.0	0.0	0.0	0	-0.0304905759729	blockFiles/set_4/main_unc/leftBlue\GB_LB_4.xlsx
396	main_unc	True	0.0	849	0	5.0	5.0	1.0	1	right	1.0	1.0	1.0	1	0.0683061525226	blockFiles/set_4/main_unc/leftBlue\GB_LB_4.xlsx
397	main_unc	True	0.0	849	0	5.0	5.0	1.0	1	right	1.0	1.0	1.0	1	0.0225722676516	blockFiles/set_4/main_unc/leftBlue\GB_LB_4.xlsx
398	main_unc	True	0.0	849	0	5.0	5.0	1.0	1	right	1.0	1.0	1.0	1	0.0251991160586	blockFiles/set_4/main_unc/leftBlue\GB_LB_4.xlsx
399	main_unc	True	0.0	849	0	5.0	5.0	0.0	1	left	1.0	0.0	0.0	0	-0.0314168068022	blockFiles/set_4/main_unc/leftBlue\GB_LB_4.xlsx
400	main_unc	True	0.0	849	0	5.0	5.0	0.0	1	left	2.0	1.0	1.0	0	-0.0328054319508	blockFiles/set_4/main_unc/leftBlue\GB_LB_4.xlsx
401	main_unc	True	0.0	849	0	5.0	5.0	0.0	1	left	2.0	1.0	1.0	0	-0.0657922906242	blockFiles/set_4/main_unc/leftBlue\GB_LB_4.xlsx
402	main_unc	True	0.0	849	0	5.0	5.0	1.0	1	right	1.0	1.0	1.0	1	0.06680543458089999	blockFiles/set_4/main_unc/leftBlue\GB_LB_4.xlsx
403	main_unc	True	0.0	849	0	6.0	6.0	1.0	1	right	2.0	1.0	1.0	1	0.022864889372099996	blockFiles/set_4/main_unc/rightBlue\GB_RB_3.xlsx
404	main_unc	True	0.0	849	0	6.0	6.0	0.0	1	left	1.0	1.0	1.0	0	-0.049580680951500006	blockFiles/set_4/main_unc/rightBlue\GB_RB_3.xlsx
405	main_unc	True	0.0	849	0	6.0	6.0	0.0	1	left	1.0	0.0	1.0	0	-0.0355338697508	blockFiles/set_4/main_unc/rightBlue\GB_RB_3.xlsx
406	main_unc	True	0.0	849	0	6.0	6.0	1.0	1	right	2.0	1.0	1.0	1	0.053804163951399996	blockFiles/set_4/main_unc/rightBlue\GB_RB_3.xlsx
407	main_unc	True	0.0	849	0	6.0	6.0	1.0	1	right	2.0	1.0	1.0	1	0.0637611133233	blockFiles/set_4/main_unc/rightBlue\GB_RB_3.xlsx
408	main_unc	True	0.0	849	0	6.0	6.0	1.0	1	right	2.0	1.0	1.0	1	0.028419936504199998	blockFiles/set_4/main_unc/rightBlue\GB_RB_3.xlsx
409	main_unc	True	0.0	849	0	6.0	6.0	0.0	1	left	1.0	1.0	1.0	0	-0.054241209644800004	blockFiles/set_4/main_unc/rightBlue\GB_RB_3.xlsx
410	main_unc	True	0.0	849	0	6.0	6.0	1.0	1	right	2.0	1.0	1.0	1	0.006274666078390001	blockFiles/set_4/main_unc/rightBlue\GB_RB_3.xlsx
411	main_unc	True	0.0	849	0	6.0	6.0	0.0	0	left	1.0	0.0	0.0	1	0.006705736629660001	blockFiles/set_4/main_unc/rightBlue\GB_RB_3.xlsx
412	main_unc	True	0.0	849	0	6.0	6.0	1.0	1	right	2.0	1.0	1.0	1	0.07745496537539999	blockFiles/set_4/main_unc/rightBlue\GB_RB_3.xlsx
413	main_unc	True	0.0	849	0	6.0	6.0	1.0	1	right	2.0	0.0	1.0	1	0.011771240197100002	blockFiles/set_4/main_unc/rightBlue\GB_RB_3.xlsx
414	main_unc	True	0.0	849	0	6.0	6.0	0.0	1	left	1.0	1.0	1.0	0	-0.0641085983254	blockFiles/set_4/main_unc/rightBlue\GB_RB_3.xlsx
415	main_unc	True	0.0	849	0	6.0	6.0	0.0	1	left	1.0	1.0	1.0	0	-0.0571131312847	blockFiles/set_4/main_unc/rightBlue\GB_RB_3.xlsx
416	main_unc	True	0.0	849	0	6.0	6.0	0.0	1	left	1.0	0.0	1.0	0	-0.07390402706339999	blockFiles/set_4/main_unc/rightBlue\GB_RB_3.xlsx
417	main_unc	True	0.0	849	0	6.0	6.0	1.0	1	right	2.0	1.0	1.0	1	0.0441236648336	blockFiles/set_4/main_unc/rightBlue\GB_RB_3.xlsx
418	main_unc	True	0.0	849	0	6.0	6.0	0.0	1	left	1.0	1.0	1.0	0	-0.0029930795170400003	blockFiles/set_4/main_unc/rightBlue\GB_RB_3.xlsx
419	main_unc	True	0.0	849	0	6.0	6.0	0.0	1	left	1.0	1.0	1.0	0	-0.0377680697851	blockFiles/set_4/main_unc/rightBlue\GB_RB_3.xlsx
420	main_unc	True	0.0	849	0	6.0	6.0	0.0	1	left	1.0	1.0	1.0	0	-0.06670064100999999	blockFiles/set_4/main_unc/rightBlue\GB_RB_3.xlsx
421	main_unc	True	0.0	849	0	6.0	6.0	1.0	1	right	2.0	1.0	1.0	1	0.005350104868410001	blockFiles/set_4/main_unc/rightBlue\GB_RB_3.xlsx
422	main_unc	True	0.0	849	0	6.0	6.0	0.0	1	left	1.0	0.0	1.0	0	-0.008090287819499999	blockFiles/set_4/main_unc/rightBlue\GB_RB_3.xlsx
423	main_unc	True	0.0	849	0	6.0	6.0	1.0	1	right	2.0	1.0	1.0	1	0.0608300051093	blockFiles/set_4/main_unc/rightBlue\GB_RB_3.xlsx
424	main_unc	True	0.0	849	0	6.0	6.0	0.0	1	left	1.0	1.0	1.0	0	-0.05075679194180001	blockFiles/set_4/main_unc/rightBlue\GB_RB_3.xlsx
425	main_unc	True	0.0	849	0	6.0	6.0	1.0	1	right	2.0	1.0	1.0	1	0.0586867960915	blockFiles/set_4/main_unc/rightBlue\GB_RB_3.xlsx
426	main_unc	True	0.0	849	0	6.0	6.0	0.0	0	left	1.0	0.0	0.0	1	0.014082810021899999	blockFiles/set_4/main_unc/rightBlue\GB_RB_3.xlsx
427	main_unc	True	0.0	849	0	6.0	6.0	0.0	1	left	1.0	1.0	1.0	0	-0.04656625006350001	blockFiles/set_4/main_unc/rightBlue\GB_RB_3.xlsx
428	main_unc	True	0.0	849	0	7.0	7.0	0.0	1	left	1.0	1.0	1.0	0	-0.0604491027817	blockFiles/set_4/main_unc/rightBlue\GB_RB_6.xlsx
429	main_unc	True	0.0	849	0	7.0	7.0	0.0	1	left	1.0	0.0	1.0	0	-0.078792481143	blockFiles/set_4/main_unc/rightBlue\GB_RB_6.xlsx
430	main_unc	True	0.0	849	0	7.0	7.0	0.0	1	left	1.0	0.0	1.0	0	-0.020955069512099998	blockFiles/set_4/main_unc/rightBlue\GB_RB_6.xlsx
431	main_unc	True	0.0	849	0	7.0	7.0	1.0	1	right	2.0	1.0	1.0	1	0.044466755688199994	blockFiles/set_4/main_unc/rightBlue\GB_RB_6.xlsx
432	main_unc	True	0.0	849	0	7.0	7.0	0.0	1	left	1.0	1.0	1.0	0	-0.020254321470900002	blockFiles/set_4/main_unc/rightBlue\GB_RB_6.xlsx
433	main_unc	True	0.0	849	0	7.0	7.0	1.0	1	right	2.0	0.0	1.0	1	0.0338940015994	blockFiles/set_4/main_unc/rightBlue\GB_RB_6.xlsx
434	main_unc	True	0.0	849	0	7.0	7.0	0.0	1	left	1.0	1.0	1.0	0	-0.054096558634199994	blockFiles/set_4/main_unc/rightBlue\GB_RB_6.xlsx
435	main_unc	True	0.0	849	0	7.0	7.0	0.0	1	left	1.0	1.0	1.0	0	-0.0194809015095	blockFiles/set_4/main_unc/rightBlue\GB_RB_6.xlsx
436	main_unc	True	0.0	849	0	7.0	7.0	1.0	1	right	2.0	1.0	1.0	1	0.0790072744898	blockFiles/set_4/main_unc/rightBlue\GB_RB_6.xlsx
437	main_unc	True	0.0	849	0	7.0	7.0	0.0	1	left	1.0	0.0	1.0	0	-0.0456794412434	blockFiles/set_4/main_unc/rightBlue\GB_RB_6.xlsx
438	main_unc	True	0.0	849	0	7.0	7.0	0.0	1	left	1.0	1.0	1.0	0	-0.0456944392249	blockFiles/set_4/main_unc/rightBlue\GB_RB_6.xlsx
439	main_unc	True	0.0	849	0	7.0	7.0	1.0	1	right	2.0	1.0	1.0	1	0.048947767578099995	blockFiles/set_4/main_unc/rightBlue\GB_RB_6.xlsx
440	main_unc	True	0.0	849	0	7.0	7.0	1.0	1	right	2.0	1.0	1.0	1	0.0194698954746	blockFiles/set_4/main_unc/rightBlue\GB_RB_6.xlsx
441	main_unc	True	0.0	849	0	7.0	7.0	0.0	1	left	1.0	1.0	1.0	0	-0.0306025930308	blockFiles/set_4/main_unc/rightBlue\GB_RB_6.xlsx
442	main_unc	True	0.0	849	0	7.0	7.0	1.0	1	right	2.0	1.0	1.0	1	0.07165776807810001	blockFiles/set_4/main_unc/rightBlue\GB_RB_6.xlsx
443	main_unc	True	0.0	849	0	7.0	7.0	1.0	1	right	2.0	1.0	1.0	1	0.05551189653580001	blockFiles/set_4/main_unc/rightBlue\GB_RB_6.xlsx
444	main_unc	True	0.0	849	0	7.0	7.0	1.0	0	right	2.0	0.0	0.0	0	-0.0008289502933619999	blockFiles/set_4/main_unc/rightBlue\GB_RB_6.xlsx
445	main_unc	True	0.0	849	0	7.0	7.0	1.0	1	right	2.0	1.0	1.0	1	0.023314229659700002	blockFiles/set_4/main_unc/rightBlue\GB_RB_6.xlsx
446	main_unc	True	0.0	849	0	7.0	7.0	1.0	0	right	2.0	0.0	0.0	0	-0.017816298156999998	blockFiles/set_4/main_unc/rightBlue\GB_RB_6.xlsx
447	main_unc	True	0.0	849	0	7.0	7.0	1.0	1	right	2.0	1.0	1.0	1	0.0305874891207	blockFiles/set_4/main_unc/rightBlue\GB_RB_6.xlsx
448	main_unc	True	0.0	849	0	7.0	7.0	1.0	0	right	2.0	0.0	0.0	0	-0.050591291748	blockFiles/set_4/main_unc/rightBlue\GB_RB_6.xlsx
449	main_unc	True	0.0	849	0	7.0	7.0	0.0	1	left	1.0	0.0	1.0	0	-0.056460696384300006	blockFiles/set_4/main_unc/rightBlue\GB_RB_6.xlsx
450	main_unc	True	0.0	849	0	7.0	7.0	1.0	1	right	2.0	1.0	1.0	1	0.06324106223880001	blockFiles/set_4/main_unc/rightBlue\GB_RB_6.xlsx
451	main_unc	True	0.0	849	0	7.0	7.0	1.0	1	right	2.0	1.0	1.0	1	0.028660790752599998	blockFiles/set_4/main_unc/rightBlue\GB_RB_6.xlsx
452	main_unc	True	0.0	849	0	7.0	7.0	1.0	1	right	2.0	1.0	1.0	1	0.014964997135100001	blockFiles/set_4/main_unc/rightBlue\GB_RB_6.xlsx
453	main_unc	True	0.0	849	0	8.0	8.0	0.0	1	left	1.0	0.0	0.0	0	-0.00853591779247	blockFiles/set_4/main_unc/leftBlue\GB_LB_5.xlsx
454	main_unc	True	0.0	849	0	8.0	8.0	0.0	1	left	2.0	1.0	1.0	0	-0.0189448552579	blockFiles/set_4/main_unc/leftBlue\GB_LB_5.xlsx
455	main_unc	True	0.0	849	0	8.0	8.0	0.0	1	left	2.0	1.0	1.0	0	-0.07271676015110001	blockFiles/set_4/main_unc/leftBlue\GB_LB_5.xlsx
456	main_unc	True	0.0	849	0	8.0	8.0	0.0	1	left	2.0	1.0	1.0	0	-0.0707382916287	blockFiles/set_4/main_unc/leftBlue\GB_LB_5.xlsx
457	main_unc	True	0.0	849	0	8.0	8.0	1.0	1	right	1.0	0.0	1.0	1	0.050437668319800004	blockFiles/set_4/main_unc/leftBlue\GB_LB_5.xlsx
458	main_unc	True	0.0	849	0	8.0	8.0	1.0	0	right	1.0	0.0	0.0	0	-0.0135084538907	blockFiles/set_4/main_unc/leftBlue\GB_LB_5.xlsx
459	main_unc	True	0.0	849	0	8.0	8.0	1.0	1	right	1.0	1.0	1.0	1	0.00991534423083	blockFiles/set_4/main_unc/leftBlue\GB_LB_5.xlsx
460	main_unc	True	0.0	849	0	8.0	8.0	1.0	1	right	1.0	1.0	1.0	1	0.0249713839218	blockFiles/set_4/main_unc/leftBlue\GB_LB_5.xlsx
461	main_unc	True	0.0	849	0	8.0	8.0	1.0	1	right	1.0	1.0	1.0	1	0.0678484752774	blockFiles/set_4/main_unc/leftBlue\GB_LB_5.xlsx
462	main_unc	True	0.0	849	0	8.0	8.0	0.0	1	left	2.0	0.0	1.0	0	-0.0555022592656	blockFiles/set_4/main_unc/leftBlue\GB_LB_5.xlsx
463	main_unc	True	0.0	849	0	8.0	8.0	0.0	1	left	1.0	0.0	0.0	0	-0.042797527257400006	blockFiles/set_4/main_unc/leftBlue\GB_LB_5.xlsx
464	main_unc	True	0.0	849	0	8.0	8.0	0.0	1	left	2.0	1.0	1.0	0	-0.0250000940822	blockFiles/set_4/main_unc/leftBlue\GB_LB_5.xlsx
465	main_unc	True	0.0	849	0	8.0	8.0	0.0	1	left	2.0	1.0	1.0	0	-0.024982703421299997	blockFiles/set_4/main_unc/leftBlue\GB_LB_5.xlsx
466	main_unc	True	0.0	849	0	8.0	8.0	1.0	1	right	1.0	1.0	1.0	1	0.058606139458699996	blockFiles/set_4/main_unc/leftBlue\GB_LB_5.xlsx
467	main_unc	True	0.0	849	0	8.0	8.0	1.0	1	right	1.0	1.0	1.0	1	0.029599712379299998	blockFiles/set_4/main_unc/leftBlue\GB_LB_5.xlsx
468	main_unc	True	0.0	849	0	8.0	8.0	0.0	1	left	2.0	0.0	1.0	0	-0.0555650658906	blockFiles/set_4/main_unc/leftBlue\GB_LB_5.xlsx
469	main_unc	True	0.0	849	0	8.0	8.0	0.0	1	left	2.0	1.0	1.0	0	-0.0712704069912	blockFiles/set_4/main_unc/leftBlue\GB_LB_5.xlsx
470	main_unc	True	0.0	849	0	8.0	8.0	1.0	1	right	1.0	1.0	1.0	1	0.0409978799336	blockFiles/set_4/main_unc/leftBlue\GB_LB_5.xlsx
471	main_unc	True	0.0	849	0	8.0	8.0	0.0	0	left	2.0	0.0	0.0	1	0.0239453067631	blockFiles/set_4/main_unc/leftBlue\GB_LB_5.xlsx
472	main_unc	True	0.0	849	0	8.0	8.0	1.0	0	right	1.0	0.0	0.0	0	-0.0019618476741	blockFiles/set_4/main_unc/leftBlue\GB_LB_5.xlsx
473	main_unc	True	0.0	849	0	8.0	8.0	1.0	1	right	2.0	0.0	0.0	1	0.0379692473635	blockFiles/set_4/main_unc/leftBlue\GB_LB_5.xlsx
474	main_unc	True	0.0	849	0	8.0	8.0	1.0	1	right	2.0	0.0	0.0	1	0.0758733716793	blockFiles/set_4/main_unc/leftBlue\GB_LB_5.xlsx
475	main_unc	True	0.0	849	0	8.0	8.0	1.0	1	right	1.0	1.0	1.0	1	0.0419425141066	blockFiles/set_4/main_unc/leftBlue\GB_LB_5.xlsx
476	main_unc	True	0.0	849	0	8.0	8.0	0.0	1	left	2.0	1.0	1.0	0	-0.034731174968199996	blockFiles/set_4/main_unc/leftBlue\GB_LB_5.xlsx
477	main_unc	True	0.0	849	0	8.0	8.0	0.0	1	left	2.0	1.0	1.0	0	-0.0400084413402	blockFiles/set_4/main_unc/leftBlue\GB_LB_5.xlsx
478	main_unc	True	0.0	849	0	9.0	9.0	0.0	1	left	1.0	1.0	0.0	0	-0.0457362515852	blockFiles/set_4/main_unc/leftBlue\GB_LB_1.xlsx
479	main_unc	True	0.0	849	0	9.0	9.0	0.0	1	left	1.0	0.0	0.0	0	-0.06311931451780001	blockFiles/set_4/main_unc/leftBlue\GB_LB_1.xlsx
480	main_unc	True	0.0	849	0	9.0	9.0	0.0	1	left	1.0	0.0	0.0	0	-0.0188975706697	blockFiles/set_4/main_unc/leftBlue\GB_LB_1.xlsx
481	main_unc	True	0.0	849	0	9.0	9.0	1.0	1	right	1.0	1.0	1.0	1	0.060112714935099995	blockFiles/set_4/main_unc/leftBlue\GB_LB_1.xlsx
482	main_unc	True	0.0	849	0	9.0	9.0	1.0	1	right	1.0	1.0	1.0	1	0.0317350149713	blockFiles/set_4/main_unc/leftBlue\GB_LB_1.xlsx
483	main_unc	True	0.0	849	0	9.0	9.0	1.0	1	right	1.0	1.0	1.0	1	0.0729031626694	blockFiles/set_4/main_unc/leftBlue\GB_LB_1.xlsx
484	main_unc	True	0.0	849	0	9.0	9.0	0.0	1	left	2.0	0.0	1.0	0	-0.0718254028261	blockFiles/set_4/main_unc/leftBlue\GB_LB_1.xlsx
485	main_unc	True	0.0	849	0	9.0	9.0	1.0	1	right	1.0	1.0	1.0	1	0.0212555325218	blockFiles/set_4/main_unc/leftBlue\GB_LB_1.xlsx
486	main_unc	True	0.0	849	0	9.0	9.0	0.0	0	left	2.0	0.0	0.0	1	0.029945641104099998	blockFiles/set_4/main_unc/leftBlue\GB_LB_1.xlsx
487	main_unc	True	0.0	849	0	9.0	9.0	1.0	1	right	1.0	1.0	1.0	1	0.0277696003765	blockFiles/set_4/main_unc/leftBlue\GB_LB_1.xlsx
488	main_unc	True	0.0	849	0	9.0	9.0	0.0	1	left	2.0	1.0	1.0	0	-0.0138914497569	blockFiles/set_4/main_unc/leftBlue\GB_LB_1.xlsx
489	main_unc	True	0.0	849	0	9.0	9.0	1.0	1	right	1.0	1.0	1.0	1	0.048966369628900004	blockFiles/set_4/main_unc/leftBlue\GB_LB_1.xlsx
490	main_unc	True	0.0	849	0	9.0	9.0	1.0	1	right	1.0	1.0	1.0	1	0.042840408757300004	blockFiles/set_4/main_unc/leftBlue\GB_LB_1.xlsx
491	main_unc	True	0.0	849	0	9.0	9.0	0.0	1	left	2.0	1.0	1.0	0	-0.0790417256393	blockFiles/set_4/main_unc/leftBlue\GB_LB_1.xlsx
492	main_unc	True	0.0	849	0	9.0	9.0	1.0	1	right	2.0	0.0	0.0	1	0.03481604550030001	blockFiles/set_4/main_unc/leftBlue\GB_LB_1.xlsx
493	main_unc	True	0.0	849	0	9.0	9.0	0.0	1	left	2.0	0.0	1.0	0	-0.0714480034634	blockFiles/set_4/main_unc/leftBlue\GB_LB_1.xlsx
494	main_unc	True	0.0	849	0	9.0	9.0	1.0	1	right	1.0	0.0	1.0	1	0.028051855191599997	blockFiles/set_4/main_unc/leftBlue\GB_LB_1.xlsx
495	main_unc	True	0.0	849	0	9.0	9.0	0.0	1	left	2.0	1.0	1.0	0	-0.061695003882099995	blockFiles/set_4/main_unc/leftBlue\GB_LB_1.xlsx
496	main_unc	True	0.0	849	0	9.0	9.0	1.0	1	right	1.0	1.0	1.0	1	0.011715300120399999	blockFiles/set_4/main_unc/leftBlue\GB_LB_1.xlsx
497	main_unc	True	0.0	849	0	9.0	9.0	0.0	1	left	2.0	0.0	1.0	0	-0.0321778019331	blockFiles/set_4/main_unc/leftBlue\GB_LB_1.xlsx
498	main_unc	True	0.0	849	0	9.0	9.0	1.0	0	right	1.0	0.0	0.0	0	-0.035375187937199994	blockFiles/set_4/main_unc/leftBlue\GB_LB_1.xlsx
499	main_unc	True	0.0	849	0	9.0	9.0	1.0	1	right	1.0	1.0	1.0	1	0.0428646382876	blockFiles/set_4/main_unc/leftBlue\GB_LB_1.xlsx
500	main_unc	True	0.0	849	0	9.0	9.0	0.0	1	left	2.0	1.0	1.0	0	-0.0797997428663	blockFiles/set_4/main_unc/leftBlue\GB_LB_1.xlsx
501	main_unc	True	0.0	849	0	9.0	9.0	0.0	1	left	2.0	0.0	1.0	0	-0.06369234625249999	blockFiles/set_4/main_unc/leftBlue\GB_LB_1.xlsx
502	main_unc	True	0.0	849	0	9.0	9.0	1.0	0	right	1.0	0.0	0.0	0	-0.00389552988112	blockFiles/set_4/main_unc/leftBlue\GB_LB_1.xlsx
503	main_unc	True	0.0	849	0	10.0	10.0	1.0	0	right	2.0	1.0	0.0	0	-0.052953173536800006	blockFiles/set_4/main_unc/rightBlue\GB_RB_2.xlsx
504	main_unc	True	0.0	849	0	10.0	10.0	1.0	1	right	2.0	1.0	1.0	1	0.0527808424085	blockFiles/set_4/main_unc/rightBlue\GB_RB_2.xlsx
505	main_unc	True	0.0	849	0	10.0	10.0	0.0	1	left	1.0	1.0	1.0	0	-0.0172289980389	blockFiles/set_4/main_unc/rightBlue\GB_RB_2.xlsx
506	main_unc	True	0.0	849	0	10.0	10.0	1.0	1	right	2.0	0.0	1.0	1	0.0333863348328	blockFiles/set_4/main_unc/rightBlue\GB_RB_2.xlsx
507	main_unc	True	0.0	849	0	10.0	10.0	1.0	1	right	2.0	0.0	1.0	1	0.0419635982998	blockFiles/set_4/main_unc/rightBlue\GB_RB_2.xlsx
508	main_unc	True	0.0	849	0	10.0	10.0	1.0	1	right	2.0	1.0	1.0	1	0.0506235020794	blockFiles/set_4/main_unc/rightBlue\GB_RB_2.xlsx
509	main_unc	True	0.0	849	0	10.0	10.0	0.0	1	left	1.0	1.0	1.0	0	-0.0745511833392	blockFiles/set_4/main_unc/rightBlue\GB_RB_2.xlsx
510	main_unc	True	0.0	849	0	10.0	10.0	1.0	1	right	2.0	1.0	1.0	1	0.0380878631398	blockFiles/set_4/main_unc/rightBlue\GB_RB_2.xlsx
511	main_unc	True	0.0	849	0	10.0	10.0	1.0	1	right	2.0	1.0	1.0	1	0.0198766828515	blockFiles/set_4/main_unc/rightBlue\GB_RB_2.xlsx
512	main_unc	True	0.0	849	0	10.0	10.0	0.0	1	left	1.0	1.0	1.0	0	-0.0393504992872	blockFiles/set_4/main_unc/rightBlue\GB_RB_2.xlsx
513	main_unc	True	0.0	849	0	10.0	10.0	1.0	1	right	2.0	1.0	1.0	1	0.0526228403486	blockFiles/set_4/main_unc/rightBlue\GB_RB_2.xlsx
514	main_unc	True	0.0	849	0	10.0	10.0	1.0	0	right	2.0	0.0	0.0	0	-0.0007864839769899999	blockFiles/set_4/main_unc/rightBlue\GB_RB_2.xlsx
515	main_unc	True	0.0	849	0	10.0	10.0	1.0	0	right	2.0	0.0	0.0	0	-0.0160854362138	blockFiles/set_4/main_unc/rightBlue\GB_RB_2.xlsx
516	main_unc	True	0.0	849	0	10.0	10.0	0.0	1	left	1.0	1.0	1.0	0	-0.06631084784869999	blockFiles/set_4/main_unc/rightBlue\GB_RB_2.xlsx
517	main_unc	True	0.0	849	0	10.0	10.0	0.0	1	left	1.0	0.0	1.0	0	-0.0790092811361	blockFiles/set_4/main_unc/rightBlue\GB_RB_2.xlsx
518	main_unc	True	0.0	849	0	10.0	10.0	1.0	0	right	2.0	0.0	0.0	0	-0.00142188368365	blockFiles/set_4/main_unc/rightBlue\GB_RB_2.xlsx
519	main_unc	True	0.0	849	0	10.0	10.0	1.0	1	right	2.0	1.0	1.0	1	0.0794517540932	blockFiles/set_4/main_unc/rightBlue\GB_RB_2.xlsx
520	main_unc	True	0.0	849	0	10.0	10.0	1.0	1	right	2.0	1.0	1.0	1	0.06295952353630001	blockFiles/set_4/main_unc/rightBlue\GB_RB_2.xlsx
521	main_unc	True	0.0	849	0	10.0	10.0	1.0	1	right	2.0	1.0	1.0	1	0.0377509633824	blockFiles/set_4/main_unc/rightBlue\GB_RB_2.xlsx
522	main_unc	True	0.0	849	0	10.0	10.0	0.0	1	left	1.0	1.0	1.0	0	-0.012391354590700001	blockFiles/set_4/main_unc/rightBlue\GB_RB_2.xlsx
523	main_unc	True	0.0	849	0	10.0	10.0	0.0	1	left	1.0	1.0	1.0	0	-0.0600848169439	blockFiles/set_4/main_unc/rightBlue\GB_RB_2.xlsx
524	main_unc	True	0.0	849	0	10.0	10.0	0.0	1	left	1.0	1.0	1.0	0	-0.00860300945118	blockFiles/set_4/main_unc/rightBlue\GB_RB_2.xlsx
525	main_unc	True	0.0	849	0	10.0	10.0	1.0	1	right	2.0	1.0	1.0	1	0.0397524394467	blockFiles/set_4/main_unc/rightBlue\GB_RB_2.xlsx
526	main_unc	True	0.0	849	0	10.0	10.0	1.0	1	right	2.0	0.0	1.0	1	0.0798559090309	blockFiles/set_4/main_unc/rightBlue\GB_RB_2.xlsx
527	main_unc	True	0.0	849	0	10.0	10.0	1.0	1	right	2.0	1.0	1.0	1	0.0452103858627	blockFiles/set_4/main_unc/rightBlue\GB_RB_2.xlsx
528	main_unc	True	0.0	849	0	11.0	11.0	1.0	1	right	2.0	1.0	0.0	1	0.06976293716580001	blockFiles/set_4/main_unc/leftBlue\GB_LB_6.xlsx
529	main_unc	True	0.0	849	0	11.0	11.0	1.0	1	right	2.0	0.0	0.0	1	0.020931543856900003	blockFiles/set_4/main_unc/leftBlue\GB_LB_6.xlsx
530	main_unc	True	0.0	849	0	11.0	11.0	0.0	1	left	1.0	0.0	0.0	0	-0.052488467544300005	blockFiles/set_4/main_unc/leftBlue\GB_LB_6.xlsx
531	main_unc	True	0.0	849	0	11.0	11.0	0.0	1	left	2.0	1.0	1.0	0	-0.058548864387	blockFiles/set_4/main_unc/leftBlue\GB_LB_6.xlsx
532	main_unc	True	0.0	849	0	11.0	11.0	0.0	1	left	2.0	1.0	1.0	0	-0.06530467700209999	blockFiles/set_4/main_unc/leftBlue\GB_LB_6.xlsx
533	main_unc	True	0.0	849	0	11.0	11.0	0.0	1	left	2.0	1.0	1.0	0	-0.0501723112352	blockFiles/set_4/main_unc/leftBlue\GB_LB_6.xlsx
534	main_unc	True	0.0	849	0	11.0	11.0	1.0	0	right	1.0	0.0	0.0	0	-0.00920983878896	blockFiles/set_4/main_unc/leftBlue\GB_LB_6.xlsx
535	main_unc	True	0.0	849	0	11.0	11.0	0.0	1	left	2.0	1.0	1.0	0	-0.052064072620099995	blockFiles/set_4/main_unc/leftBlue\GB_LB_6.xlsx
536	main_unc	True	0.0	849	0	11.0	11.0	1.0	1	right	1.0	0.0	1.0	1	0.03592065017669999	blockFiles/set_4/main_unc/leftBlue\GB_LB_6.xlsx
537	main_unc	True	0.0	849	0	11.0	11.0	0.0	1	left	2.0	1.0	1.0	0	-0.0316550013423	blockFiles/set_4/main_unc/leftBlue\GB_LB_6.xlsx
538	main_unc	True	0.0	849	0	11.0	11.0	1.0	1	right	1.0	1.0	1.0	1	0.0543496762589	blockFiles/set_4/main_unc/leftBlue\GB_LB_6.xlsx
539	main_unc	True	0.0	849	0	11.0	11.0	0.0	1	left	2.0	1.0	1.0	0	-0.049647187832699995	blockFiles/set_4/main_unc/leftBlue\GB_LB_6.xlsx
540	main_unc	True	0.0	849	0	11.0	11.0	1.0	1	right	1.0	1.0	1.0	1	0.00870552035049	blockFiles/set_4/main_unc/leftBlue\GB_LB_6.xlsx
541	main_unc	True	0.0	849	0	11.0	11.0	0.0	1	left	2.0	1.0	1.0	0	-0.0558322276734	blockFiles/set_4/main_unc/leftBlue\GB_LB_6.xlsx
542	main_unc	True	0.0	849	0	11.0	11.0	1.0	1	right	1.0	0.0	1.0	1	0.074298864603	blockFiles/set_4/main_unc/leftBlue\GB_LB_6.xlsx
543	main_unc	True	0.0	849	0	11.0	11.0	1.0	0	right	1.0	0.0	0.0	0	-0.00035684457048800003	blockFiles/set_4/main_unc/leftBlue\GB_LB_6.xlsx
544	main_unc	True	0.0	849	0	11.0	11.0	0.0	1	left	2.0	1.0	1.0	0	-0.0047955078817900005	blockFiles/set_4/main_unc/leftBlue\GB_LB_6.xlsx
545	main_unc	True	0.0	849	0	11.0	11.0	1.0	1	right	1.0	1.0	1.0	1	0.07619647648189999	blockFiles/set_4/main_unc/leftBlue\GB_LB_6.xlsx
546	main_unc	True	1.0	849	0	11.0	11.0	1.0	1	right	n/a	0.0	n/a	1	0.0561159924418	blockFiles/set_4/main_unc/leftBlue\GB_LB_6.xlsx
547	main_unc	True	0.0	849	0	11.0	11.0	1.0	1	right	1.0	0.0	1.0	1	0.0166100162826	blockFiles/set_4/main_unc/leftBlue\GB_LB_6.xlsx
548	main_unc	True	0.0	849	0	11.0	11.0	1.0	1	right	1.0	0.0	1.0	1	0.0357304164954	blockFiles/set_4/main_unc/leftBlue\GB_LB_6.xlsx
549	main_unc	True	0.0	849	0	11.0	11.0	0.0	1	left	2.0	1.0	1.0	0	-0.0700958766602	blockFiles/set_4/main_unc/leftBlue\GB_LB_6.xlsx
550	main_unc	True	0.0	849	0	11.0	11.0	0.0	1	left	2.0	1.0	1.0	0	-0.058691350482400005	blockFiles/set_4/main_unc/leftBlue\GB_LB_6.xlsx
551	main_unc	True	0.0	849	0	11.0	11.0	0.0	1	left	2.0	1.0	1.0	0	-0.019778967239000002	blockFiles/set_4/main_unc/leftBlue\GB_LB_6.xlsx
552	main_unc	True	0.0	849	0	11.0	11.0	1.0	1	right	1.0	1.0	1.0	1	0.06390240944919999	blockFiles/set_4/main_unc/leftBlue\GB_LB_6.xlsx
553	main_unc	True	0.0	849	0	11.0	11.0	1.0	1	right	1.0	1.0	1.0	1	0.0561159924418	blockFiles/set_4/main_unc/leftBlue\GB_LB_6.xlsx
