	trial_type	complete	missIndex	participant	id	blockNumber	b_t	d_t	decision1.corr	decision1.keys	a_t	r_t	decision2.corr	s_t	u_t	block_file
0	main_safe	True	0.0	788	0	0.0	0.0	1.0	1	right	1.0	1.0	1.0	1	0.08	blockFiles/set_31/main_safe/leftBlue\GB_LB_1.xlsx
1	main_safe	True	0.0	788	0	0.0	0.0	0.0	1	left	2.0	1.0	1.0	0	-0.08	blockFiles/set_31/main_safe/leftBlue\GB_LB_1.xlsx
2	main_safe	True	0.0	788	0	0.0	0.0	0.0	1	left	2.0	1.0	1.0	0	-0.08	blockFiles/set_31/main_safe/leftBlue\GB_LB_1.xlsx
3	main_safe	True	0.0	788	0	0.0	0.0	0.0	1	left	2.0	1.0	1.0	0	-0.08	blockFiles/set_31/main_safe/leftBlue\GB_LB_1.xlsx
4	main_safe	True	0.0	788	0	0.0	0.0	1.0	1	right	1.0	1.0	1.0	1	0.08	blockFiles/set_31/main_safe/leftBlue\GB_LB_1.xlsx
5	main_safe	True	0.0	788	0	0.0	0.0	1.0	1	right	1.0	1.0	1.0	1	0.08	blockFiles/set_31/main_safe/leftBlue\GB_LB_1.xlsx
6	main_safe	True	0.0	788	0	0.0	0.0	1.0	1	right	1.0	0.0	1.0	1	0.08	blockFiles/set_31/main_safe/leftBlue\GB_LB_1.xlsx
7	main_safe	True	0.0	788	0	0.0	0.0	0.0	1	left	2.0	1.0	1.0	0	-0.08	blockFiles/set_31/main_safe/leftBlue\GB_LB_1.xlsx
8	main_safe	True	0.0	788	0	0.0	0.0	0.0	1	left	2.0	1.0	1.0	0	-0.08	blockFiles/set_31/main_safe/leftBlue\GB_LB_1.xlsx
9	main_safe	True	0.0	788	0	0.0	0.0	1.0	1	right	1.0	1.0	1.0	1	0.08	blockFiles/set_31/main_safe/leftBlue\GB_LB_1.xlsx
10	main_safe	True	0.0	788	0	0.0	0.0	0.0	1	left	2.0	1.0	1.0	0	-0.08	blockFiles/set_31/main_safe/leftBlue\GB_LB_1.xlsx
11	main_safe	True	0.0	788	0	0.0	0.0	0.0	1	left	2.0	0.0	1.0	0	-0.08	blockFiles/set_31/main_safe/leftBlue\GB_LB_1.xlsx
12	main_safe	True	0.0	788	0	0.0	0.0	0.0	1	left	1.0	0.0	0.0	0	-0.08	blockFiles/set_31/main_safe/leftBlue\GB_LB_1.xlsx
13	main_safe	True	0.0	788	0	0.0	0.0	1.0	1	right	1.0	1.0	1.0	1	0.08	blockFiles/set_31/main_safe/leftBlue\GB_LB_1.xlsx
14	main_safe	True	0.0	788	0	0.0	0.0	1.0	1	right	1.0	1.0	1.0	1	0.08	blockFiles/set_31/main_safe/leftBlue\GB_LB_1.xlsx
15	main_safe	True	0.0	788	0	0.0	0.0	1.0	1	right	1.0	1.0	1.0	1	0.08	blockFiles/set_31/main_safe/leftBlue\GB_LB_1.xlsx
16	main_safe	True	1.0	788	0	0.0	0.0	0.0	1	left	n/a	0.0	n/a	0	-0.08	blockFiles/set_31/main_safe/leftBlue\GB_LB_1.xlsx
17	main_safe	True	0.0	788	0	0.0	0.0	0.0	1	left	2.0	1.0	1.0	0	-0.08	blockFiles/set_31/main_safe/leftBlue\GB_LB_1.xlsx
18	main_safe	True	0.0	788	0	0.0	0.0	0.0	1	left	2.0	1.0	1.0	0	-0.08	blockFiles/set_31/main_safe/leftBlue\GB_LB_1.xlsx
19	main_safe	True	0.0	788	0	0.0	0.0	0.0	1	left	2.0	1.0	1.0	0	-0.08	blockFiles/set_31/main_safe/leftBlue\GB_LB_1.xlsx
20	main_safe	True	0.0	788	0	0.0	0.0	1.0	1	right	1.0	1.0	1.0	1	0.08	blockFiles/set_31/main_safe/leftBlue\GB_LB_1.xlsx
21	main_safe	True	0.0	788	0	0.0	0.0	0.0	1	left	2.0	0.0	1.0	0	-0.08	blockFiles/set_31/main_safe/leftBlue\GB_LB_1.xlsx
22	main_safe	True	0.0	788	0	0.0	0.0	1.0	1	right	1.0	1.0	1.0	1	0.08	blockFiles/set_31/main_safe/leftBlue\GB_LB_1.xlsx
23	main_safe	True	0.0	788	0	0.0	0.0	0.0	1	left	2.0	0.0	1.0	0	-0.08	blockFiles/set_31/main_safe/leftBlue\GB_LB_1.xlsx
24	main_safe	True	0.0	788	0	0.0	0.0	1.0	1	right	1.0	1.0	1.0	1	0.08	blockFiles/set_31/main_safe/leftBlue\GB_LB_1.xlsx
25	main_safe	True	0.0	788	0	0.0	0.0	0.0	1	left	2.0	0.0	1.0	0	-0.08	blockFiles/set_31/main_safe/leftBlue\GB_LB_1.xlsx
26	main_safe	True	0.0	788	0	1.0	1.0	0.0	1	left	2.0	1.0	0.0	0	-0.08	blockFiles/set_31/main_safe/rightBlue\GB_RB_3.xlsx
27	main_safe	True	0.0	788	0	1.0	1.0	1.0	1	right	1.0	0.0	0.0	1	0.08	blockFiles/set_31/main_safe/rightBlue\GB_RB_3.xlsx
28	main_safe	True	0.0	788	0	1.0	1.0	0.0	1	left	2.0	0.0	0.0	0	-0.08	blockFiles/set_31/main_safe/rightBlue\GB_RB_3.xlsx
29	main_safe	True	0.0	788	0	1.0	1.0	1.0	1	right	2.0	1.0	1.0	1	0.08	blockFiles/set_31/main_safe/rightBlue\GB_RB_3.xlsx
30	main_safe	True	0.0	788	0	1.0	1.0	1.0	1	right	2.0	1.0	1.0	1	0.08	blockFiles/set_31/main_safe/rightBlue\GB_RB_3.xlsx
31	main_safe	True	0.0	788	0	1.0	1.0	1.0	1	right	2.0	1.0	1.0	1	0.08	blockFiles/set_31/main_safe/rightBlue\GB_RB_3.xlsx
32	main_safe	True	0.0	788	0	1.0	1.0	0.0	1	left	1.0	1.0	1.0	0	-0.08	blockFiles/set_31/main_safe/rightBlue\GB_RB_3.xlsx
33	main_safe	True	0.0	788	0	1.0	1.0	1.0	1	right	2.0	1.0	1.0	1	0.08	blockFiles/set_31/main_safe/rightBlue\GB_RB_3.xlsx
34	main_safe	True	0.0	788	0	1.0	1.0	0.0	1	left	1.0	1.0	1.0	0	-0.08	blockFiles/set_31/main_safe/rightBlue\GB_RB_3.xlsx
35	main_safe	True	0.0	788	0	1.0	1.0	0.0	1	left	1.0	1.0	1.0	0	-0.08	blockFiles/set_31/main_safe/rightBlue\GB_RB_3.xlsx
36	main_safe	True	0.0	788	0	1.0	1.0	1.0	1	right	2.0	1.0	1.0	1	0.08	blockFiles/set_31/main_safe/rightBlue\GB_RB_3.xlsx
37	main_safe	True	0.0	788	0	1.0	1.0	0.0	1	left	1.0	1.0	1.0	0	-0.08	blockFiles/set_31/main_safe/rightBlue\GB_RB_3.xlsx
38	main_safe	True	0.0	788	0	1.0	1.0	0.0	1	left	1.0	0.0	1.0	0	-0.08	blockFiles/set_31/main_safe/rightBlue\GB_RB_3.xlsx
39	main_safe	True	0.0	788	0	1.0	1.0	1.0	1	right	1.0	0.0	0.0	1	0.08	blockFiles/set_31/main_safe/rightBlue\GB_RB_3.xlsx
40	main_safe	True	0.0	788	0	1.0	1.0	1.0	1	right	2.0	1.0	1.0	1	0.08	blockFiles/set_31/main_safe/rightBlue\GB_RB_3.xlsx
41	main_safe	True	0.0	788	0	1.0	1.0	0.0	1	left	2.0	0.0	0.0	0	-0.08	blockFiles/set_31/main_safe/rightBlue\GB_RB_3.xlsx
42	main_safe	True	0.0	788	0	1.0	1.0	1.0	1	right	2.0	1.0	1.0	1	0.08	blockFiles/set_31/main_safe/rightBlue\GB_RB_3.xlsx
43	main_safe	True	0.0	788	0	1.0	1.0	1.0	1	right	2.0	1.0	1.0	1	0.08	blockFiles/set_31/main_safe/rightBlue\GB_RB_3.xlsx
44	main_safe	True	0.0	788	0	1.0	1.0	0.0	1	left	1.0	1.0	1.0	0	-0.08	blockFiles/set_31/main_safe/rightBlue\GB_RB_3.xlsx
45	main_safe	True	0.0	788	0	1.0	1.0	0.0	1	left	2.0	0.0	0.0	0	-0.08	blockFiles/set_31/main_safe/rightBlue\GB_RB_3.xlsx
46	main_safe	True	0.0	788	0	1.0	1.0	0.0	1	left	1.0	0.0	1.0	0	-0.08	blockFiles/set_31/main_safe/rightBlue\GB_RB_3.xlsx
47	main_safe	True	0.0	788	0	1.0	1.0	1.0	1	right	2.0	1.0	1.0	1	0.08	blockFiles/set_31/main_safe/rightBlue\GB_RB_3.xlsx
48	main_safe	True	0.0	788	0	1.0	1.0	1.0	1	right	2.0	1.0	1.0	1	0.08	blockFiles/set_31/main_safe/rightBlue\GB_RB_3.xlsx
49	main_safe	True	0.0	788	0	1.0	1.0	1.0	0	right	1.0	1.0	1.0	0	-0.08	blockFiles/set_31/main_safe/rightBlue\GB_RB_3.xlsx
50	main_safe	True	0.0	788	0	1.0	1.0	1.0	1	right	2.0	1.0	1.0	1	0.08	blockFiles/set_31/main_safe/rightBlue\GB_RB_3.xlsx
51	main_safe	True	0.0	788	0	2.0	2.0	0.0	1	left	2.0	1.0	1.0	0	-0.08	blockFiles/set_31/main_safe/leftBlue\GB_LB_2.xlsx
52	main_safe	True	0.0	788	0	2.0	2.0	0.0	1	left	2.0	1.0	1.0	0	-0.08	blockFiles/set_31/main_safe/leftBlue\GB_LB_2.xlsx
53	main_safe	True	0.0	788	0	2.0	2.0	1.0	1	right	1.0	0.0	1.0	1	0.08	blockFiles/set_31/main_safe/leftBlue\GB_LB_2.xlsx
54	main_safe	True	0.0	788	0	2.0	2.0	0.0	1	left	2.0	1.0	1.0	0	-0.08	blockFiles/set_31/main_safe/leftBlue\GB_LB_2.xlsx
55	main_safe	True	0.0	788	0	2.0	2.0	1.0	1	right	1.0	1.0	1.0	1	0.08	blockFiles/set_31/main_safe/leftBlue\GB_LB_2.xlsx
56	main_safe	True	0.0	788	0	2.0	2.0	0.0	1	left	2.0	1.0	1.0	0	-0.08	blockFiles/set_31/main_safe/leftBlue\GB_LB_2.xlsx
57	main_safe	True	0.0	788	0	2.0	2.0	0.0	1	left	2.0	1.0	1.0	0	-0.08	blockFiles/set_31/main_safe/leftBlue\GB_LB_2.xlsx
58	main_safe	True	0.0	788	0	2.0	2.0	1.0	1	right	1.0	0.0	1.0	1	0.08	blockFiles/set_31/main_safe/leftBlue\GB_LB_2.xlsx
59	main_safe	True	0.0	788	0	2.0	2.0	0.0	1	left	2.0	1.0	1.0	0	-0.08	blockFiles/set_31/main_safe/leftBlue\GB_LB_2.xlsx
60	main_safe	True	0.0	788	0	2.0	2.0	0.0	1	left	1.0	0.0	0.0	0	-0.08	blockFiles/set_31/main_safe/leftBlue\GB_LB_2.xlsx
61	main_safe	True	0.0	788	0	2.0	2.0	1.0	1	right	1.0	1.0	1.0	1	0.08	blockFiles/set_31/main_safe/leftBlue\GB_LB_2.xlsx
62	main_safe	True	0.0	788	0	2.0	2.0	0.0	1	left	2.0	0.0	1.0	0	-0.08	blockFiles/set_31/main_safe/leftBlue\GB_LB_2.xlsx
63	main_safe	True	0.0	788	0	2.0	2.0	1.0	1	right	1.0	1.0	1.0	1	0.08	blockFiles/set_31/main_safe/leftBlue\GB_LB_2.xlsx
64	main_safe	True	0.0	788	0	2.0	2.0	1.0	1	right	1.0	1.0	1.0	1	0.08	blockFiles/set_31/main_safe/leftBlue\GB_LB_2.xlsx
65	main_safe	True	0.0	788	0	2.0	2.0	0.0	1	left	2.0	1.0	1.0	0	-0.08	blockFiles/set_31/main_safe/leftBlue\GB_LB_2.xlsx
66	main_safe	True	0.0	788	0	2.0	2.0	0.0	1	left	1.0	1.0	0.0	0	-0.08	blockFiles/set_31/main_safe/leftBlue\GB_LB_2.xlsx
67	main_safe	True	0.0	788	0	2.0	2.0	0.0	1	left	2.0	0.0	1.0	0	-0.08	blockFiles/set_31/main_safe/leftBlue\GB_LB_2.xlsx
68	main_safe	True	0.0	788	0	2.0	2.0	1.0	1	right	1.0	1.0	1.0	1	0.08	blockFiles/set_31/main_safe/leftBlue\GB_LB_2.xlsx
69	main_safe	True	0.0	788	0	2.0	2.0	1.0	1	right	2.0	0.0	0.0	1	0.08	blockFiles/set_31/main_safe/leftBlue\GB_LB_2.xlsx
70	main_safe	True	0.0	788	0	2.0	2.0	1.0	1	right	1.0	1.0	1.0	1	0.08	blockFiles/set_31/main_safe/leftBlue\GB_LB_2.xlsx
71	main_safe	True	0.0	788	0	2.0	2.0	0.0	1	left	2.0	1.0	1.0	0	-0.08	blockFiles/set_31/main_safe/leftBlue\GB_LB_2.xlsx
72	main_safe	True	0.0	788	0	2.0	2.0	1.0	1	right	1.0	1.0	1.0	1	0.08	blockFiles/set_31/main_safe/leftBlue\GB_LB_2.xlsx
73	main_safe	True	0.0	788	0	2.0	2.0	0.0	1	left	2.0	1.0	1.0	0	-0.08	blockFiles/set_31/main_safe/leftBlue\GB_LB_2.xlsx
74	main_safe	True	0.0	788	0	2.0	2.0	1.0	1	right	1.0	1.0	1.0	1	0.08	blockFiles/set_31/main_safe/leftBlue\GB_LB_2.xlsx
75	main_safe	True	0.0	788	0	2.0	2.0	1.0	1	right	1.0	1.0	1.0	1	0.08	blockFiles/set_31/main_safe/leftBlue\GB_LB_2.xlsx
76	main_safe	True	0.0	788	0	3.0	3.0	0.0	1	left	2.0	0.0	0.0	0	-0.08	blockFiles/set_31/main_safe/rightBlue\GB_RB_1.xlsx
77	main_safe	True	0.0	788	0	3.0	3.0	1.0	1	right	1.0	0.0	0.0	1	0.08	blockFiles/set_31/main_safe/rightBlue\GB_RB_1.xlsx
78	main_safe	True	0.0	788	0	3.0	3.0	0.0	1	left	1.0	1.0	1.0	0	-0.08	blockFiles/set_31/main_safe/rightBlue\GB_RB_1.xlsx
79	main_safe	True	0.0	788	0	3.0	3.0	1.0	1	right	2.0	1.0	1.0	1	0.08	blockFiles/set_31/main_safe/rightBlue\GB_RB_1.xlsx
80	main_safe	True	0.0	788	0	3.0	3.0	0.0	1	left	2.0	0.0	0.0	0	-0.08	blockFiles/set_31/main_safe/rightBlue\GB_RB_1.xlsx
81	main_safe	True	0.0	788	0	3.0	3.0	1.0	1	right	2.0	0.0	1.0	1	0.08	blockFiles/set_31/main_safe/rightBlue\GB_RB_1.xlsx
82	main_safe	True	0.0	788	0	3.0	3.0	0.0	1	left	2.0	0.0	0.0	0	-0.08	blockFiles/set_31/main_safe/rightBlue\GB_RB_1.xlsx
83	main_safe	True	1.0	788	0	3.0	3.0	n/a	0	None	n/a	0.0	n/a	1	0.08	blockFiles/set_31/main_safe/rightBlue\GB_RB_1.xlsx
84	main_safe	True	0.0	788	0	3.0	3.0	0.0	1	left	1.0	1.0	1.0	0	-0.08	blockFiles/set_31/main_safe/rightBlue\GB_RB_1.xlsx
85	main_safe	True	0.0	788	0	3.0	3.0	0.0	1	left	1.0	1.0	1.0	0	-0.08	blockFiles/set_31/main_safe/rightBlue\GB_RB_1.xlsx
86	main_safe	True	0.0	788	0	3.0	3.0	1.0	1	right	2.0	1.0	1.0	1	0.08	blockFiles/set_31/main_safe/rightBlue\GB_RB_1.xlsx
87	main_safe	True	0.0	788	0	3.0	3.0	0.0	1	left	1.0	1.0	1.0	0	-0.08	blockFiles/set_31/main_safe/rightBlue\GB_RB_1.xlsx
88	main_safe	True	0.0	788	0	3.0	3.0	0.0	1	left	1.0	0.0	1.0	0	-0.08	blockFiles/set_31/main_safe/rightBlue\GB_RB_1.xlsx
89	main_safe	True	0.0	788	0	3.0	3.0	0.0	1	left	1.0	1.0	1.0	0	-0.08	blockFiles/set_31/main_safe/rightBlue\GB_RB_1.xlsx
90	main_safe	True	0.0	788	0	3.0	3.0	1.0	1	right	2.0	1.0	1.0	1	0.08	blockFiles/set_31/main_safe/rightBlue\GB_RB_1.xlsx
91	main_safe	True	0.0	788	0	3.0	3.0	0.0	1	left	1.0	1.0	1.0	0	-0.08	blockFiles/set_31/main_safe/rightBlue\GB_RB_1.xlsx
92	main_safe	True	0.0	788	0	3.0	3.0	0.0	1	left	2.0	0.0	0.0	0	-0.08	blockFiles/set_31/main_safe/rightBlue\GB_RB_1.xlsx
93	main_safe	True	0.0	788	0	3.0	3.0	1.0	1	right	2.0	1.0	1.0	1	0.08	blockFiles/set_31/main_safe/rightBlue\GB_RB_1.xlsx
94	main_safe	True	0.0	788	0	3.0	3.0	0.0	1	left	1.0	0.0	1.0	0	-0.08	blockFiles/set_31/main_safe/rightBlue\GB_RB_1.xlsx
95	main_safe	True	0.0	788	0	3.0	3.0	1.0	1	right	2.0	1.0	1.0	1	0.08	blockFiles/set_31/main_safe/rightBlue\GB_RB_1.xlsx
96	main_safe	True	0.0	788	0	3.0	3.0	1.0	1	right	1.0	0.0	0.0	1	0.08	blockFiles/set_31/main_safe/rightBlue\GB_RB_1.xlsx
97	main_safe	True	0.0	788	0	3.0	3.0	1.0	1	right	2.0	1.0	1.0	1	0.08	blockFiles/set_31/main_safe/rightBlue\GB_RB_1.xlsx
98	main_safe	True	0.0	788	0	3.0	3.0	1.0	1	right	2.0	0.0	1.0	1	0.08	blockFiles/set_31/main_safe/rightBlue\GB_RB_1.xlsx
99	main_safe	True	0.0	788	0	3.0	3.0	0.0	1	left	1.0	0.0	1.0	0	-0.08	blockFiles/set_31/main_safe/rightBlue\GB_RB_1.xlsx
100	main_safe	True	0.0	788	0	3.0	3.0	1.0	1	right	2.0	1.0	1.0	1	0.08	blockFiles/set_31/main_safe/rightBlue\GB_RB_1.xlsx
101	main_safe	True	0.0	788	0	3.0	3.0	1.0	1	right	2.0	1.0	1.0	1	0.08	blockFiles/set_31/main_safe/rightBlue\GB_RB_1.xlsx
102	main_safe	True	0.0	788	0	4.0	4.0	0.0	1	left	2.0	1.0	1.0	0	-0.08	blockFiles/set_31/main_safe/leftBlue\GB_LB_3.xlsx
103	main_safe	True	0.0	788	0	4.0	4.0	1.0	1	right	1.0	1.0	1.0	1	0.08	blockFiles/set_31/main_safe/leftBlue\GB_LB_3.xlsx
104	main_safe	True	0.0	788	0	4.0	4.0	0.0	1	left	2.0	1.0	1.0	0	-0.08	blockFiles/set_31/main_safe/leftBlue\GB_LB_3.xlsx
105	main_safe	True	0.0	788	0	4.0	4.0	0.0	1	left	2.0	0.0	1.0	0	-0.08	blockFiles/set_31/main_safe/leftBlue\GB_LB_3.xlsx
106	main_safe	True	0.0	788	0	4.0	4.0	1.0	1	right	1.0	1.0	1.0	1	0.08	blockFiles/set_31/main_safe/leftBlue\GB_LB_3.xlsx
107	main_safe	True	1.0	788	0	4.0	4.0	n/a	0	None	n/a	0.0	n/a	1	0.08	blockFiles/set_31/main_safe/leftBlue\GB_LB_3.xlsx
108	main_safe	True	0.0	788	0	4.0	4.0	1.0	1	right	2.0	0.0	0.0	1	0.08	blockFiles/set_31/main_safe/leftBlue\GB_LB_3.xlsx
109	main_safe	True	0.0	788	0	4.0	4.0	1.0	1	right	2.0	1.0	0.0	1	0.08	blockFiles/set_31/main_safe/leftBlue\GB_LB_3.xlsx
110	main_safe	True	0.0	788	0	4.0	4.0	1.0	1	right	2.0	0.0	0.0	1	0.08	blockFiles/set_31/main_safe/leftBlue\GB_LB_3.xlsx
111	main_safe	True	0.0	788	0	4.0	4.0	0.0	1	left	1.0	1.0	0.0	0	-0.08	blockFiles/set_31/main_safe/leftBlue\GB_LB_3.xlsx
112	main_safe	True	0.0	788	0	4.0	4.0	0.0	1	left	1.0	0.0	0.0	0	-0.08	blockFiles/set_31/main_safe/leftBlue\GB_LB_3.xlsx
113	main_safe	True	0.0	788	0	4.0	4.0	0.0	1	left	1.0	0.0	0.0	0	-0.08	blockFiles/set_31/main_safe/leftBlue\GB_LB_3.xlsx
114	main_safe	True	0.0	788	0	4.0	4.0	1.0	1	right	2.0	0.0	0.0	1	0.08	blockFiles/set_31/main_safe/leftBlue\GB_LB_3.xlsx
115	main_safe	True	0.0	788	0	4.0	4.0	1.0	1	right	2.0	0.0	0.0	1	0.08	blockFiles/set_31/main_safe/leftBlue\GB_LB_3.xlsx
116	main_safe	True	0.0	788	0	4.0	4.0	0.0	1	left	1.0	1.0	0.0	0	-0.08	blockFiles/set_31/main_safe/leftBlue\GB_LB_3.xlsx
117	main_safe	True	0.0	788	0	4.0	4.0	0.0	1	left	1.0	1.0	0.0	0	-0.08	blockFiles/set_31/main_safe/leftBlue\GB_LB_3.xlsx
118	main_safe	True	0.0	788	0	4.0	4.0	0.0	1	left	1.0	0.0	0.0	0	-0.08	blockFiles/set_31/main_safe/leftBlue\GB_LB_3.xlsx
119	main_safe	True	0.0	788	0	4.0	4.0	0.0	1	left	1.0	0.0	0.0	0	-0.08	blockFiles/set_31/main_safe/leftBlue\GB_LB_3.xlsx
120	main_safe	True	0.0	788	0	4.0	4.0	1.0	1	right	2.0	0.0	0.0	1	0.08	blockFiles/set_31/main_safe/leftBlue\GB_LB_3.xlsx
121	main_safe	True	0.0	788	0	4.0	4.0	1.0	1	right	2.0	0.0	0.0	1	0.08	blockFiles/set_31/main_safe/leftBlue\GB_LB_3.xlsx
122	main_safe	True	0.0	788	0	4.0	4.0	1.0	1	right	2.0	0.0	0.0	1	0.08	blockFiles/set_31/main_safe/leftBlue\GB_LB_3.xlsx
123	main_safe	True	1.0	788	0	4.0	4.0	0.0	1	left	n/a	0.0	n/a	0	-0.08	blockFiles/set_31/main_safe/leftBlue\GB_LB_3.xlsx
124	main_safe	True	0.0	788	0	4.0	4.0	0.0	1	left	1.0	0.0	0.0	0	-0.08	blockFiles/set_31/main_safe/leftBlue\GB_LB_3.xlsx
125	main_safe	True	0.0	788	0	4.0	4.0	1.0	1	right	1.0	0.0	1.0	1	0.08	blockFiles/set_31/main_safe/leftBlue\GB_LB_3.xlsx
126	main_safe	True	0.0	788	0	4.0	4.0	1.0	0	right	1.0	0.0	0.0	0	-0.08	blockFiles/set_31/main_safe/leftBlue\GB_LB_3.xlsx
127	main_safe	True	0.0	788	0	4.0	4.0	1.0	1	right	1.0	1.0	1.0	1	0.08	blockFiles/set_31/main_safe/leftBlue\GB_LB_3.xlsx
128	main_safe	True	0.0	788	0	4.0	4.0	0.0	1	left	1.0	0.0	0.0	0	-0.08	blockFiles/set_31/main_safe/leftBlue\GB_LB_3.xlsx
129	main_safe	True	0.0	788	0	5.0	5.0	0.0	1	left	1.0	1.0	1.0	0	-0.08	blockFiles/set_31/main_safe/rightBlue\GB_RB_2.xlsx
130	main_safe	True	0.0	788	0	5.0	5.0	0.0	1	left	1.0	1.0	1.0	0	-0.08	blockFiles/set_31/main_safe/rightBlue\GB_RB_2.xlsx
131	main_safe	True	0.0	788	0	5.0	5.0	0.0	1	left	1.0	1.0	1.0	0	-0.08	blockFiles/set_31/main_safe/rightBlue\GB_RB_2.xlsx
132	main_safe	True	1.0	788	0	5.0	5.0	n/a	0	None	n/a	0.0	n/a	0	-0.08	blockFiles/set_31/main_safe/rightBlue\GB_RB_2.xlsx
133	main_safe	True	0.0	788	0	5.0	5.0	1.0	1	right	2.0	1.0	1.0	1	0.08	blockFiles/set_31/main_safe/rightBlue\GB_RB_2.xlsx
134	main_safe	True	0.0	788	0	5.0	5.0	0.0	1	left	1.0	1.0	1.0	0	-0.08	blockFiles/set_31/main_safe/rightBlue\GB_RB_2.xlsx
135	main_safe	True	0.0	788	0	5.0	5.0	0.0	1	left	2.0	0.0	0.0	0	-0.08	blockFiles/set_31/main_safe/rightBlue\GB_RB_2.xlsx
136	main_safe	True	0.0	788	0	5.0	5.0	1.0	1	right	2.0	0.0	1.0	1	0.08	blockFiles/set_31/main_safe/rightBlue\GB_RB_2.xlsx
137	main_safe	True	0.0	788	0	5.0	5.0	1.0	1	right	2.0	1.0	1.0	1	0.08	blockFiles/set_31/main_safe/rightBlue\GB_RB_2.xlsx
138	main_safe	True	0.0	788	0	5.0	5.0	0.0	1	left	1.0	1.0	1.0	0	-0.08	blockFiles/set_31/main_safe/rightBlue\GB_RB_2.xlsx
139	main_safe	True	0.0	788	0	5.0	5.0	1.0	1	right	2.0	0.0	1.0	1	0.08	blockFiles/set_31/main_safe/rightBlue\GB_RB_2.xlsx
140	main_safe	True	0.0	788	0	5.0	5.0	1.0	1	right	2.0	1.0	1.0	1	0.08	blockFiles/set_31/main_safe/rightBlue\GB_RB_2.xlsx
141	main_safe	True	0.0	788	0	5.0	5.0	1.0	1	right	2.0	1.0	1.0	1	0.08	blockFiles/set_31/main_safe/rightBlue\GB_RB_2.xlsx
142	main_safe	True	0.0	788	0	5.0	5.0	0.0	1	left	1.0	0.0	1.0	0	-0.08	blockFiles/set_31/main_safe/rightBlue\GB_RB_2.xlsx
143	main_safe	True	0.0	788	0	5.0	5.0	1.0	1	right	2.0	0.0	1.0	1	0.08	blockFiles/set_31/main_safe/rightBlue\GB_RB_2.xlsx
144	main_safe	True	0.0	788	0	5.0	5.0	1.0	1	right	1.0	0.0	0.0	1	0.08	blockFiles/set_31/main_safe/rightBlue\GB_RB_2.xlsx
145	main_safe	True	0.0	788	0	5.0	5.0	1.0	1	right	2.0	1.0	1.0	1	0.08	blockFiles/set_31/main_safe/rightBlue\GB_RB_2.xlsx
146	main_safe	True	0.0	788	0	5.0	5.0	0.0	1	left	1.0	1.0	1.0	0	-0.08	blockFiles/set_31/main_safe/rightBlue\GB_RB_2.xlsx
147	main_safe	True	0.0	788	0	5.0	5.0	1.0	1	right	2.0	1.0	1.0	1	0.08	blockFiles/set_31/main_safe/rightBlue\GB_RB_2.xlsx
148	main_safe	True	0.0	788	0	5.0	5.0	0.0	1	left	1.0	1.0	1.0	0	-0.08	blockFiles/set_31/main_safe/rightBlue\GB_RB_2.xlsx
149	main_safe	True	0.0	788	0	5.0	5.0	0.0	1	left	2.0	0.0	0.0	0	-0.08	blockFiles/set_31/main_safe/rightBlue\GB_RB_2.xlsx
150	main_safe	True	0.0	788	0	5.0	5.0	1.0	1	right	2.0	0.0	1.0	1	0.08	blockFiles/set_31/main_safe/rightBlue\GB_RB_2.xlsx
151	main_safe	True	0.0	788	0	5.0	5.0	0.0	1	left	1.0	1.0	1.0	0	-0.08	blockFiles/set_31/main_safe/rightBlue\GB_RB_2.xlsx
152	main_safe	True	0.0	788	0	5.0	5.0	0.0	1	left	1.0	1.0	1.0	0	-0.08	blockFiles/set_31/main_safe/rightBlue\GB_RB_2.xlsx
153	main_safe	True	0.0	788	0	5.0	5.0	1.0	1	right	2.0	1.0	1.0	1	0.08	blockFiles/set_31/main_safe/rightBlue\GB_RB_2.xlsx
154	main_safe	True	0.0	788	0	5.0	5.0	0.0	1	left	1.0	1.0	1.0	0	-0.08	blockFiles/set_31/main_safe/rightBlue\GB_RB_2.xlsx
155	patches	True	n/a	788	0	n/a	n/a	0.0	0	left	n/a	n/a	n/a	1	0.00354476151988	blockFiles/set_31/main_PD/GB_runPatches1.xlsx
156	patches	True	n/a	788	0	n/a	n/a	1.0	1	right	n/a	n/a	n/a	1	0.0463133401424	blockFiles/set_31/main_PD/GB_runPatches1.xlsx
157	patches	True	n/a	788	0	n/a	n/a	0.0	1	left	n/a	n/a	n/a	0	-0.07229331312699999	blockFiles/set_31/main_PD/GB_runPatches1.xlsx
158	patches	True	n/a	788	0	n/a	n/a	0.0	1	left	n/a	n/a	n/a	0	-0.0627064862289	blockFiles/set_31/main_PD/GB_runPatches1.xlsx
159	patches	True	n/a	788	0	n/a	n/a	0.0	1	left	n/a	n/a	n/a	0	-0.0194311907701	blockFiles/set_31/main_PD/GB_runPatches1.xlsx
160	patches	True	n/a	788	0	n/a	n/a	0.0	1	left	n/a	n/a	n/a	0	-0.0104495116137	blockFiles/set_31/main_PD/GB_runPatches1.xlsx
161	patches	True	n/a	788	0	n/a	n/a	1.0	1	right	n/a	n/a	n/a	1	0.0533861194551	blockFiles/set_31/main_PD/GB_runPatches1.xlsx
162	patches	True	n/a	788	0	n/a	n/a	0.0	0	left	n/a	n/a	n/a	1	0.024663964863900004	blockFiles/set_31/main_PD/GB_runPatches1.xlsx
163	patches	True	n/a	788	0	n/a	n/a	0.0	1	left	n/a	n/a	n/a	0	-0.0635317431763	blockFiles/set_31/main_PD/GB_runPatches1.xlsx
164	patches	True	n/a	788	0	n/a	n/a	0.0	1	left	n/a	n/a	n/a	0	-0.0717766151205	blockFiles/set_31/main_PD/GB_runPatches1.xlsx
165	patches	True	n/a	788	0	n/a	n/a	0.0	0	left	n/a	n/a	n/a	1	0.050153970736999995	blockFiles/set_31/main_PD/GB_runPatches1.xlsx
166	patches	True	n/a	788	0	n/a	n/a	0.0	0	left	n/a	n/a	n/a	1	0.00791268084198	blockFiles/set_31/main_PD/GB_runPatches1.xlsx
167	patches	True	n/a	788	0	n/a	n/a	0.0	1	left	n/a	n/a	n/a	0	-0.057109203767	blockFiles/set_31/main_PD/GB_runPatches1.xlsx
168	patches	True	n/a	788	0	n/a	n/a	0.0	1	left	n/a	n/a	n/a	0	-0.0028191695176100003	blockFiles/set_31/main_PD/GB_runPatches1.xlsx
169	patches	True	n/a	788	0	n/a	n/a	0.0	1	left	n/a	n/a	n/a	0	-0.041364033576099996	blockFiles/set_31/main_PD/GB_runPatches1.xlsx
170	patches	True	n/a	788	0	n/a	n/a	1.0	1	right	n/a	n/a	n/a	1	0.0575683123432	blockFiles/set_31/main_PD/GB_runPatches1.xlsx
171	patches	True	n/a	788	0	n/a	n/a	0.0	0	left	n/a	n/a	n/a	1	0.0236598797701	blockFiles/set_31/main_PD/GB_runPatches1.xlsx
172	patches	True	n/a	788	0	n/a	n/a	0.0	1	left	n/a	n/a	n/a	0	-0.014865645673100001	blockFiles/set_31/main_PD/GB_runPatches1.xlsx
173	patches	True	n/a	788	0	n/a	n/a	0.0	1	left	n/a	n/a	n/a	0	-0.0678350662813	blockFiles/set_31/main_PD/GB_runPatches1.xlsx
174	patches	True	n/a	788	0	n/a	n/a	0.0	1	left	n/a	n/a	n/a	0	-0.0208350784145	blockFiles/set_31/main_PD/GB_runPatches1.xlsx
175	patches	True	n/a	788	0	n/a	n/a	0.0	1	left	n/a	n/a	n/a	0	-0.05981245843690001	blockFiles/set_31/main_PD/GB_runPatches1.xlsx
176	patches	True	n/a	788	0	n/a	n/a	0.0	0	left	n/a	n/a	n/a	1	0.0664676962234	blockFiles/set_31/main_PD/GB_runPatches1.xlsx
177	patches	True	n/a	788	0	n/a	n/a	1.0	1	right	n/a	n/a	n/a	1	0.0663888279721	blockFiles/set_31/main_PD/GB_runPatches1.xlsx
178	patches	True	n/a	788	0	n/a	n/a	1.0	0	right	n/a	n/a	n/a	0	-0.0136123547517	blockFiles/set_31/main_PD/GB_runPatches1.xlsx
179	patches	True	n/a	788	0	n/a	n/a	1.0	1	right	n/a	n/a	n/a	1	0.0586302148178	blockFiles/set_31/main_PD/GB_runPatches1.xlsx
180	patches	True	n/a	788	0	n/a	n/a	0.0	1	left	n/a	n/a	n/a	0	-0.0035131935961500004	blockFiles/set_31/main_PD/GB_runPatches1.xlsx
181	patches	True	n/a	788	0	n/a	n/a	0.0	0	left	n/a	n/a	n/a	1	0.029639956541400003	blockFiles/set_31/main_PD/GB_runPatches1.xlsx
182	patches	True	n/a	788	0	n/a	n/a	1.0	1	right	n/a	n/a	n/a	1	0.0342864648066	blockFiles/set_31/main_PD/GB_runPatches1.xlsx
183	patches	True	n/a	788	0	n/a	n/a	1.0	1	right	n/a	n/a	n/a	1	0.035349104143699996	blockFiles/set_31/main_PD/GB_runPatches1.xlsx
184	patches	True	n/a	788	0	n/a	n/a	1.0	1	right	n/a	n/a	n/a	1	0.0501048263349	blockFiles/set_31/main_PD/GB_runPatches1.xlsx
185	patches	True	n/a	788	0	n/a	n/a	1.0	1	right	n/a	n/a	n/a	1	0.0625186004117	blockFiles/set_31/main_PD/GB_runPatches1.xlsx
186	patches	True	n/a	788	0	n/a	n/a	1.0	1	right	n/a	n/a	n/a	1	0.031984422970599995	blockFiles/set_31/main_PD/GB_runPatches1.xlsx
187	patches	True	n/a	788	0	n/a	n/a	0.0	0	left	n/a	n/a	n/a	1	0.0206371920928	blockFiles/set_31/main_PD/GB_runPatches1.xlsx
188	patches	True	n/a	788	0	n/a	n/a	1.0	1	right	n/a	n/a	n/a	1	0.0798051000573	blockFiles/set_31/main_PD/GB_runPatches1.xlsx
189	patches	True	n/a	788	0	n/a	n/a	0.0	1	left	n/a	n/a	n/a	0	-0.029258738625799998	blockFiles/set_31/main_PD/GB_runPatches1.xlsx
190	patches	True	n/a	788	0	n/a	n/a	1.0	0	right	n/a	n/a	n/a	0	-0.0320768629201	blockFiles/set_31/main_PD/GB_runPatches1.xlsx
191	patches	True	n/a	788	0	n/a	n/a	1.0	1	right	n/a	n/a	n/a	1	0.0239692625217	blockFiles/set_31/main_PD/GB_runPatches1.xlsx
192	patches	True	n/a	788	0	n/a	n/a	1.0	0	right	n/a	n/a	n/a	0	-0.032268755678099996	blockFiles/set_31/main_PD/GB_runPatches1.xlsx
193	patches	True	n/a	788	0	n/a	n/a	1.0	1	right	n/a	n/a	n/a	1	0.030592388417599998	blockFiles/set_31/main_PD/GB_runPatches1.xlsx
194	patches	True	n/a	788	0	n/a	n/a	0.0	1	left	n/a	n/a	n/a	0	-0.037426245342900004	blockFiles/set_31/main_PD/GB_runPatches1.xlsx
195	patches	True	n/a	788	0	n/a	n/a	1.0	1	right	n/a	n/a	n/a	1	0.07220812154930001	blockFiles/set_31/main_PD/GB_runPatches1.xlsx
196	patches	True	n/a	788	0	n/a	n/a	1.0	1	right	n/a	n/a	n/a	1	0.0673350933567	blockFiles/set_31/main_PD/GB_runPatches1.xlsx
197	patches	True	n/a	788	0	n/a	n/a	1.0	0	right	n/a	n/a	n/a	0	-0.0265435071848	blockFiles/set_31/main_PD/GB_runPatches1.xlsx
198	patches	True	n/a	788	0	n/a	n/a	0.0	0	left	n/a	n/a	n/a	1	0.00172204209492	blockFiles/set_31/main_PD/GB_runPatches1.xlsx
199	patches	True	n/a	788	0	n/a	n/a	1.0	1	right	n/a	n/a	n/a	1	0.0385655887611	blockFiles/set_31/main_PD/GB_runPatches1.xlsx
200	patches	True	n/a	788	0	n/a	n/a	1.0	0	right	n/a	n/a	n/a	0	-0.0386692115292	blockFiles/set_31/main_PD/GB_runPatches1.xlsx
201	patches	True	n/a	788	0	n/a	n/a	1.0	1	right	n/a	n/a	n/a	1	0.0759274373204	blockFiles/set_31/main_PD/GB_runPatches1.xlsx
202	patches	True	n/a	788	0	n/a	n/a	1.0	1	right	n/a	n/a	n/a	1	0.030370165444900003	blockFiles/set_31/main_PD/GB_runPatches1.xlsx
203	patches	True	n/a	788	0	n/a	n/a	1.0	1	right	n/a	n/a	n/a	1	0.051267260592400006	blockFiles/set_31/main_PD/GB_runPatches1.xlsx
204	patches	True	n/a	788	0	n/a	n/a	1.0	1	right	n/a	n/a	n/a	1	0.041377702727900006	blockFiles/set_31/main_PD/GB_runPatches1.xlsx
205	patches	True	n/a	788	0	n/a	n/a	1.0	1	right	n/a	n/a	n/a	1	0.046817530673	blockFiles/set_31/main_PD/GB_runPatches1.xlsx
206	patches	True	n/a	788	0	n/a	n/a	1.0	0	right	n/a	n/a	n/a	0	-0.0481242586486	blockFiles/set_31/main_PD/GB_runPatches1.xlsx
207	patches	True	n/a	788	0	n/a	n/a	1.0	0	right	n/a	n/a	n/a	0	-0.0408804030903	blockFiles/set_31/main_PD/GB_runPatches1.xlsx
208	patches	True	n/a	788	0	n/a	n/a	0.0	1	left	n/a	n/a	n/a	0	-0.0393728595041	blockFiles/set_31/main_PD/GB_runPatches1.xlsx
209	patches	True	n/a	788	0	n/a	n/a	1.0	0	right	n/a	n/a	n/a	0	-0.06222227208319999	blockFiles/set_31/main_PD/GB_runPatches1.xlsx
210	patches	True	n/a	788	0	n/a	n/a	1.0	1	right	n/a	n/a	n/a	1	0.0013922200910699999	blockFiles/set_31/main_PD/GB_runPatches1.xlsx
211	patches	True	n/a	788	0	n/a	n/a	1.0	0	right	n/a	n/a	n/a	0	-0.046188867762699995	blockFiles/set_31/main_PD/GB_runPatches1.xlsx
212	patches	True	n/a	788	0	n/a	n/a	1.0	1	right	n/a	n/a	n/a	1	0.0478617944755	blockFiles/set_31/main_PD/GB_runPatches1.xlsx
213	patches	True	n/a	788	0	n/a	n/a	0.0	1	left	n/a	n/a	n/a	0	-0.07360201142730001	blockFiles/set_31/main_PD/GB_runPatches1.xlsx
214	patches	True	n/a	788	0	n/a	n/a	1.0	0	right	n/a	n/a	n/a	0	-0.0317819463275	blockFiles/set_31/main_PD/GB_runPatches1.xlsx
215	patches	True	n/a	788	0	n/a	n/a	1.0	0	right	n/a	n/a	n/a	0	-0.07883670961480001	blockFiles/set_31/main_PD/GB_runPatches1.xlsx
216	patches	True	n/a	788	0	n/a	n/a	0.0	0	left	n/a	n/a	n/a	1	0.0113988342136	blockFiles/set_31/main_PD/GB_runPatches1.xlsx
217	patches	True	n/a	788	0	n/a	n/a	1.0	1	right	n/a	n/a	n/a	1	0.0480734602176	blockFiles/set_31/main_PD/GB_runPatches1.xlsx
218	patches	True	n/a	788	0	n/a	n/a	0.0	1	left	n/a	n/a	n/a	0	-0.0520131462812	blockFiles/set_31/main_PD/GB_runPatches1.xlsx
219	patches	True	n/a	788	0	n/a	n/a	1.0	1	right	n/a	n/a	n/a	1	0.015611868575200001	blockFiles/set_31/main_PD/GB_runPatches1.xlsx
220	patches	True	n/a	788	0	n/a	n/a	1.0	0	right	n/a	n/a	n/a	0	-0.017686065453999998	blockFiles/set_31/main_PD/GB_runPatches1.xlsx
221	patches	True	n/a	788	0	n/a	n/a	1.0	0	right	n/a	n/a	n/a	0	-0.058154003173099995	blockFiles/set_31/main_PD/GB_runPatches1.xlsx
222	patches	True	n/a	788	0	n/a	n/a	0.0	1	left	n/a	n/a	n/a	0	-0.032261906191699996	blockFiles/set_31/main_PD/GB_runPatches1.xlsx
223	patches	True	n/a	788	0	n/a	n/a	1.0	0	right	n/a	n/a	n/a	0	-0.0160625352897	blockFiles/set_31/main_PD/GB_runPatches1.xlsx
224	patches	True	n/a	788	0	n/a	n/a	1.0	1	right	n/a	n/a	n/a	1	0.0573688634112	blockFiles/set_31/main_PD/GB_runPatches1.xlsx
225	patches	True	n/a	788	0	n/a	n/a	0.0	1	left	n/a	n/a	n/a	0	-0.020565703716099996	blockFiles/set_31/main_PD/GB_runPatches1.xlsx
226	patches	True	n/a	788	0	n/a	n/a	1.0	1	right	n/a	n/a	n/a	1	0.0436589270458	blockFiles/set_31/main_PD/GB_runPatches1.xlsx
227	patches	True	n/a	788	0	n/a	n/a	0.0	1	left	n/a	n/a	n/a	0	-0.0273112069815	blockFiles/set_31/main_PD/GB_runPatches1.xlsx
228	patches	True	n/a	788	0	n/a	n/a	1.0	0	right	n/a	n/a	n/a	0	-0.0722836200893	blockFiles/set_31/main_PD/GB_runPatches1.xlsx
229	patches	True	n/a	788	0	n/a	n/a	1.0	1	right	n/a	n/a	n/a	1	0.031991185341	blockFiles/set_31/main_PD/GB_runPatches1.xlsx
230	patches	True	n/a	788	0	n/a	n/a	0.0	1	left	n/a	n/a	n/a	0	-0.0288730777428	blockFiles/set_31/main_PD/GB_runPatches1.xlsx
231	patches	True	n/a	788	0	n/a	n/a	1.0	0	right	n/a	n/a	n/a	0	-0.0417430152558	blockFiles/set_31/main_PD/GB_runPatches1.xlsx
232	patches	True	n/a	788	0	n/a	n/a	0.0	1	left	n/a	n/a	n/a	0	-0.057084651421800005	blockFiles/set_31/main_PD/GB_runPatches1.xlsx
233	patches	True	n/a	788	0	n/a	n/a	1.0	1	right	n/a	n/a	n/a	1	0.0277833016217	blockFiles/set_31/main_PD/GB_runPatches1.xlsx
234	patches	True	n/a	788	0	n/a	n/a	0.0	1	left	n/a	n/a	n/a	0	-0.00812333038077	blockFiles/set_31/main_PD/GB_runPatches1.xlsx
235	patches	True	n/a	788	0	n/a	n/a	1.0	0	right	n/a	n/a	n/a	0	-0.060681905541599995	blockFiles/set_31/main_PD/GB_runPatches1.xlsx
236	patches	True	n/a	788	0	n/a	n/a	0.0	1	left	n/a	n/a	n/a	0	-0.0297312741168	blockFiles/set_31/main_PD/GB_runPatches1.xlsx
237	patches	True	n/a	788	0	n/a	n/a	n/a	0	None	n/a	n/a	n/a	0	-0.0139386087283	blockFiles/set_31/main_PD/GB_runPatches1.xlsx
238	patches	True	n/a	788	0	n/a	n/a	0.0	0	left	n/a	n/a	n/a	1	0.0764722501859	blockFiles/set_31/main_PD/GB_runPatches1.xlsx
239	patches	True	n/a	788	0	n/a	n/a	1.0	0	right	n/a	n/a	n/a	0	-0.0775175150484	blockFiles/set_31/main_PD/GB_runPatches1.xlsx
240	patches	True	n/a	788	0	n/a	n/a	0.0	1	left	n/a	n/a	n/a	0	-0.032685288991799996	blockFiles/set_31/main_PD/GB_runPatches1.xlsx
241	patches	True	n/a	788	0	n/a	n/a	1.0	1	right	n/a	n/a	n/a	1	0.0033924483694099997	blockFiles/set_31/main_PD/GB_runPatches1.xlsx
242	patches	True	n/a	788	0	n/a	n/a	1.0	1	right	n/a	n/a	n/a	1	0.0595833350904	blockFiles/set_31/main_PD/GB_runPatches1.xlsx
243	patches	True	n/a	788	0	n/a	n/a	1.0	0	right	n/a	n/a	n/a	0	-0.0698735081591	blockFiles/set_31/main_PD/GB_runPatches1.xlsx
244	patches	True	n/a	788	0	n/a	n/a	1.0	1	right	n/a	n/a	n/a	1	0.0221406755224	blockFiles/set_31/main_PD/GB_runPatches1.xlsx
245	patches	True	n/a	788	0	n/a	n/a	1.0	0	right	n/a	n/a	n/a	0	-0.0337683769502	blockFiles/set_31/main_PD/GB_runPatches1.xlsx
246	patches	True	n/a	788	0	n/a	n/a	1.0	1	right	n/a	n/a	n/a	1	0.00413663679734	blockFiles/set_31/main_PD/GB_runPatches1.xlsx
247	patches	True	n/a	788	0	n/a	n/a	1.0	1	right	n/a	n/a	n/a	1	0.046524479314699996	blockFiles/set_31/main_PD/GB_runPatches1.xlsx
248	patches	True	n/a	788	0	n/a	n/a	1.0	1	right	n/a	n/a	n/a	1	0.0762525947578	blockFiles/set_31/main_PD/GB_runPatches1.xlsx
249	patches	True	n/a	788	0	n/a	n/a	1.0	0	right	n/a	n/a	n/a	0	-0.0630375385843	blockFiles/set_31/main_PD/GB_runPatches1.xlsx
250	patches	True	n/a	788	0	n/a	n/a	0.0	0	left	n/a	n/a	n/a	1	0.0661371893808	blockFiles/set_31/main_PD/GB_runPatches1.xlsx
251	patches	True	n/a	788	0	n/a	n/a	1.0	1	right	n/a	n/a	n/a	1	0.033568022158	blockFiles/set_31/main_PD/GB_runPatches1.xlsx
252	patches	True	n/a	788	0	n/a	n/a	1.0	1	right	n/a	n/a	n/a	1	0.00598061162978	blockFiles/set_31/main_PD/GB_runPatches1.xlsx
253	patches	True	n/a	788	0	n/a	n/a	1.0	1	right	n/a	n/a	n/a	1	0.016552709676299997	blockFiles/set_31/main_PD/GB_runPatches1.xlsx
254	patches	True	n/a	788	0	n/a	n/a	1.0	0	right	n/a	n/a	n/a	0	-0.0241768221371	blockFiles/set_31/main_PD/GB_runPatches1.xlsx
255	main_unc	True	0.0	788	0	0.0	0.0	1.0	1	right	2.0	1.0	1.0	1	0.031965507511	blockFiles/set_31/main_unc/rightBlue\GB_RB_2.xlsx
256	main_unc	True	0.0	788	0	0.0	0.0	1.0	0	right	1.0	1.0	1.0	0	-0.00549992214888	blockFiles/set_31/main_unc/rightBlue\GB_RB_2.xlsx
257	main_unc	True	0.0	788	0	0.0	0.0	1.0	0	right	1.0	1.0	1.0	0	-0.000463144611567	blockFiles/set_31/main_unc/rightBlue\GB_RB_2.xlsx
258	main_unc	True	0.0	788	0	0.0	0.0	1.0	1	right	2.0	1.0	1.0	1	0.058528805579999996	blockFiles/set_31/main_unc/rightBlue\GB_RB_2.xlsx
259	main_unc	True	0.0	788	0	0.0	0.0	1.0	0	right	2.0	0.0	0.0	0	-0.046744307074699995	blockFiles/set_31/main_unc/rightBlue\GB_RB_2.xlsx
260	main_unc	True	0.0	788	0	0.0	0.0	1.0	0	right	2.0	0.0	0.0	0	-0.0648934861459	blockFiles/set_31/main_unc/rightBlue\GB_RB_2.xlsx
261	main_unc	True	0.0	788	0	0.0	0.0	1.0	0	right	1.0	1.0	1.0	0	-0.058603602014499996	blockFiles/set_31/main_unc/rightBlue\GB_RB_2.xlsx
262	main_unc	True	0.0	788	0	0.0	0.0	1.0	1	right	1.0	1.0	0.0	1	0.056327110715199996	blockFiles/set_31/main_unc/rightBlue\GB_RB_2.xlsx
263	main_unc	True	0.0	788	0	0.0	0.0	1.0	1	right	2.0	1.0	1.0	1	0.011720816157799999	blockFiles/set_31/main_unc/rightBlue\GB_RB_2.xlsx
264	main_unc	True	0.0	788	0	0.0	0.0	1.0	1	right	1.0	0.0	0.0	1	0.0315899632312	blockFiles/set_31/main_unc/rightBlue\GB_RB_2.xlsx
265	main_unc	True	0.0	788	0	0.0	0.0	1.0	1	right	2.0	1.0	1.0	1	0.06275953682140001	blockFiles/set_31/main_unc/rightBlue\GB_RB_2.xlsx
266	main_unc	True	0.0	788	0	0.0	0.0	1.0	1	right	2.0	1.0	1.0	1	0.00542197844014	blockFiles/set_31/main_unc/rightBlue\GB_RB_2.xlsx
267	main_unc	True	0.0	788	0	0.0	0.0	1.0	0	right	2.0	1.0	0.0	0	-0.018241416476700002	blockFiles/set_31/main_unc/rightBlue\GB_RB_2.xlsx
268	main_unc	True	1.0	788	0	0.0	0.0	n/a	0	None	n/a	0.0	n/a	0	-0.032238709013900003	blockFiles/set_31/main_unc/rightBlue\GB_RB_2.xlsx
269	main_unc	True	0.0	788	0	0.0	0.0	1.0	1	right	1.0	0.0	0.0	1	0.06609003864230001	blockFiles/set_31/main_unc/rightBlue\GB_RB_2.xlsx
270	main_unc	True	0.0	788	0	0.0	0.0	1.0	0	right	1.0	0.0	1.0	0	-0.028638774659500002	blockFiles/set_31/main_unc/rightBlue\GB_RB_2.xlsx
271	main_unc	True	0.0	788	0	0.0	0.0	1.0	1	right	2.0	1.0	1.0	1	0.07439415713769999	blockFiles/set_31/main_unc/rightBlue\GB_RB_2.xlsx
272	main_unc	True	0.0	788	0	0.0	0.0	1.0	1	right	2.0	0.0	1.0	1	0.00959996042773	blockFiles/set_31/main_unc/rightBlue\GB_RB_2.xlsx
273	main_unc	True	0.0	788	0	0.0	0.0	1.0	0	right	2.0	0.0	0.0	0	-0.0412429494411	blockFiles/set_31/main_unc/rightBlue\GB_RB_2.xlsx
274	main_unc	True	0.0	788	0	0.0	0.0	0.0	0	left	1.0	0.0	0.0	1	0.0558701088093	blockFiles/set_31/main_unc/rightBlue\GB_RB_2.xlsx
275	main_unc	True	0.0	788	0	0.0	0.0	0.0	0	left	1.0	0.0	0.0	1	0.0649499353208	blockFiles/set_31/main_unc/rightBlue\GB_RB_2.xlsx
276	main_unc	True	0.0	788	0	0.0	0.0	0.0	1	left	2.0	0.0	0.0	0	-0.0473200343922	blockFiles/set_31/main_unc/rightBlue\GB_RB_2.xlsx
277	main_unc	True	0.0	788	0	0.0	0.0	1.0	0	right	2.0	0.0	0.0	0	-0.0207309912704	blockFiles/set_31/main_unc/rightBlue\GB_RB_2.xlsx
278	main_unc	True	1.0	788	0	0.0	0.0	n/a	0	None	n/a	0.0	n/a	0	-0.005432282406839999	blockFiles/set_31/main_unc/rightBlue\GB_RB_2.xlsx
279	main_unc	True	0.0	788	0	0.0	0.0	0.0	1	left	2.0	0.0	0.0	0	-0.00506836865097	blockFiles/set_31/main_unc/rightBlue\GB_RB_2.xlsx
280	main_unc	True	0.0	788	0	0.0	0.0	1.0	0	right	1.0	1.0	1.0	0	-0.032238709013900003	blockFiles/set_31/main_unc/rightBlue\GB_RB_2.xlsx
281	main_unc	True	0.0	788	0	0.0	0.0	1.0	0	right	1.0	1.0	1.0	0	-0.005432282406839999	blockFiles/set_31/main_unc/rightBlue\GB_RB_2.xlsx
282	main_unc	True	0.0	788	0	1.0	1.0	1.0	0	right	1.0	0.0	0.0	0	-0.044213943053	blockFiles/set_31/main_unc/leftBlue\GB_LB_3.xlsx
283	main_unc	True	0.0	788	0	1.0	1.0	1.0	1	right	2.0	1.0	0.0	1	0.0557805721648	blockFiles/set_31/main_unc/leftBlue\GB_LB_3.xlsx
284	main_unc	True	0.0	788	0	1.0	1.0	0.0	0	left	1.0	1.0	1.0	1	0.06474379463119999	blockFiles/set_31/main_unc/leftBlue\GB_LB_3.xlsx
285	main_unc	True	0.0	788	0	1.0	1.0	0.0	0	left	2.0	0.0	0.0	1	0.0194350999594	blockFiles/set_31/main_unc/leftBlue\GB_LB_3.xlsx
286	main_unc	True	0.0	788	0	1.0	1.0	1.0	0	right	1.0	0.0	0.0	0	-0.011386647038200002	blockFiles/set_31/main_unc/leftBlue\GB_LB_3.xlsx
287	main_unc	True	0.0	788	0	1.0	1.0	1.0	1	right	2.0	1.0	0.0	1	0.0637078359351	blockFiles/set_31/main_unc/leftBlue\GB_LB_3.xlsx
288	main_unc	True	0.0	788	0	1.0	1.0	1.0	0	right	1.0	0.0	0.0	0	-0.0266220320575	blockFiles/set_31/main_unc/leftBlue\GB_LB_3.xlsx
289	main_unc	True	1.0	788	0	1.0	1.0	n/a	0	None	n/a	0.0	n/a	1	0.0596308618225	blockFiles/set_31/main_unc/leftBlue\GB_LB_3.xlsx
290	main_unc	True	0.0	788	0	1.0	1.0	1.0	0	right	2.0	0.0	1.0	0	-0.027850118242200003	blockFiles/set_31/main_unc/leftBlue\GB_LB_3.xlsx
291	main_unc	True	0.0	788	0	1.0	1.0	1.0	0	right	2.0	1.0	1.0	0	-0.06879289919510001	blockFiles/set_31/main_unc/leftBlue\GB_LB_3.xlsx
292	main_unc	True	1.0	788	0	1.0	1.0	n/a	0	None	n/a	0.0	n/a	1	0.0220623526536	blockFiles/set_31/main_unc/leftBlue\GB_LB_3.xlsx
293	main_unc	True	0.0	788	0	1.0	1.0	1.0	1	right	1.0	1.0	1.0	1	0.0631461969763	blockFiles/set_31/main_unc/leftBlue\GB_LB_3.xlsx
294	main_unc	True	0.0	788	0	1.0	1.0	0.0	1	left	1.0	0.0	0.0	0	-0.034215104728900006	blockFiles/set_31/main_unc/leftBlue\GB_LB_3.xlsx
295	main_unc	True	0.0	788	0	1.0	1.0	0.0	0	left	1.0	1.0	1.0	1	0.0520760945231	blockFiles/set_31/main_unc/leftBlue\GB_LB_3.xlsx
296	main_unc	True	0.0	788	0	1.0	1.0	0.0	1	left	2.0	1.0	1.0	0	-0.011260064430499999	blockFiles/set_31/main_unc/leftBlue\GB_LB_3.xlsx
297	main_unc	True	0.0	788	0	1.0	1.0	0.0	1	left	2.0	1.0	1.0	0	-0.0285265753046	blockFiles/set_31/main_unc/leftBlue\GB_LB_3.xlsx
298	main_unc	True	0.0	788	0	1.0	1.0	0.0	1	left	1.0	0.0	0.0	0	-0.058858193531599996	blockFiles/set_31/main_unc/leftBlue\GB_LB_3.xlsx
299	main_unc	True	1.0	788	0	1.0	1.0	n/a	0	None	n/a	0.0	n/a	1	0.0284073881432	blockFiles/set_31/main_unc/leftBlue\GB_LB_3.xlsx
300	main_unc	True	0.0	788	0	1.0	1.0	1.0	1	right	1.0	1.0	1.0	1	0.00187389004976	blockFiles/set_31/main_unc/leftBlue\GB_LB_3.xlsx
301	main_unc	True	0.0	788	0	1.0	1.0	0.0	0	left	2.0	0.0	0.0	1	0.07290095031260001	blockFiles/set_31/main_unc/leftBlue\GB_LB_3.xlsx
302	main_unc	True	0.0	788	0	1.0	1.0	1.0	0	right	1.0	0.0	0.0	0	-0.005530221257360001	blockFiles/set_31/main_unc/leftBlue\GB_LB_3.xlsx
303	main_unc	True	0.0	788	0	1.0	1.0	1.0	1	right	1.0	1.0	1.0	1	0.06325653282930001	blockFiles/set_31/main_unc/leftBlue\GB_LB_3.xlsx
304	main_unc	True	0.0	788	0	1.0	1.0	1.0	0	right	2.0	1.0	1.0	0	-0.0772557568736	blockFiles/set_31/main_unc/leftBlue\GB_LB_3.xlsx
305	main_unc	True	0.0	788	0	1.0	1.0	1.0	0	right	1.0	0.0	0.0	0	-0.0588430876099	blockFiles/set_31/main_unc/leftBlue\GB_LB_3.xlsx
306	main_unc	True	0.0	788	0	1.0	1.0	1.0	0	right	1.0	1.0	0.0	0	-0.026045931894299997	blockFiles/set_31/main_unc/leftBlue\GB_LB_3.xlsx
307	main_unc	True	0.0	788	0	1.0	1.0	1.0	1	right	2.0	1.0	0.0	1	0.0596308618225	blockFiles/set_31/main_unc/leftBlue\GB_LB_3.xlsx
308	main_unc	True	0.0	788	0	1.0	1.0	1.0	1	right	2.0	1.0	0.0	1	0.0220623526536	blockFiles/set_31/main_unc/leftBlue\GB_LB_3.xlsx
309	main_unc	True	0.0	788	0	1.0	1.0	1.0	1	right	2.0	0.0	0.0	1	0.0284073881432	blockFiles/set_31/main_unc/leftBlue\GB_LB_3.xlsx
310	main_unc	True	0.0	788	0	2.0	2.0	0.0	1	left	2.0	0.0	0.0	0	-0.0442552379519	blockFiles/set_31/main_unc/rightBlue\GB_RB_5.xlsx
311	main_unc	True	0.0	788	0	2.0	2.0	1.0	1	right	2.0	0.0	1.0	1	0.0414494936354	blockFiles/set_31/main_unc/rightBlue\GB_RB_5.xlsx
312	main_unc	True	0.0	788	0	2.0	2.0	1.0	1	right	1.0	0.0	0.0	1	0.0163065292314	blockFiles/set_31/main_unc/rightBlue\GB_RB_5.xlsx
313	main_unc	True	0.0	788	0	2.0	2.0	1.0	0	right	1.0	0.0	1.0	0	-0.0674714794755	blockFiles/set_31/main_unc/rightBlue\GB_RB_5.xlsx
314	main_unc	True	0.0	788	0	2.0	2.0	1.0	1	right	2.0	1.0	1.0	1	0.0458583804034	blockFiles/set_31/main_unc/rightBlue\GB_RB_5.xlsx
315	main_unc	True	0.0	788	0	2.0	2.0	0.0	1	left	1.0	1.0	1.0	0	-0.012873064056	blockFiles/set_31/main_unc/rightBlue\GB_RB_5.xlsx
316	main_unc	True	0.0	788	0	2.0	2.0	0.0	0	left	1.0	0.0	0.0	1	0.0674563620426	blockFiles/set_31/main_unc/rightBlue\GB_RB_5.xlsx
317	main_unc	True	0.0	788	0	2.0	2.0	0.0	0	left	1.0	1.0	0.0	1	0.06815921848640001	blockFiles/set_31/main_unc/rightBlue\GB_RB_5.xlsx
318	main_unc	True	0.0	788	0	2.0	2.0	0.0	1	left	1.0	1.0	1.0	0	-0.0614994599111	blockFiles/set_31/main_unc/rightBlue\GB_RB_5.xlsx
319	main_unc	True	0.0	788	0	2.0	2.0	0.0	0	left	2.0	0.0	1.0	1	0.004082807842639999	blockFiles/set_31/main_unc/rightBlue\GB_RB_5.xlsx
320	main_unc	True	1.0	788	0	2.0	2.0	n/a	0	None	n/a	0.0	n/a	0	-0.0189907724783	blockFiles/set_31/main_unc/rightBlue\GB_RB_5.xlsx
321	main_unc	True	0.0	788	0	2.0	2.0	0.0	0	left	1.0	0.0	0.0	1	0.027884445488499998	blockFiles/set_31/main_unc/rightBlue\GB_RB_5.xlsx
322	main_unc	True	1.0	788	0	2.0	2.0	1.0	0	right	n/a	0.0	n/a	0	-0.07624298850069999	blockFiles/set_31/main_unc/rightBlue\GB_RB_5.xlsx
323	main_unc	True	0.0	788	0	2.0	2.0	1.0	1	right	1.0	0.0	0.0	1	0.0504502453469	blockFiles/set_31/main_unc/rightBlue\GB_RB_5.xlsx
324	main_unc	True	1.0	788	0	2.0	2.0	1.0	0	right	n/a	0.0	n/a	0	-0.046488577574500006	blockFiles/set_31/main_unc/rightBlue\GB_RB_5.xlsx
325	main_unc	True	0.0	788	0	2.0	2.0	1.0	1	right	1.0	0.0	0.0	1	0.0562880191021	blockFiles/set_31/main_unc/rightBlue\GB_RB_5.xlsx
326	main_unc	True	0.0	788	0	2.0	2.0	1.0	0	right	1.0	1.0	1.0	0	-0.019166277386199998	blockFiles/set_31/main_unc/rightBlue\GB_RB_5.xlsx
327	main_unc	True	0.0	788	0	2.0	2.0	1.0	1	right	2.0	1.0	1.0	1	0.0340356423706	blockFiles/set_31/main_unc/rightBlue\GB_RB_5.xlsx
328	main_unc	True	0.0	788	0	2.0	2.0	1.0	0	right	1.0	1.0	1.0	0	-0.047312813233599996	blockFiles/set_31/main_unc/rightBlue\GB_RB_5.xlsx
329	main_unc	True	0.0	788	0	2.0	2.0	1.0	1	right	1.0	0.0	0.0	1	7.488142698999999e-05	blockFiles/set_31/main_unc/rightBlue\GB_RB_5.xlsx
330	main_unc	True	1.0	788	0	2.0	2.0	n/a	0	None	n/a	0.0	n/a	0	-0.0414915840514	blockFiles/set_31/main_unc/rightBlue\GB_RB_5.xlsx
331	main_unc	True	0.0	788	0	2.0	2.0	1.0	0	right	2.0	0.0	0.0	0	-0.0618352599069	blockFiles/set_31/main_unc/rightBlue\GB_RB_5.xlsx
332	main_unc	True	0.0	788	0	2.0	2.0	1.0	0	right	2.0	0.0	0.0	0	-0.0477759912796	blockFiles/set_31/main_unc/rightBlue\GB_RB_5.xlsx
333	main_unc	True	0.0	788	0	2.0	2.0	1.0	1	right	1.0	0.0	0.0	1	0.07807306189089999	blockFiles/set_31/main_unc/rightBlue\GB_RB_5.xlsx
334	main_unc	True	0.0	788	0	2.0	2.0	0.0	0	left	1.0	0.0	0.0	1	0.0297519146092	blockFiles/set_31/main_unc/rightBlue\GB_RB_5.xlsx
335	main_unc	True	0.0	788	0	2.0	2.0	0.0	1	left	2.0	1.0	0.0	0	-0.0189907724783	blockFiles/set_31/main_unc/rightBlue\GB_RB_5.xlsx
336	main_unc	True	0.0	788	0	2.0	2.0	0.0	1	left	1.0	1.0	1.0	0	-0.07624298850069999	blockFiles/set_31/main_unc/rightBlue\GB_RB_5.xlsx
337	main_unc	True	0.0	788	0	2.0	2.0	0.0	1	left	2.0	1.0	0.0	0	-0.046488577574500006	blockFiles/set_31/main_unc/rightBlue\GB_RB_5.xlsx
338	main_unc	True	0.0	788	0	2.0	2.0	0.0	1	left	1.0	1.0	1.0	0	-0.0414915840514	blockFiles/set_31/main_unc/rightBlue\GB_RB_5.xlsx
339	main_unc	True	0.0	788	0	3.0	3.0	1.0	1	right	2.0	0.0	0.0	1	0.0394205248915	blockFiles/set_31/main_unc/leftBlue\GB_LB_6.xlsx
340	main_unc	True	0.0	788	0	3.0	3.0	1.0	1	right	2.0	1.0	0.0	1	0.0707146947086	blockFiles/set_31/main_unc/leftBlue\GB_LB_6.xlsx
341	main_unc	True	0.0	788	0	3.0	3.0	1.0	0	right	1.0	0.0	0.0	0	-0.0105438490212	blockFiles/set_31/main_unc/leftBlue\GB_LB_6.xlsx
342	main_unc	True	0.0	788	0	3.0	3.0	1.0	1	right	2.0	0.0	0.0	1	0.0300657862052	blockFiles/set_31/main_unc/leftBlue\GB_LB_6.xlsx
343	main_unc	True	0.0	788	0	3.0	3.0	1.0	0	right	1.0	0.0	0.0	0	-0.007053715232760001	blockFiles/set_31/main_unc/leftBlue\GB_LB_6.xlsx
344	main_unc	True	1.0	788	0	3.0	3.0	n/a	0	None	n/a	0.0	n/a	0	-0.024310222473	blockFiles/set_31/main_unc/leftBlue\GB_LB_6.xlsx
345	main_unc	True	0.0	788	0	3.0	3.0	1.0	1	right	1.0	1.0	1.0	1	0.0453278422542	blockFiles/set_31/main_unc/leftBlue\GB_LB_6.xlsx
346	main_unc	True	0.0	788	0	3.0	3.0	1.0	1	right	1.0	1.0	1.0	1	0.0734507270902	blockFiles/set_31/main_unc/leftBlue\GB_LB_6.xlsx
347	main_unc	True	0.0	788	0	3.0	3.0	1.0	1	right	1.0	0.0	1.0	1	0.00732596676797	blockFiles/set_31/main_unc/leftBlue\GB_LB_6.xlsx
348	main_unc	True	0.0	788	0	3.0	3.0	1.0	1	right	1.0	0.0	1.0	1	0.0431888251007	blockFiles/set_31/main_unc/leftBlue\GB_LB_6.xlsx
349	main_unc	True	0.0	788	0	3.0	3.0	1.0	1	right	2.0	0.0	0.0	1	0.024506082683799998	blockFiles/set_31/main_unc/leftBlue\GB_LB_6.xlsx
350	main_unc	True	0.0	788	0	3.0	3.0	1.0	1	right	2.0	0.0	0.0	1	0.0307137839869	blockFiles/set_31/main_unc/leftBlue\GB_LB_6.xlsx
351	main_unc	True	0.0	788	0	3.0	3.0	1.0	0	right	1.0	0.0	0.0	0	-0.0296546621248	blockFiles/set_31/main_unc/leftBlue\GB_LB_6.xlsx
352	main_unc	True	1.0	788	0	3.0	3.0	1.0	1	right	n/a	0.0	n/a	1	0.0759438095428	blockFiles/set_31/main_unc/leftBlue\GB_LB_6.xlsx
353	main_unc	True	0.0	788	0	3.0	3.0	1.0	1	right	2.0	1.0	0.0	1	0.0401739462465	blockFiles/set_31/main_unc/leftBlue\GB_LB_6.xlsx
354	main_unc	True	0.0	788	0	3.0	3.0	1.0	1	right	1.0	1.0	1.0	1	0.050161794330900004	blockFiles/set_31/main_unc/leftBlue\GB_LB_6.xlsx
355	main_unc	True	0.0	788	0	3.0	3.0	1.0	1	right	2.0	0.0	0.0	1	0.03627554524690001	blockFiles/set_31/main_unc/leftBlue\GB_LB_6.xlsx
356	main_unc	True	0.0	788	0	3.0	3.0	1.0	0	right	1.0	0.0	0.0	0	-0.0130139127374	blockFiles/set_31/main_unc/leftBlue\GB_LB_6.xlsx
357	main_unc	True	0.0	788	0	3.0	3.0	1.0	0	right	2.0	1.0	1.0	0	-0.0026017903722800003	blockFiles/set_31/main_unc/leftBlue\GB_LB_6.xlsx
358	main_unc	True	0.0	788	0	3.0	3.0	1.0	0	right	2.0	0.0	1.0	0	-0.0584162127227	blockFiles/set_31/main_unc/leftBlue\GB_LB_6.xlsx
359	main_unc	True	0.0	788	0	3.0	3.0	1.0	0	right	2.0	1.0	1.0	0	-0.0673522741906	blockFiles/set_31/main_unc/leftBlue\GB_LB_6.xlsx
360	main_unc	True	0.0	788	0	3.0	3.0	0.0	1	left	1.0	0.0	0.0	0	-0.0646620584279	blockFiles/set_31/main_unc/leftBlue\GB_LB_6.xlsx
361	main_unc	True	0.0	788	0	3.0	3.0	0.0	1	left	1.0	0.0	0.0	0	-0.0181139707565	blockFiles/set_31/main_unc/leftBlue\GB_LB_6.xlsx
362	main_unc	True	1.0	788	0	3.0	3.0	n/a	0	None	n/a	0.0	n/a	0	-0.0684282804839	blockFiles/set_31/main_unc/leftBlue\GB_LB_6.xlsx
363	main_unc	True	0.0	788	0	3.0	3.0	0.0	1	left	2.0	1.0	1.0	0	-0.00218298578635	blockFiles/set_31/main_unc/leftBlue\GB_LB_6.xlsx
364	main_unc	True	0.0	788	0	3.0	3.0	0.0	1	left	2.0	1.0	1.0	0	-0.024310222473	blockFiles/set_31/main_unc/leftBlue\GB_LB_6.xlsx
365	main_unc	True	0.0	788	0	3.0	3.0	0.0	0	left	n/a	0.0	n/a	1	0.0759438095428	blockFiles/set_31/main_unc/leftBlue\GB_LB_6.xlsx
366	main_unc	True	0.0	788	0	3.0	3.0	0.0	0	left	1.0	1.0	1.0	1	0.0759438095428	blockFiles/set_31/main_unc/leftBlue\GB_LB_6.xlsx
367	main_unc	True	0.0	788	0	3.0	3.0	0.0	1	left	1.0	0.0	0.0	0	-0.0684282804839	blockFiles/set_31/main_unc/leftBlue\GB_LB_6.xlsx
368	main_unc	True	0.0	788	0	4.0	4.0	1.0	1	right	2.0	0.0	0.0	1	0.025881679281599998	blockFiles/set_31/main_unc/leftBlue\GB_LB_1.xlsx
369	main_unc	True	0.0	788	0	4.0	4.0	1.0	1	right	2.0	0.0	0.0	1	0.018529788423299998	blockFiles/set_31/main_unc/leftBlue\GB_LB_1.xlsx
370	main_unc	True	0.0	788	0	4.0	4.0	0.0	1	left	2.0	1.0	1.0	0	-0.049373899716900004	blockFiles/set_31/main_unc/leftBlue\GB_LB_1.xlsx
371	main_unc	True	0.0	788	0	4.0	4.0	1.0	1	right	1.0	1.0	1.0	1	0.0759490922093	blockFiles/set_31/main_unc/leftBlue\GB_LB_1.xlsx
372	main_unc	True	0.0	788	0	4.0	4.0	0.0	1	left	2.0	1.0	1.0	0	-0.0330841456167	blockFiles/set_31/main_unc/leftBlue\GB_LB_1.xlsx
373	main_unc	True	0.0	788	0	4.0	4.0	0.0	1	left	2.0	0.0	1.0	0	-0.0650662060082	blockFiles/set_31/main_unc/leftBlue\GB_LB_1.xlsx
374	main_unc	True	0.0	788	0	4.0	4.0	0.0	1	left	2.0	1.0	1.0	0	-0.0156274003722	blockFiles/set_31/main_unc/leftBlue\GB_LB_1.xlsx
375	main_unc	True	0.0	788	0	4.0	4.0	0.0	1	left	2.0	1.0	1.0	0	-0.029368682242900002	blockFiles/set_31/main_unc/leftBlue\GB_LB_1.xlsx
376	main_unc	True	0.0	788	0	4.0	4.0	1.0	1	right	1.0	1.0	1.0	1	0.0464078418352	blockFiles/set_31/main_unc/leftBlue\GB_LB_1.xlsx
377	main_unc	True	0.0	788	0	4.0	4.0	0.0	1	left	2.0	1.0	1.0	0	-0.0714889378101	blockFiles/set_31/main_unc/leftBlue\GB_LB_1.xlsx
378	main_unc	True	0.0	788	0	4.0	4.0	0.0	1	left	2.0	1.0	1.0	0	-0.024754585251199997	blockFiles/set_31/main_unc/leftBlue\GB_LB_1.xlsx
379	main_unc	True	0.0	788	0	4.0	4.0	1.0	1	right	1.0	1.0	1.0	1	0.017226825207499998	blockFiles/set_31/main_unc/leftBlue\GB_LB_1.xlsx
380	main_unc	True	0.0	788	0	4.0	4.0	1.0	1	right	1.0	0.0	1.0	1	0.058752792459	blockFiles/set_31/main_unc/leftBlue\GB_LB_1.xlsx
381	main_unc	True	0.0	788	0	4.0	4.0	1.0	1	right	2.0	0.0	0.0	1	0.0261462154053	blockFiles/set_31/main_unc/leftBlue\GB_LB_1.xlsx
382	main_unc	True	0.0	788	0	4.0	4.0	0.0	1	left	2.0	1.0	1.0	0	-0.0664575098827	blockFiles/set_31/main_unc/leftBlue\GB_LB_1.xlsx
383	main_unc	True	0.0	788	0	4.0	4.0	1.0	1	right	2.0	0.0	0.0	1	0.0725143816136	blockFiles/set_31/main_unc/leftBlue\GB_LB_1.xlsx
384	main_unc	True	0.0	788	0	4.0	4.0	1.0	0	right	1.0	0.0	0.0	0	-0.0352653243206	blockFiles/set_31/main_unc/leftBlue\GB_LB_1.xlsx
385	main_unc	True	0.0	788	0	4.0	4.0	1.0	1	right	1.0	1.0	1.0	1	0.05738771392030001	blockFiles/set_31/main_unc/leftBlue\GB_LB_1.xlsx
386	main_unc	True	0.0	788	0	4.0	4.0	1.0	1	right	1.0	0.0	1.0	1	0.0345175768994	blockFiles/set_31/main_unc/leftBlue\GB_LB_1.xlsx
387	main_unc	True	0.0	788	0	4.0	4.0	1.0	0	right	1.0	0.0	0.0	0	-0.0157392927259	blockFiles/set_31/main_unc/leftBlue\GB_LB_1.xlsx
388	main_unc	True	0.0	788	0	4.0	4.0	1.0	1	right	2.0	0.0	0.0	1	0.0182431000471	blockFiles/set_31/main_unc/leftBlue\GB_LB_1.xlsx
389	main_unc	True	0.0	788	0	4.0	4.0	0.0	0	left	2.0	1.0	0.0	1	0.027289879676000002	blockFiles/set_31/main_unc/leftBlue\GB_LB_1.xlsx
390	main_unc	True	0.0	788	0	4.0	4.0	1.0	1	right	1.0	1.0	1.0	1	0.015192905124299999	blockFiles/set_31/main_unc/leftBlue\GB_LB_1.xlsx
391	main_unc	True	0.0	788	0	4.0	4.0	0.0	1	left	2.0	1.0	1.0	0	-0.0738490170054	blockFiles/set_31/main_unc/leftBlue\GB_LB_1.xlsx
392	main_unc	True	0.0	788	0	4.0	4.0	0.0	1	left	2.0	1.0	1.0	0	-0.07714072022589999	blockFiles/set_31/main_unc/leftBlue\GB_LB_1.xlsx
393	main_unc	True	0.0	788	0	5.0	5.0	0.0	1	left	2.0	0.0	0.0	0	-0.043390116710199995	blockFiles/set_31/main_unc/rightBlue\GB_RB_6.xlsx
394	main_unc	True	0.0	788	0	5.0	5.0	0.0	1	left	2.0	0.0	0.0	0	-0.0689865600318	blockFiles/set_31/main_unc/rightBlue\GB_RB_6.xlsx
395	main_unc	True	0.0	788	0	5.0	5.0	1.0	1	right	2.0	1.0	1.0	1	0.0382767864689	blockFiles/set_31/main_unc/rightBlue\GB_RB_6.xlsx
396	main_unc	True	0.0	788	0	5.0	5.0	0.0	1	left	1.0	1.0	1.0	0	-0.0006985087692739999	blockFiles/set_31/main_unc/rightBlue\GB_RB_6.xlsx
397	main_unc	True	0.0	788	0	5.0	5.0	1.0	1	right	2.0	0.0	1.0	1	0.050602220241	blockFiles/set_31/main_unc/rightBlue\GB_RB_6.xlsx
398	main_unc	True	0.0	788	0	5.0	5.0	0.0	1	left	1.0	1.0	1.0	0	-0.040993816610400004	blockFiles/set_31/main_unc/rightBlue\GB_RB_6.xlsx
399	main_unc	True	0.0	788	0	5.0	5.0	1.0	1	right	2.0	1.0	1.0	1	0.040977369695900004	blockFiles/set_31/main_unc/rightBlue\GB_RB_6.xlsx
400	main_unc	True	0.0	788	0	5.0	5.0	0.0	1	left	1.0	1.0	1.0	0	-0.0297395324148	blockFiles/set_31/main_unc/rightBlue\GB_RB_6.xlsx
401	main_unc	True	0.0	788	0	5.0	5.0	0.0	0	left	1.0	0.0	0.0	1	0.012820290792700001	blockFiles/set_31/main_unc/rightBlue\GB_RB_6.xlsx
402	main_unc	True	0.0	788	0	5.0	5.0	0.0	1	left	1.0	1.0	1.0	0	-0.0535886180215	blockFiles/set_31/main_unc/rightBlue\GB_RB_6.xlsx
403	main_unc	True	0.0	788	0	5.0	5.0	0.0	1	left	1.0	1.0	1.0	0	-0.0791280466691	blockFiles/set_31/main_unc/rightBlue\GB_RB_6.xlsx
404	main_unc	True	0.0	788	0	5.0	5.0	1.0	1	right	2.0	1.0	1.0	1	0.006096752025189999	blockFiles/set_31/main_unc/rightBlue\GB_RB_6.xlsx
405	main_unc	True	0.0	788	0	5.0	5.0	0.0	1	left	1.0	1.0	1.0	0	-0.019650604873900003	blockFiles/set_31/main_unc/rightBlue\GB_RB_6.xlsx
406	main_unc	True	0.0	788	0	5.0	5.0	0.0	1	left	1.0	0.0	1.0	0	-0.0783178959414	blockFiles/set_31/main_unc/rightBlue\GB_RB_6.xlsx
407	main_unc	True	0.0	788	0	5.0	5.0	0.0	0	left	2.0	1.0	1.0	1	0.0153843932599	blockFiles/set_31/main_unc/rightBlue\GB_RB_6.xlsx
408	main_unc	True	0.0	788	0	5.0	5.0	1.0	1	right	1.0	0.0	0.0	1	0.0290988815576	blockFiles/set_31/main_unc/rightBlue\GB_RB_6.xlsx
409	main_unc	True	0.0	788	0	5.0	5.0	0.0	1	left	2.0	0.0	0.0	0	-0.0166317058727	blockFiles/set_31/main_unc/rightBlue\GB_RB_6.xlsx
410	main_unc	True	0.0	788	0	5.0	5.0	0.0	1	left	2.0	0.0	0.0	0	-0.0715922383778	blockFiles/set_31/main_unc/rightBlue\GB_RB_6.xlsx
411	main_unc	True	0.0	788	0	5.0	5.0	1.0	1	right	2.0	1.0	1.0	1	0.05728367540990001	blockFiles/set_31/main_unc/rightBlue\GB_RB_6.xlsx
412	main_unc	True	0.0	788	0	5.0	5.0	0.0	1	left	1.0	0.0	1.0	0	-0.021510681901099997	blockFiles/set_31/main_unc/rightBlue\GB_RB_6.xlsx
413	main_unc	True	0.0	788	0	5.0	5.0	1.0	1	right	2.0	1.0	1.0	1	0.0389505089819	blockFiles/set_31/main_unc/rightBlue\GB_RB_6.xlsx
414	main_unc	True	0.0	788	0	5.0	5.0	0.0	1	left	1.0	1.0	1.0	0	-0.0338614036329	blockFiles/set_31/main_unc/rightBlue\GB_RB_6.xlsx
415	main_unc	True	0.0	788	0	5.0	5.0	1.0	0	right	1.0	0.0	1.0	0	-0.0232767608203	blockFiles/set_31/main_unc/rightBlue\GB_RB_6.xlsx
416	main_unc	True	0.0	788	0	5.0	5.0	1.0	1	right	1.0	0.0	0.0	1	0.0220950114541	blockFiles/set_31/main_unc/rightBlue\GB_RB_6.xlsx
417	main_unc	True	0.0	788	0	5.0	5.0	1.0	1	right	2.0	1.0	1.0	1	0.0731191649847	blockFiles/set_31/main_unc/rightBlue\GB_RB_6.xlsx
418	main_unc	True	0.0	788	0	6.0	6.0	1.0	1	right	1.0	1.0	1.0	1	0.0160038748942	blockFiles/set_31/main_unc/leftBlue\GB_LB_2.xlsx
419	main_unc	True	0.0	788	0	6.0	6.0	1.0	1	right	1.0	0.0	1.0	1	0.0340810405463	blockFiles/set_31/main_unc/leftBlue\GB_LB_2.xlsx
420	main_unc	True	0.0	788	0	6.0	6.0	1.0	1	right	2.0	0.0	0.0	1	0.045613523870699994	blockFiles/set_31/main_unc/leftBlue\GB_LB_2.xlsx
421	main_unc	True	0.0	788	0	6.0	6.0	1.0	1	right	2.0	0.0	0.0	1	0.006548709999770001	blockFiles/set_31/main_unc/leftBlue\GB_LB_2.xlsx
422	main_unc	True	0.0	788	0	6.0	6.0	1.0	1	right	1.0	1.0	1.0	1	0.0505358151905	blockFiles/set_31/main_unc/leftBlue\GB_LB_2.xlsx
423	main_unc	True	0.0	788	0	6.0	6.0	1.0	1	right	1.0	1.0	1.0	1	0.007826689910140001	blockFiles/set_31/main_unc/leftBlue\GB_LB_2.xlsx
424	main_unc	True	0.0	788	0	6.0	6.0	1.0	1	right	1.0	1.0	1.0	1	0.0668186760135	blockFiles/set_31/main_unc/leftBlue\GB_LB_2.xlsx
425	main_unc	True	0.0	788	0	6.0	6.0	0.0	1	left	2.0	1.0	1.0	0	-0.06457546364519999	blockFiles/set_31/main_unc/leftBlue\GB_LB_2.xlsx
426	main_unc	True	0.0	788	0	6.0	6.0	0.0	1	left	1.0	0.0	0.0	0	-0.0232564949244	blockFiles/set_31/main_unc/leftBlue\GB_LB_2.xlsx
427	main_unc	True	0.0	788	0	6.0	6.0	0.0	0	left	2.0	1.0	0.0	1	0.0563145847246	blockFiles/set_31/main_unc/leftBlue\GB_LB_2.xlsx
428	main_unc	True	0.0	788	0	6.0	6.0	0.0	1	left	1.0	0.0	0.0	0	-0.0078516979143	blockFiles/set_31/main_unc/leftBlue\GB_LB_2.xlsx
429	main_unc	True	0.0	788	0	6.0	6.0	0.0	1	left	1.0	0.0	0.0	0	-0.0635049690865	blockFiles/set_31/main_unc/leftBlue\GB_LB_2.xlsx
430	main_unc	True	0.0	788	0	6.0	6.0	0.0	1	left	2.0	1.0	1.0	0	-0.04495032303040001	blockFiles/set_31/main_unc/leftBlue\GB_LB_2.xlsx
431	main_unc	True	1.0	788	0	6.0	6.0	n/a	0	None	n/a	0.0	n/a	1	0.0160629240237	blockFiles/set_31/main_unc/leftBlue\GB_LB_2.xlsx
432	main_unc	True	0.0	788	0	6.0	6.0	0.0	1	left	2.0	1.0	1.0	0	-0.0259635384008	blockFiles/set_31/main_unc/leftBlue\GB_LB_2.xlsx
433	main_unc	True	0.0	788	0	6.0	6.0	0.0	1	left	2.0	1.0	1.0	0	-0.060052875913699996	blockFiles/set_31/main_unc/leftBlue\GB_LB_2.xlsx
434	main_unc	True	0.0	788	0	6.0	6.0	0.0	0	left	1.0	1.0	1.0	1	0.0738264403678	blockFiles/set_31/main_unc/leftBlue\GB_LB_2.xlsx
435	main_unc	True	0.0	788	0	6.0	6.0	0.0	1	left	1.0	0.0	0.0	0	-0.0196845482476	blockFiles/set_31/main_unc/leftBlue\GB_LB_2.xlsx
436	main_unc	True	0.0	788	0	6.0	6.0	0.0	0	left	2.0	0.0	0.0	1	0.0273818532377	blockFiles/set_31/main_unc/leftBlue\GB_LB_2.xlsx
437	main_unc	True	0.0	788	0	6.0	6.0	0.0	1	left	1.0	0.0	0.0	0	-0.041836126782	blockFiles/set_31/main_unc/leftBlue\GB_LB_2.xlsx
438	main_unc	True	0.0	788	0	6.0	6.0	0.0	1	left	2.0	1.0	1.0	0	-0.0544943985343	blockFiles/set_31/main_unc/leftBlue\GB_LB_2.xlsx
439	main_unc	True	1.0	788	0	6.0	6.0	n/a	0	None	n/a	0.0	n/a	0	-0.028136238083200003	blockFiles/set_31/main_unc/leftBlue\GB_LB_2.xlsx
440	main_unc	True	0.0	788	0	6.0	6.0	0.0	0	left	2.0	0.0	0.0	1	0.028878574930099998	blockFiles/set_31/main_unc/leftBlue\GB_LB_2.xlsx
441	main_unc	True	0.0	788	0	6.0	6.0	0.0	1	left	1.0	0.0	0.0	0	-0.054273381289099996	blockFiles/set_31/main_unc/leftBlue\GB_LB_2.xlsx
442	main_unc	True	0.0	788	0	6.0	6.0	0.0	1	left	2.0	0.0	1.0	0	-0.00800754804164	blockFiles/set_31/main_unc/leftBlue\GB_LB_2.xlsx
443	main_unc	True	0.0	788	0	6.0	6.0	0.0	0	left	2.0	1.0	0.0	1	0.0160629240237	blockFiles/set_31/main_unc/leftBlue\GB_LB_2.xlsx
444	main_unc	True	0.0	788	0	6.0	6.0	0.0	1	left	2.0	1.0	1.0	0	-0.028136238083200003	blockFiles/set_31/main_unc/leftBlue\GB_LB_2.xlsx
445	main_unc	True	0.0	788	0	7.0	7.0	1.0	0	right	2.0	1.0	1.0	0	-0.0159652237967	blockFiles/set_31/main_unc/leftBlue\GB_LB_4.xlsx
446	main_unc	True	1.0	788	0	7.0	7.0	1.0	1	right	n/a	0.0	n/a	1	0.0479512375593	blockFiles/set_31/main_unc/leftBlue\GB_LB_4.xlsx
447	main_unc	True	0.0	788	0	7.0	7.0	1.0	0	right	1.0	0.0	0.0	0	-0.028741703294199998	blockFiles/set_31/main_unc/leftBlue\GB_LB_4.xlsx
448	main_unc	True	0.0	788	0	7.0	7.0	1.0	0	right	2.0	0.0	1.0	0	-0.0647768219002	blockFiles/set_31/main_unc/leftBlue\GB_LB_4.xlsx
449	main_unc	True	0.0	788	0	7.0	7.0	1.0	0	right	2.0	1.0	1.0	0	-0.0530355175585	blockFiles/set_31/main_unc/leftBlue\GB_LB_4.xlsx
450	main_unc	True	0.0	788	0	7.0	7.0	1.0	0	right	1.0	0.0	0.0	0	-0.00510541608557	blockFiles/set_31/main_unc/leftBlue\GB_LB_4.xlsx
451	main_unc	True	0.0	788	0	7.0	7.0	0.0	1	left	1.0	0.0	0.0	0	-0.0659601834416	blockFiles/set_31/main_unc/leftBlue\GB_LB_4.xlsx
452	main_unc	True	0.0	788	0	7.0	7.0	0.0	1	left	2.0	1.0	1.0	0	-0.04569513168190001	blockFiles/set_31/main_unc/leftBlue\GB_LB_4.xlsx
453	main_unc	True	0.0	788	0	7.0	7.0	0.0	1	left	2.0	0.0	1.0	0	-0.005753948241469999	blockFiles/set_31/main_unc/leftBlue\GB_LB_4.xlsx
454	main_unc	True	0.0	788	0	7.0	7.0	0.0	0	left	2.0	0.0	0.0	1	0.0738257050328	blockFiles/set_31/main_unc/leftBlue\GB_LB_4.xlsx
455	main_unc	True	0.0	788	0	7.0	7.0	0.0	0	left	2.0	0.0	0.0	1	0.00342061089352	blockFiles/set_31/main_unc/leftBlue\GB_LB_4.xlsx
456	main_unc	True	0.0	788	0	7.0	7.0	0.0	1	left	2.0	1.0	1.0	0	-0.028321348317	blockFiles/set_31/main_unc/leftBlue\GB_LB_4.xlsx
457	main_unc	True	0.0	788	0	7.0	7.0	0.0	0	left	2.0	0.0	0.0	1	0.0704050184786	blockFiles/set_31/main_unc/leftBlue\GB_LB_4.xlsx
458	main_unc	True	0.0	788	0	7.0	7.0	0.0	0	left	1.0	1.0	1.0	1	0.027633269541000004	blockFiles/set_31/main_unc/leftBlue\GB_LB_4.xlsx
459	main_unc	True	0.0	788	0	7.0	7.0	0.0	1	left	1.0	1.0	0.0	0	-0.022990294545900004	blockFiles/set_31/main_unc/leftBlue\GB_LB_4.xlsx
460	main_unc	True	0.0	788	0	7.0	7.0	0.0	1	left	2.0	1.0	1.0	0	-0.012085646949700001	blockFiles/set_31/main_unc/leftBlue\GB_LB_4.xlsx
461	main_unc	True	0.0	788	0	7.0	7.0	0.0	1	left	1.0	0.0	0.0	0	-0.0331286656298	blockFiles/set_31/main_unc/leftBlue\GB_LB_4.xlsx
462	main_unc	True	1.0	788	0	7.0	7.0	n/a	0	None	n/a	0.0	n/a	0	-0.054405067395400006	blockFiles/set_31/main_unc/leftBlue\GB_LB_4.xlsx
463	main_unc	True	0.0	788	0	7.0	7.0	0.0	1	left	1.0	1.0	0.0	0	-0.0570187844895	blockFiles/set_31/main_unc/leftBlue\GB_LB_4.xlsx
464	main_unc	True	0.0	788	0	7.0	7.0	1.0	1	right	2.0	1.0	0.0	1	0.0383758789673	blockFiles/set_31/main_unc/leftBlue\GB_LB_4.xlsx
465	main_unc	True	0.0	788	0	7.0	7.0	1.0	1	right	2.0	0.0	0.0	1	0.0409333546273	blockFiles/set_31/main_unc/leftBlue\GB_LB_4.xlsx
466	main_unc	True	0.0	788	0	7.0	7.0	1.0	1	right	1.0	1.0	1.0	1	0.052820036672099994	blockFiles/set_31/main_unc/leftBlue\GB_LB_4.xlsx
467	main_unc	True	0.0	788	0	7.0	7.0	1.0	1	right	1.0	1.0	1.0	1	0.03547285789619999	blockFiles/set_31/main_unc/leftBlue\GB_LB_4.xlsx
468	main_unc	True	0.0	788	0	7.0	7.0	1.0	1	right	1.0	1.0	1.0	1	0.032656116168900004	blockFiles/set_31/main_unc/leftBlue\GB_LB_4.xlsx
469	main_unc	True	0.0	788	0	7.0	7.0	1.0	1	right	1.0	1.0	1.0	1	0.004971852712329999	blockFiles/set_31/main_unc/leftBlue\GB_LB_4.xlsx
470	main_unc	True	0.0	788	0	7.0	7.0	1.0	1	right	1.0	0.0	1.0	1	0.0479512375593	blockFiles/set_31/main_unc/leftBlue\GB_LB_4.xlsx
471	main_unc	True	0.0	788	0	7.0	7.0	n/a	0	None	n/a	0.0	n/a	0	-0.054405067395400006	blockFiles/set_31/main_unc/leftBlue\GB_LB_4.xlsx
472	main_unc	True	0.0	788	0	7.0	7.0	1.0	0	right	1.0	0.0	0.0	0	-0.054405067395400006	blockFiles/set_31/main_unc/leftBlue\GB_LB_4.xlsx
473	main_unc	True	0.0	788	0	8.0	8.0	0.0	1	left	1.0	1.0	1.0	0	-0.0713299136423	blockFiles/set_31/main_unc/rightBlue\GB_RB_3.xlsx
474	main_unc	True	0.0	788	0	8.0	8.0	1.0	1	right	2.0	1.0	1.0	1	0.000916466210037	blockFiles/set_31/main_unc/rightBlue\GB_RB_3.xlsx
475	main_unc	True	0.0	788	0	8.0	8.0	0.0	1	left	1.0	1.0	1.0	0	-0.07976463850589999	blockFiles/set_31/main_unc/rightBlue\GB_RB_3.xlsx
476	main_unc	True	0.0	788	0	8.0	8.0	1.0	1	right	2.0	1.0	1.0	1	0.055758178420400005	blockFiles/set_31/main_unc/rightBlue\GB_RB_3.xlsx
477	main_unc	True	0.0	788	0	8.0	8.0	0.0	0	left	1.0	0.0	0.0	1	0.00379402702674	blockFiles/set_31/main_unc/rightBlue\GB_RB_3.xlsx
478	main_unc	True	0.0	788	0	8.0	8.0	1.0	1	right	2.0	1.0	1.0	1	0.058203483782699995	blockFiles/set_31/main_unc/rightBlue\GB_RB_3.xlsx
479	main_unc	True	0.0	788	0	8.0	8.0	1.0	1	right	2.0	0.0	1.0	1	0.0433810964786	blockFiles/set_31/main_unc/rightBlue\GB_RB_3.xlsx
480	main_unc	True	0.0	788	0	8.0	8.0	0.0	1	left	1.0	1.0	1.0	0	-0.05357177637519999	blockFiles/set_31/main_unc/rightBlue\GB_RB_3.xlsx
481	main_unc	True	0.0	788	0	8.0	8.0	1.0	1	right	2.0	1.0	1.0	1	0.0375903337263	blockFiles/set_31/main_unc/rightBlue\GB_RB_3.xlsx
482	main_unc	True	0.0	788	0	8.0	8.0	1.0	1	right	2.0	0.0	1.0	1	0.0337849391066	blockFiles/set_31/main_unc/rightBlue\GB_RB_3.xlsx
483	main_unc	True	0.0	788	0	8.0	8.0	1.0	0	right	1.0	0.0	1.0	0	-0.015309279114	blockFiles/set_31/main_unc/rightBlue\GB_RB_3.xlsx
484	main_unc	True	1.0	788	0	8.0	8.0	n/a	0	None	n/a	0.0	n/a	0	-0.0521006343514	blockFiles/set_31/main_unc/rightBlue\GB_RB_3.xlsx
485	main_unc	True	1.0	788	0	8.0	8.0	n/a	0	None	n/a	0.0	n/a	0	-0.06367070507259999	blockFiles/set_31/main_unc/rightBlue\GB_RB_3.xlsx
486	main_unc	True	0.0	788	0	8.0	8.0	1.0	1	right	1.0	0.0	0.0	1	0.0723268211819	blockFiles/set_31/main_unc/rightBlue\GB_RB_3.xlsx
487	main_unc	True	0.0	788	0	8.0	8.0	1.0	0	right	1.0	1.0	1.0	0	-0.021563151944400002	blockFiles/set_31/main_unc/rightBlue\GB_RB_3.xlsx
488	main_unc	True	0.0	788	0	8.0	8.0	0.0	0	left	2.0	1.0	1.0	1	0.0395374884456	blockFiles/set_31/main_unc/rightBlue\GB_RB_3.xlsx
489	main_unc	True	0.0	788	0	8.0	8.0	0.0	0	left	2.0	1.0	1.0	1	0.023205758146900003	blockFiles/set_31/main_unc/rightBlue\GB_RB_3.xlsx
490	main_unc	True	0.0	788	0	8.0	8.0	0.0	1	left	1.0	1.0	1.0	0	-0.0472564820759	blockFiles/set_31/main_unc/rightBlue\GB_RB_3.xlsx
491	main_unc	True	1.0	788	0	8.0	8.0	0.0	1	left	n/a	0.0	n/a	0	-0.018632015381	blockFiles/set_31/main_unc/rightBlue\GB_RB_3.xlsx
492	main_unc	True	0.0	788	0	8.0	8.0	0.0	1	left	2.0	0.0	0.0	0	-0.0200791976601	blockFiles/set_31/main_unc/rightBlue\GB_RB_3.xlsx
493	main_unc	True	0.0	788	0	8.0	8.0	0.0	0	left	1.0	0.0	0.0	1	0.07791114775460001	blockFiles/set_31/main_unc/rightBlue\GB_RB_3.xlsx
494	main_unc	True	0.0	788	0	8.0	8.0	0.0	1	left	2.0	0.0	0.0	0	-0.0248051456921	blockFiles/set_31/main_unc/rightBlue\GB_RB_3.xlsx
495	main_unc	True	0.0	788	0	8.0	8.0	0.0	1	left	1.0	0.0	1.0	0	-0.050048677865399994	blockFiles/set_31/main_unc/rightBlue\GB_RB_3.xlsx
496	main_unc	True	0.0	788	0	8.0	8.0	1.0	0	right	1.0	1.0	1.0	0	-0.008410979565229999	blockFiles/set_31/main_unc/rightBlue\GB_RB_3.xlsx
497	main_unc	True	0.0	788	0	8.0	8.0	1.0	1	right	1.0	0.0	0.0	1	0.053275421783300005	blockFiles/set_31/main_unc/rightBlue\GB_RB_3.xlsx
498	main_unc	True	0.0	788	0	8.0	8.0	1.0	0	right	2.0	0.0	0.0	0	-0.0521006343514	blockFiles/set_31/main_unc/rightBlue\GB_RB_3.xlsx
499	main_unc	True	0.0	788	0	8.0	8.0	1.0	0	right	1.0	1.0	1.0	0	-0.06367070507259999	blockFiles/set_31/main_unc/rightBlue\GB_RB_3.xlsx
500	main_unc	True	0.0	788	0	8.0	8.0	1.0	0	right	1.0	0.0	1.0	0	-0.018632015381	blockFiles/set_31/main_unc/rightBlue\GB_RB_3.xlsx
501	main_unc	True	0.0	788	0	9.0	9.0	0.0	1	left	2.0	1.0	0.0	0	-0.0130199788325	blockFiles/set_31/main_unc/rightBlue\GB_RB_1.xlsx
502	main_unc	True	0.0	788	0	9.0	9.0	0.0	0	left	2.0	1.0	1.0	1	0.000187319852412	blockFiles/set_31/main_unc/rightBlue\GB_RB_1.xlsx
503	main_unc	True	0.0	788	0	9.0	9.0	1.0	1	right	1.0	0.0	0.0	1	0.059864437077199996	blockFiles/set_31/main_unc/rightBlue\GB_RB_1.xlsx
504	main_unc	True	0.0	788	0	9.0	9.0	0.0	1	left	2.0	0.0	0.0	0	-0.037252119258	blockFiles/set_31/main_unc/rightBlue\GB_RB_1.xlsx
505	main_unc	True	0.0	788	0	9.0	9.0	0.0	0	left	1.0	0.0	0.0	1	0.046463475581300005	blockFiles/set_31/main_unc/rightBlue\GB_RB_1.xlsx
506	main_unc	True	0.0	788	0	9.0	9.0	0.0	0	left	2.0	1.0	1.0	1	0.0211581235193	blockFiles/set_31/main_unc/rightBlue\GB_RB_1.xlsx
507	main_unc	True	0.0	788	0	9.0	9.0	0.0	1	left	1.0	1.0	1.0	0	-0.071829325445	blockFiles/set_31/main_unc/rightBlue\GB_RB_1.xlsx
508	main_unc	True	1.0	788	0	9.0	9.0	n/a	0	None	n/a	0.0	n/a	0	-0.023851044829899998	blockFiles/set_31/main_unc/rightBlue\GB_RB_1.xlsx
509	main_unc	True	0.0	788	0	9.0	9.0	0.0	1	left	2.0	0.0	0.0	0	-0.0043792869150600005	blockFiles/set_31/main_unc/rightBlue\GB_RB_1.xlsx
510	main_unc	True	1.0	788	0	9.0	9.0	n/a	0	None	n/a	0.0	n/a	1	0.06770030230280001	blockFiles/set_31/main_unc/rightBlue\GB_RB_1.xlsx
511	main_unc	True	0.0	788	0	9.0	9.0	1.0	0	right	1.0	1.0	1.0	0	-0.06683491887519999	blockFiles/set_31/main_unc/rightBlue\GB_RB_1.xlsx
512	main_unc	True	0.0	788	0	9.0	9.0	1.0	1	right	1.0	0.0	0.0	1	0.0288426105678	blockFiles/set_31/main_unc/rightBlue\GB_RB_1.xlsx
513	main_unc	True	0.0	788	0	9.0	9.0	0.0	0	left	1.0	1.0	0.0	1	0.0530129843019	blockFiles/set_31/main_unc/rightBlue\GB_RB_1.xlsx
514	main_unc	True	0.0	788	0	9.0	9.0	1.0	1	right	1.0	0.0	0.0	1	0.0344830738567	blockFiles/set_31/main_unc/rightBlue\GB_RB_1.xlsx
515	main_unc	True	0.0	788	0	9.0	9.0	0.0	1	left	1.0	0.0	1.0	0	-0.0165987365134	blockFiles/set_31/main_unc/rightBlue\GB_RB_1.xlsx
516	main_unc	True	0.0	788	0	9.0	9.0	0.0	1	left	2.0	1.0	0.0	0	-0.0036272946558899995	blockFiles/set_31/main_unc/rightBlue\GB_RB_1.xlsx
517	main_unc	True	0.0	788	0	9.0	9.0	1.0	1	right	1.0	0.0	0.0	1	0.0339992460981	blockFiles/set_31/main_unc/rightBlue\GB_RB_1.xlsx
518	main_unc	True	0.0	788	0	9.0	9.0	0.0	1	left	1.0	1.0	1.0	0	-0.0142150259204	blockFiles/set_31/main_unc/rightBlue\GB_RB_1.xlsx
519	main_unc	True	0.0	788	0	9.0	9.0	1.0	0	right	2.0	0.0	0.0	0	-0.0794306460209	blockFiles/set_31/main_unc/rightBlue\GB_RB_1.xlsx
520	main_unc	True	0.0	788	0	9.0	9.0	0.0	0	left	1.0	1.0	0.0	1	0.03984529851	blockFiles/set_31/main_unc/rightBlue\GB_RB_1.xlsx
521	main_unc	True	0.0	788	0	9.0	9.0	1.0	0	right	2.0	0.0	0.0	0	-0.0553288504481	blockFiles/set_31/main_unc/rightBlue\GB_RB_1.xlsx
522	main_unc	True	0.0	788	0	9.0	9.0	0.0	0	left	2.0	1.0	1.0	1	0.036213021744	blockFiles/set_31/main_unc/rightBlue\GB_RB_1.xlsx
523	main_unc	True	0.0	788	0	9.0	9.0	1.0	0	right	2.0	0.0	0.0	0	-0.029135851971800002	blockFiles/set_31/main_unc/rightBlue\GB_RB_1.xlsx
524	main_unc	True	0.0	788	0	9.0	9.0	1.0	1	right	1.0	0.0	0.0	1	0.024551009796599996	blockFiles/set_31/main_unc/rightBlue\GB_RB_1.xlsx
525	main_unc	True	0.0	788	0	9.0	9.0	1.0	1	right	1.0	1.0	0.0	1	0.0688024752215	blockFiles/set_31/main_unc/rightBlue\GB_RB_1.xlsx
526	main_unc	True	0.0	788	0	9.0	9.0	0.0	1	left	2.0	0.0	0.0	0	-0.023851044829899998	blockFiles/set_31/main_unc/rightBlue\GB_RB_1.xlsx
527	main_unc	True	0.0	788	0	9.0	9.0	0.0	0	left	2.0	1.0	1.0	1	0.06770030230280001	blockFiles/set_31/main_unc/rightBlue\GB_RB_1.xlsx
528	main_unc	True	0.0	788	0	10.0	10.0	0.0	1	left	2.0	1.0	1.0	0	-0.0327484179474	blockFiles/set_31/main_unc/leftBlue\GB_LB_5.xlsx
529	main_unc	True	0.0	788	0	10.0	10.0	1.0	0	right	1.0	0.0	0.0	0	-0.012907681353400001	blockFiles/set_31/main_unc/leftBlue\GB_LB_5.xlsx
530	main_unc	True	0.0	788	0	10.0	10.0	1.0	1	right	2.0	0.0	0.0	1	0.00872910410166	blockFiles/set_31/main_unc/leftBlue\GB_LB_5.xlsx
531	main_unc	True	0.0	788	0	10.0	10.0	1.0	1	right	1.0	1.0	1.0	1	0.05045453960080001	blockFiles/set_31/main_unc/leftBlue\GB_LB_5.xlsx
532	main_unc	True	0.0	788	0	10.0	10.0	0.0	1	left	2.0	0.0	1.0	0	-0.0527545655705	blockFiles/set_31/main_unc/leftBlue\GB_LB_5.xlsx
533	main_unc	True	0.0	788	0	10.0	10.0	1.0	0	right	1.0	0.0	0.0	0	-0.07595275923610001	blockFiles/set_31/main_unc/leftBlue\GB_LB_5.xlsx
534	main_unc	True	0.0	788	0	10.0	10.0	0.0	1	left	1.0	0.0	0.0	0	-0.029692879132900002	blockFiles/set_31/main_unc/leftBlue\GB_LB_5.xlsx
535	main_unc	True	0.0	788	0	10.0	10.0	1.0	0	right	2.0	0.0	1.0	0	-0.057748800814199995	blockFiles/set_31/main_unc/leftBlue\GB_LB_5.xlsx
536	main_unc	True	0.0	788	0	10.0	10.0	0.0	1	left	2.0	1.0	1.0	0	-0.028252173997499998	blockFiles/set_31/main_unc/leftBlue\GB_LB_5.xlsx
537	main_unc	True	0.0	788	0	10.0	10.0	1.0	1	right	1.0	1.0	1.0	1	0.013231463562700002	blockFiles/set_31/main_unc/leftBlue\GB_LB_5.xlsx
538	main_unc	True	0.0	788	0	10.0	10.0	0.0	0	left	1.0	1.0	1.0	1	0.0729315604828	blockFiles/set_31/main_unc/leftBlue\GB_LB_5.xlsx
539	main_unc	True	0.0	788	0	10.0	10.0	1.0	1	right	2.0	0.0	0.0	1	0.0027875907905399997	blockFiles/set_31/main_unc/leftBlue\GB_LB_5.xlsx
540	main_unc	True	0.0	788	0	10.0	10.0	0.0	0	left	1.0	1.0	1.0	1	0.0382455539145	blockFiles/set_31/main_unc/leftBlue\GB_LB_5.xlsx
541	main_unc	True	0.0	788	0	10.0	10.0	1.0	1	right	1.0	0.0	1.0	1	0.0357832718082	blockFiles/set_31/main_unc/leftBlue\GB_LB_5.xlsx
542	main_unc	True	0.0	788	0	10.0	10.0	0.0	0	left	1.0	1.0	1.0	1	0.0729638270475	blockFiles/set_31/main_unc/leftBlue\GB_LB_5.xlsx
543	main_unc	True	0.0	788	0	10.0	10.0	0.0	1	left	1.0	0.0	0.0	0	-0.013518363032500001	blockFiles/set_31/main_unc/leftBlue\GB_LB_5.xlsx
544	main_unc	True	0.0	788	0	10.0	10.0	0.0	1	left	2.0	1.0	1.0	0	-0.053260522279900004	blockFiles/set_31/main_unc/leftBlue\GB_LB_5.xlsx
545	main_unc	True	0.0	788	0	10.0	10.0	0.0	1	left	1.0	0.0	0.0	0	-0.0661831202544	blockFiles/set_31/main_unc/leftBlue\GB_LB_5.xlsx
546	main_unc	True	0.0	788	0	10.0	10.0	0.0	0	left	1.0	1.0	1.0	1	0.0161162954569	blockFiles/set_31/main_unc/leftBlue\GB_LB_5.xlsx
547	main_unc	True	0.0	788	0	10.0	10.0	0.0	1	left	2.0	1.0	1.0	0	-0.07708919538180001	blockFiles/set_31/main_unc/leftBlue\GB_LB_5.xlsx
548	main_unc	True	0.0	788	0	10.0	10.0	0.0	0	left	1.0	1.0	1.0	1	0.0474807053991	blockFiles/set_31/main_unc/leftBlue\GB_LB_5.xlsx
549	main_unc	True	0.0	788	0	10.0	10.0	0.0	0	left	2.0	0.0	0.0	1	0.047047017663699994	blockFiles/set_31/main_unc/leftBlue\GB_LB_5.xlsx
550	main_unc	True	0.0	788	0	10.0	10.0	1.0	0	right	2.0	0.0	1.0	0	-0.0160817393661	blockFiles/set_31/main_unc/leftBlue\GB_LB_5.xlsx
551	main_unc	True	0.0	788	0	10.0	10.0	0.0	1	left	1.0	0.0	0.0	0	-0.0440605487116	blockFiles/set_31/main_unc/leftBlue\GB_LB_5.xlsx
552	main_unc	True	0.0	788	0	10.0	10.0	0.0	0	left	2.0	1.0	0.0	1	0.0641950582154	blockFiles/set_31/main_unc/leftBlue\GB_LB_5.xlsx
553	main_unc	True	0.0	788	0	11.0	11.0	1.0	1	right	1.0	1.0	0.0	1	0.0574846092612	blockFiles/set_31/main_unc/rightBlue\GB_RB_4.xlsx
554	main_unc	True	0.0	788	0	11.0	11.0	1.0	0	right	2.0	0.0	0.0	0	-0.00224500091746	blockFiles/set_31/main_unc/rightBlue\GB_RB_4.xlsx
555	main_unc	True	0.0	788	0	11.0	11.0	0.0	0	left	2.0	1.0	1.0	1	0.0689473518915	blockFiles/set_31/main_unc/rightBlue\GB_RB_4.xlsx
556	main_unc	True	0.0	788	0	11.0	11.0	0.0	0	left	1.0	1.0	0.0	1	0.06468486098569999	blockFiles/set_31/main_unc/rightBlue\GB_RB_4.xlsx
557	main_unc	True	0.0	788	0	11.0	11.0	0.0	1	left	2.0	1.0	0.0	0	-0.038281199075300004	blockFiles/set_31/main_unc/rightBlue\GB_RB_4.xlsx
558	main_unc	True	0.0	788	0	11.0	11.0	0.0	1	left	2.0	0.0	0.0	0	-0.034208033699500005	blockFiles/set_31/main_unc/rightBlue\GB_RB_4.xlsx
559	main_unc	True	0.0	788	0	11.0	11.0	1.0	0	right	2.0	0.0	0.0	0	-0.0071565166302	blockFiles/set_31/main_unc/rightBlue\GB_RB_4.xlsx
560	main_unc	True	0.0	788	0	11.0	11.0	0.0	1	left	1.0	1.0	1.0	0	-0.029868560005	blockFiles/set_31/main_unc/rightBlue\GB_RB_4.xlsx
561	main_unc	True	0.0	788	0	11.0	11.0	1.0	1	right	2.0	1.0	1.0	1	0.0573319082893	blockFiles/set_31/main_unc/rightBlue\GB_RB_4.xlsx
562	main_unc	True	0.0	788	0	11.0	11.0	0.0	0	left	1.0	0.0	0.0	1	0.048935809768699996	blockFiles/set_31/main_unc/rightBlue\GB_RB_4.xlsx
563	main_unc	True	0.0	788	0	11.0	11.0	1.0	1	right	1.0	0.0	0.0	1	0.0741317019984	blockFiles/set_31/main_unc/rightBlue\GB_RB_4.xlsx
564	main_unc	True	0.0	788	0	11.0	11.0	0.0	0	left	2.0	1.0	1.0	1	0.0562778951228	blockFiles/set_31/main_unc/rightBlue\GB_RB_4.xlsx
565	main_unc	True	0.0	788	0	11.0	11.0	1.0	1	right	2.0	1.0	1.0	1	0.0629348810017	blockFiles/set_31/main_unc/rightBlue\GB_RB_4.xlsx
566	main_unc	True	0.0	788	0	11.0	11.0	0.0	1	left	2.0	0.0	0.0	0	-0.04201226240019999	blockFiles/set_31/main_unc/rightBlue\GB_RB_4.xlsx
567	main_unc	True	0.0	788	0	11.0	11.0	1.0	1	right	1.0	0.0	0.0	1	0.0171941351146	blockFiles/set_31/main_unc/rightBlue\GB_RB_4.xlsx
568	main_unc	True	0.0	788	0	11.0	11.0	0.0	0	left	2.0	1.0	1.0	1	0.0308082697727	blockFiles/set_31/main_unc/rightBlue\GB_RB_4.xlsx
569	main_unc	True	0.0	788	0	11.0	11.0	1.0	1	right	1.0	0.0	0.0	1	0.0286380993389	blockFiles/set_31/main_unc/rightBlue\GB_RB_4.xlsx
570	main_unc	True	0.0	788	0	11.0	11.0	0.0	1	left	1.0	1.0	1.0	0	-0.0504050159827	blockFiles/set_31/main_unc/rightBlue\GB_RB_4.xlsx
571	main_unc	True	0.0	788	0	11.0	11.0	1.0	0	right	2.0	0.0	0.0	0	-0.0599211537279	blockFiles/set_31/main_unc/rightBlue\GB_RB_4.xlsx
572	main_unc	True	0.0	788	0	11.0	11.0	0.0	0	left	1.0	1.0	0.0	1	0.011617156919100001	blockFiles/set_31/main_unc/rightBlue\GB_RB_4.xlsx
573	main_unc	True	0.0	788	0	11.0	11.0	1.0	1	right	2.0	1.0	1.0	1	0.047176749818000005	blockFiles/set_31/main_unc/rightBlue\GB_RB_4.xlsx
574	main_unc	True	0.0	788	0	11.0	11.0	1.0	0	right	1.0	1.0	1.0	0	-0.0436337213963	blockFiles/set_31/main_unc/rightBlue\GB_RB_4.xlsx
575	main_unc	True	0.0	788	0	11.0	11.0	1.0	0	right	1.0	1.0	1.0	0	-0.07826608557249999	blockFiles/set_31/main_unc/rightBlue\GB_RB_4.xlsx
576	main_unc	True	0.0	788	0	11.0	11.0	0.0	0	left	1.0	1.0	0.0	1	0.0365953932889	blockFiles/set_31/main_unc/rightBlue\GB_RB_4.xlsx
577	main_unc	True	0.0	788	0	11.0	11.0	0.0	1	left	2.0	0.0	0.0	0	-0.0436884998158	blockFiles/set_31/main_unc/rightBlue\GB_RB_4.xlsx
