	trial_type	complete	missIndex	participant	id	blockNumber	b_t	d_t	decision1.corr	decision1.keys	a_t	r_t	decision2.corr	s_t	u_t	block_file
0	main_safe	True	0.0	122	0	0.0	0.0	1.0	1	right	2.0	1.0	1.0	1	0.08	blockFiles/set_33/main_safe/rightBlue\GB_RB_2.xlsx
1	main_safe	True	0.0	122	0	0.0	0.0	0.0	1	left	1.0	1.0	1.0	0	-0.08	blockFiles/set_33/main_safe/rightBlue\GB_RB_2.xlsx
2	main_safe	True	0.0	122	0	0.0	0.0	0.0	1	left	1.0	1.0	1.0	0	-0.08	blockFiles/set_33/main_safe/rightBlue\GB_RB_2.xlsx
3	main_safe	True	0.0	122	0	0.0	0.0	0.0	1	left	1.0	1.0	1.0	0	-0.08	blockFiles/set_33/main_safe/rightBlue\GB_RB_2.xlsx
4	main_safe	True	0.0	122	0	0.0	0.0	0.0	1	left	1.0	1.0	1.0	0	-0.08	blockFiles/set_33/main_safe/rightBlue\GB_RB_2.xlsx
5	main_safe	True	0.0	122	0	0.0	0.0	1.0	1	right	2.0	0.0	1.0	1	0.08	blockFiles/set_33/main_safe/rightBlue\GB_RB_2.xlsx
6	main_safe	True	0.0	122	0	0.0	0.0	1.0	1	right	2.0	1.0	1.0	1	0.08	blockFiles/set_33/main_safe/rightBlue\GB_RB_2.xlsx
7	main_safe	True	0.0	122	0	0.0	0.0	0.0	1	left	1.0	1.0	1.0	0	-0.08	blockFiles/set_33/main_safe/rightBlue\GB_RB_2.xlsx
8	main_safe	True	0.0	122	0	0.0	0.0	0.0	1	left	1.0	1.0	1.0	0	-0.08	blockFiles/set_33/main_safe/rightBlue\GB_RB_2.xlsx
9	main_safe	True	0.0	122	0	0.0	0.0	0.0	1	left	1.0	1.0	1.0	0	-0.08	blockFiles/set_33/main_safe/rightBlue\GB_RB_2.xlsx
10	main_safe	True	0.0	122	0	0.0	0.0	1.0	1	right	2.0	1.0	1.0	1	0.08	blockFiles/set_33/main_safe/rightBlue\GB_RB_2.xlsx
11	main_safe	True	0.0	122	0	0.0	0.0	0.0	1	left	1.0	1.0	1.0	0	-0.08	blockFiles/set_33/main_safe/rightBlue\GB_RB_2.xlsx
12	main_safe	True	0.0	122	0	0.0	0.0	1.0	1	right	2.0	1.0	1.0	1	0.08	blockFiles/set_33/main_safe/rightBlue\GB_RB_2.xlsx
13	main_safe	True	0.0	122	0	0.0	0.0	1.0	1	right	2.0	0.0	1.0	1	0.08	blockFiles/set_33/main_safe/rightBlue\GB_RB_2.xlsx
14	main_safe	True	0.0	122	0	0.0	0.0	1.0	1	right	2.0	1.0	1.0	1	0.08	blockFiles/set_33/main_safe/rightBlue\GB_RB_2.xlsx
15	main_safe	True	0.0	122	0	0.0	0.0	1.0	1	right	2.0	1.0	1.0	1	0.08	blockFiles/set_33/main_safe/rightBlue\GB_RB_2.xlsx
16	main_safe	True	0.0	122	0	0.0	0.0	1.0	1	right	2.0	1.0	1.0	1	0.08	blockFiles/set_33/main_safe/rightBlue\GB_RB_2.xlsx
17	main_safe	True	0.0	122	0	0.0	0.0	0.0	1	left	1.0	1.0	1.0	0	-0.08	blockFiles/set_33/main_safe/rightBlue\GB_RB_2.xlsx
18	main_safe	True	0.0	122	0	0.0	0.0	1.0	1	right	2.0	1.0	1.0	1	0.08	blockFiles/set_33/main_safe/rightBlue\GB_RB_2.xlsx
19	main_safe	True	0.0	122	0	0.0	0.0	1.0	1	right	2.0	1.0	1.0	1	0.08	blockFiles/set_33/main_safe/rightBlue\GB_RB_2.xlsx
20	main_safe	True	0.0	122	0	0.0	0.0	0.0	1	left	1.0	1.0	1.0	0	-0.08	blockFiles/set_33/main_safe/rightBlue\GB_RB_2.xlsx
21	main_safe	True	0.0	122	0	0.0	0.0	1.0	1	right	2.0	1.0	1.0	1	0.08	blockFiles/set_33/main_safe/rightBlue\GB_RB_2.xlsx
22	main_safe	True	0.0	122	0	0.0	0.0	0.0	1	left	1.0	0.0	1.0	0	-0.08	blockFiles/set_33/main_safe/rightBlue\GB_RB_2.xlsx
23	main_safe	True	0.0	122	0	0.0	0.0	0.0	1	left	1.0	1.0	1.0	0	-0.08	blockFiles/set_33/main_safe/rightBlue\GB_RB_2.xlsx
24	main_safe	True	0.0	122	0	0.0	0.0	0.0	1	left	1.0	0.0	1.0	0	-0.08	blockFiles/set_33/main_safe/rightBlue\GB_RB_2.xlsx
25	main_safe	True	0.0	122	0	1.0	1.0	0.0	1	left	1.0	1.0	1.0	0	-0.08	blockFiles/set_33/main_safe/rightBlue\GB_RB_3.xlsx
26	main_safe	True	0.0	122	0	1.0	1.0	0.0	1	left	1.0	1.0	1.0	0	-0.08	blockFiles/set_33/main_safe/rightBlue\GB_RB_3.xlsx
27	main_safe	True	0.0	122	0	1.0	1.0	1.0	1	right	2.0	0.0	1.0	1	0.08	blockFiles/set_33/main_safe/rightBlue\GB_RB_3.xlsx
28	main_safe	True	0.0	122	0	1.0	1.0	1.0	1	right	2.0	1.0	1.0	1	0.08	blockFiles/set_33/main_safe/rightBlue\GB_RB_3.xlsx
29	main_safe	True	0.0	122	0	1.0	1.0	0.0	1	left	1.0	1.0	1.0	0	-0.08	blockFiles/set_33/main_safe/rightBlue\GB_RB_3.xlsx
30	main_safe	True	0.0	122	0	1.0	1.0	0.0	1	left	1.0	1.0	1.0	0	-0.08	blockFiles/set_33/main_safe/rightBlue\GB_RB_3.xlsx
31	main_safe	True	0.0	122	0	1.0	1.0	0.0	1	left	1.0	1.0	1.0	0	-0.08	blockFiles/set_33/main_safe/rightBlue\GB_RB_3.xlsx
32	main_safe	True	0.0	122	0	1.0	1.0	1.0	1	right	2.0	1.0	1.0	1	0.08	blockFiles/set_33/main_safe/rightBlue\GB_RB_3.xlsx
33	main_safe	True	0.0	122	0	1.0	1.0	0.0	1	left	1.0	1.0	1.0	0	-0.08	blockFiles/set_33/main_safe/rightBlue\GB_RB_3.xlsx
34	main_safe	True	0.0	122	0	1.0	1.0	1.0	1	right	2.0	0.0	1.0	1	0.08	blockFiles/set_33/main_safe/rightBlue\GB_RB_3.xlsx
35	main_safe	True	0.0	122	0	1.0	1.0	1.0	1	right	2.0	1.0	1.0	1	0.08	blockFiles/set_33/main_safe/rightBlue\GB_RB_3.xlsx
36	main_safe	True	0.0	122	0	1.0	1.0	0.0	1	left	1.0	1.0	1.0	0	-0.08	blockFiles/set_33/main_safe/rightBlue\GB_RB_3.xlsx
37	main_safe	True	0.0	122	0	1.0	1.0	1.0	1	right	2.0	1.0	1.0	1	0.08	blockFiles/set_33/main_safe/rightBlue\GB_RB_3.xlsx
38	main_safe	True	0.0	122	0	1.0	1.0	0.0	1	left	1.0	0.0	1.0	0	-0.08	blockFiles/set_33/main_safe/rightBlue\GB_RB_3.xlsx
39	main_safe	True	0.0	122	0	1.0	1.0	1.0	1	right	2.0	0.0	1.0	1	0.08	blockFiles/set_33/main_safe/rightBlue\GB_RB_3.xlsx
40	main_safe	True	0.0	122	0	1.0	1.0	1.0	1	right	2.0	1.0	1.0	1	0.08	blockFiles/set_33/main_safe/rightBlue\GB_RB_3.xlsx
41	main_safe	True	0.0	122	0	1.0	1.0	0.0	1	left	1.0	1.0	1.0	0	-0.08	blockFiles/set_33/main_safe/rightBlue\GB_RB_3.xlsx
42	main_safe	True	0.0	122	0	1.0	1.0	1.0	1	right	2.0	1.0	1.0	1	0.08	blockFiles/set_33/main_safe/rightBlue\GB_RB_3.xlsx
43	main_safe	True	0.0	122	0	1.0	1.0	0.0	1	left	1.0	0.0	1.0	0	-0.08	blockFiles/set_33/main_safe/rightBlue\GB_RB_3.xlsx
44	main_safe	True	0.0	122	0	1.0	1.0	0.0	1	left	1.0	1.0	1.0	0	-0.08	blockFiles/set_33/main_safe/rightBlue\GB_RB_3.xlsx
45	main_safe	True	0.0	122	0	1.0	1.0	0.0	1	left	1.0	1.0	1.0	0	-0.08	blockFiles/set_33/main_safe/rightBlue\GB_RB_3.xlsx
46	main_safe	True	0.0	122	0	1.0	1.0	1.0	1	right	2.0	1.0	1.0	1	0.08	blockFiles/set_33/main_safe/rightBlue\GB_RB_3.xlsx
47	main_safe	True	0.0	122	0	1.0	1.0	1.0	1	right	2.0	0.0	1.0	1	0.08	blockFiles/set_33/main_safe/rightBlue\GB_RB_3.xlsx
48	main_safe	True	0.0	122	0	1.0	1.0	1.0	1	right	2.0	1.0	1.0	1	0.08	blockFiles/set_33/main_safe/rightBlue\GB_RB_3.xlsx
49	main_safe	True	0.0	122	0	1.0	1.0	0.0	1	left	1.0	1.0	1.0	0	-0.08	blockFiles/set_33/main_safe/rightBlue\GB_RB_3.xlsx
50	main_safe	True	0.0	122	0	2.0	2.0	0.0	1	left	1.0	0.0	0.0	0	-0.08	blockFiles/set_33/main_safe/leftBlue\GB_LB_3.xlsx
51	main_safe	True	0.0	122	0	2.0	2.0	0.0	1	left	1.0	0.0	0.0	0	-0.08	blockFiles/set_33/main_safe/leftBlue\GB_LB_3.xlsx
52	main_safe	True	0.0	122	0	2.0	2.0	1.0	1	right	1.0	1.0	1.0	1	0.08	blockFiles/set_33/main_safe/leftBlue\GB_LB_3.xlsx
53	main_safe	True	0.0	122	0	2.0	2.0	0.0	1	left	2.0	1.0	1.0	0	-0.08	blockFiles/set_33/main_safe/leftBlue\GB_LB_3.xlsx
54	main_safe	True	0.0	122	0	2.0	2.0	0.0	1	left	2.0	1.0	1.0	0	-0.08	blockFiles/set_33/main_safe/leftBlue\GB_LB_3.xlsx
55	main_safe	True	0.0	122	0	2.0	2.0	1.0	1	right	1.0	0.0	1.0	1	0.08	blockFiles/set_33/main_safe/leftBlue\GB_LB_3.xlsx
56	main_safe	True	0.0	122	0	2.0	2.0	0.0	1	left	2.0	0.0	1.0	0	-0.08	blockFiles/set_33/main_safe/leftBlue\GB_LB_3.xlsx
57	main_safe	True	0.0	122	0	2.0	2.0	1.0	1	right	1.0	1.0	1.0	1	0.08	blockFiles/set_33/main_safe/leftBlue\GB_LB_3.xlsx
58	main_safe	True	0.0	122	0	2.0	2.0	0.0	1	left	2.0	1.0	1.0	0	-0.08	blockFiles/set_33/main_safe/leftBlue\GB_LB_3.xlsx
59	main_safe	True	0.0	122	0	2.0	2.0	1.0	1	right	1.0	0.0	1.0	1	0.08	blockFiles/set_33/main_safe/leftBlue\GB_LB_3.xlsx
60	main_safe	True	0.0	122	0	2.0	2.0	0.0	1	left	2.0	1.0	1.0	0	-0.08	blockFiles/set_33/main_safe/leftBlue\GB_LB_3.xlsx
61	main_safe	True	0.0	122	0	2.0	2.0	0.0	1	left	2.0	1.0	1.0	0	-0.08	blockFiles/set_33/main_safe/leftBlue\GB_LB_3.xlsx
62	main_safe	True	0.0	122	0	2.0	2.0	1.0	1	right	1.0	1.0	1.0	1	0.08	blockFiles/set_33/main_safe/leftBlue\GB_LB_3.xlsx
63	main_safe	True	0.0	122	0	2.0	2.0	1.0	1	right	1.0	1.0	1.0	1	0.08	blockFiles/set_33/main_safe/leftBlue\GB_LB_3.xlsx
64	main_safe	True	0.0	122	0	2.0	2.0	1.0	1	right	1.0	1.0	1.0	1	0.08	blockFiles/set_33/main_safe/leftBlue\GB_LB_3.xlsx
65	main_safe	True	0.0	122	0	2.0	2.0	0.0	1	left	2.0	1.0	1.0	0	-0.08	blockFiles/set_33/main_safe/leftBlue\GB_LB_3.xlsx
66	main_safe	True	0.0	122	0	2.0	2.0	1.0	1	right	1.0	1.0	1.0	1	0.08	blockFiles/set_33/main_safe/leftBlue\GB_LB_3.xlsx
67	main_safe	True	0.0	122	0	2.0	2.0	0.0	1	left	2.0	1.0	1.0	0	-0.08	blockFiles/set_33/main_safe/leftBlue\GB_LB_3.xlsx
68	main_safe	True	0.0	122	0	2.0	2.0	0.0	1	left	2.0	0.0	1.0	0	-0.08	blockFiles/set_33/main_safe/leftBlue\GB_LB_3.xlsx
69	main_safe	True	0.0	122	0	2.0	2.0	1.0	1	right	1.0	1.0	1.0	1	0.08	blockFiles/set_33/main_safe/leftBlue\GB_LB_3.xlsx
70	main_safe	True	0.0	122	0	2.0	2.0	1.0	1	right	1.0	1.0	1.0	1	0.08	blockFiles/set_33/main_safe/leftBlue\GB_LB_3.xlsx
71	main_safe	True	0.0	122	0	2.0	2.0	1.0	1	right	1.0	1.0	1.0	1	0.08	blockFiles/set_33/main_safe/leftBlue\GB_LB_3.xlsx
72	main_safe	True	0.0	122	0	2.0	2.0	1.0	1	right	1.0	1.0	1.0	1	0.08	blockFiles/set_33/main_safe/leftBlue\GB_LB_3.xlsx
73	main_safe	True	0.0	122	0	2.0	2.0	1.0	1	right	1.0	1.0	1.0	1	0.08	blockFiles/set_33/main_safe/leftBlue\GB_LB_3.xlsx
74	main_safe	True	0.0	122	0	2.0	2.0	1.0	1	right	1.0	0.0	1.0	1	0.08	blockFiles/set_33/main_safe/leftBlue\GB_LB_3.xlsx
75	main_safe	True	0.0	122	0	3.0	3.0	0.0	1	left	1.0	1.0	0.0	0	-0.08	blockFiles/set_33/main_safe/leftBlue\GB_LB_2.xlsx
76	main_safe	True	0.0	122	0	3.0	3.0	0.0	1	left	1.0	0.0	0.0	0	-0.08	blockFiles/set_33/main_safe/leftBlue\GB_LB_2.xlsx
77	main_safe	True	0.0	122	0	3.0	3.0	0.0	1	left	1.0	0.0	0.0	0	-0.08	blockFiles/set_33/main_safe/leftBlue\GB_LB_2.xlsx
78	main_safe	True	0.0	122	0	3.0	3.0	0.0	1	left	2.0	1.0	1.0	0	-0.08	blockFiles/set_33/main_safe/leftBlue\GB_LB_2.xlsx
79	main_safe	True	0.0	122	0	3.0	3.0	1.0	1	right	1.0	1.0	1.0	1	0.08	blockFiles/set_33/main_safe/leftBlue\GB_LB_2.xlsx
80	main_safe	True	0.0	122	0	3.0	3.0	1.0	1	right	1.0	1.0	1.0	1	0.08	blockFiles/set_33/main_safe/leftBlue\GB_LB_2.xlsx
81	main_safe	True	0.0	122	0	3.0	3.0	1.0	1	right	1.0	1.0	1.0	1	0.08	blockFiles/set_33/main_safe/leftBlue\GB_LB_2.xlsx
82	main_safe	True	0.0	122	0	3.0	3.0	0.0	1	left	2.0	0.0	1.0	0	-0.08	blockFiles/set_33/main_safe/leftBlue\GB_LB_2.xlsx
83	main_safe	True	0.0	122	0	3.0	3.0	1.0	1	right	1.0	1.0	1.0	1	0.08	blockFiles/set_33/main_safe/leftBlue\GB_LB_2.xlsx
84	main_safe	True	0.0	122	0	3.0	3.0	0.0	1	left	2.0	1.0	1.0	0	-0.08	blockFiles/set_33/main_safe/leftBlue\GB_LB_2.xlsx
85	main_safe	True	0.0	122	0	3.0	3.0	0.0	1	left	2.0	0.0	1.0	0	-0.08	blockFiles/set_33/main_safe/leftBlue\GB_LB_2.xlsx
86	main_safe	True	0.0	122	0	3.0	3.0	1.0	1	right	1.0	1.0	1.0	1	0.08	blockFiles/set_33/main_safe/leftBlue\GB_LB_2.xlsx
87	main_safe	True	0.0	122	0	3.0	3.0	0.0	1	left	2.0	1.0	1.0	0	-0.08	blockFiles/set_33/main_safe/leftBlue\GB_LB_2.xlsx
88	main_safe	True	0.0	122	0	3.0	3.0	1.0	1	right	1.0	1.0	1.0	1	0.08	blockFiles/set_33/main_safe/leftBlue\GB_LB_2.xlsx
89	main_safe	True	0.0	122	0	3.0	3.0	1.0	1	right	1.0	0.0	1.0	1	0.08	blockFiles/set_33/main_safe/leftBlue\GB_LB_2.xlsx
90	main_safe	True	0.0	122	0	3.0	3.0	1.0	1	right	1.0	1.0	1.0	1	0.08	blockFiles/set_33/main_safe/leftBlue\GB_LB_2.xlsx
91	main_safe	True	0.0	122	0	3.0	3.0	1.0	1	right	1.0	1.0	1.0	1	0.08	blockFiles/set_33/main_safe/leftBlue\GB_LB_2.xlsx
92	main_safe	True	0.0	122	0	3.0	3.0	0.0	1	left	2.0	1.0	1.0	0	-0.08	blockFiles/set_33/main_safe/leftBlue\GB_LB_2.xlsx
93	main_safe	True	1.0	122	0	3.0	3.0	n/a	0	None	n/a	0.0	n/a	0	-0.08	blockFiles/set_33/main_safe/leftBlue\GB_LB_2.xlsx
94	main_safe	True	0.0	122	0	3.0	3.0	1.0	1	right	1.0	1.0	1.0	1	0.08	blockFiles/set_33/main_safe/leftBlue\GB_LB_2.xlsx
95	main_safe	True	0.0	122	0	3.0	3.0	0.0	1	left	2.0	1.0	1.0	0	-0.08	blockFiles/set_33/main_safe/leftBlue\GB_LB_2.xlsx
96	main_safe	True	0.0	122	0	3.0	3.0	1.0	1	right	1.0	1.0	1.0	1	0.08	blockFiles/set_33/main_safe/leftBlue\GB_LB_2.xlsx
97	main_safe	True	0.0	122	0	3.0	3.0	0.0	1	left	2.0	0.0	1.0	0	-0.08	blockFiles/set_33/main_safe/leftBlue\GB_LB_2.xlsx
98	main_safe	True	0.0	122	0	3.0	3.0	1.0	1	right	1.0	1.0	1.0	1	0.08	blockFiles/set_33/main_safe/leftBlue\GB_LB_2.xlsx
99	main_safe	True	0.0	122	0	3.0	3.0	1.0	1	right	1.0	1.0	1.0	1	0.08	blockFiles/set_33/main_safe/leftBlue\GB_LB_2.xlsx
100	main_safe	True	0.0	122	0	3.0	3.0	0.0	1	left	2.0	1.0	1.0	0	-0.08	blockFiles/set_33/main_safe/leftBlue\GB_LB_2.xlsx
101	main_safe	True	0.0	122	0	4.0	4.0	1.0	1	right	1.0	1.0	1.0	1	0.08	blockFiles/set_33/main_safe/leftBlue\GB_LB_1.xlsx
102	main_safe	True	0.0	122	0	4.0	4.0	1.0	1	right	1.0	1.0	1.0	1	0.08	blockFiles/set_33/main_safe/leftBlue\GB_LB_1.xlsx
103	main_safe	True	0.0	122	0	4.0	4.0	0.0	1	left	2.0	1.0	1.0	0	-0.08	blockFiles/set_33/main_safe/leftBlue\GB_LB_1.xlsx
104	main_safe	True	0.0	122	0	4.0	4.0	0.0	1	left	2.0	1.0	1.0	0	-0.08	blockFiles/set_33/main_safe/leftBlue\GB_LB_1.xlsx
105	main_safe	True	0.0	122	0	4.0	4.0	0.0	1	left	2.0	1.0	1.0	0	-0.08	blockFiles/set_33/main_safe/leftBlue\GB_LB_1.xlsx
106	main_safe	True	0.0	122	0	4.0	4.0	1.0	1	right	1.0	1.0	1.0	1	0.08	blockFiles/set_33/main_safe/leftBlue\GB_LB_1.xlsx
107	main_safe	True	0.0	122	0	4.0	4.0	0.0	1	left	2.0	1.0	1.0	0	-0.08	blockFiles/set_33/main_safe/leftBlue\GB_LB_1.xlsx
108	main_safe	True	0.0	122	0	4.0	4.0	0.0	1	left	2.0	1.0	1.0	0	-0.08	blockFiles/set_33/main_safe/leftBlue\GB_LB_1.xlsx
109	main_safe	True	0.0	122	0	4.0	4.0	1.0	1	right	1.0	0.0	1.0	1	0.08	blockFiles/set_33/main_safe/leftBlue\GB_LB_1.xlsx
110	main_safe	True	0.0	122	0	4.0	4.0	1.0	1	right	1.0	1.0	1.0	1	0.08	blockFiles/set_33/main_safe/leftBlue\GB_LB_1.xlsx
111	main_safe	True	0.0	122	0	4.0	4.0	0.0	1	left	2.0	1.0	1.0	0	-0.08	blockFiles/set_33/main_safe/leftBlue\GB_LB_1.xlsx
112	main_safe	True	0.0	122	0	4.0	4.0	0.0	1	left	2.0	0.0	1.0	0	-0.08	blockFiles/set_33/main_safe/leftBlue\GB_LB_1.xlsx
113	main_safe	True	0.0	122	0	4.0	4.0	0.0	1	left	2.0	1.0	1.0	0	-0.08	blockFiles/set_33/main_safe/leftBlue\GB_LB_1.xlsx
114	main_safe	True	0.0	122	0	4.0	4.0	1.0	1	right	1.0	1.0	1.0	1	0.08	blockFiles/set_33/main_safe/leftBlue\GB_LB_1.xlsx
115	main_safe	True	1.0	122	0	4.0	4.0	0.0	1	left	n/a	0.0	n/a	0	-0.08	blockFiles/set_33/main_safe/leftBlue\GB_LB_1.xlsx
116	main_safe	True	0.0	122	0	4.0	4.0	0.0	1	left	2.0	1.0	1.0	0	-0.08	blockFiles/set_33/main_safe/leftBlue\GB_LB_1.xlsx
117	main_safe	True	0.0	122	0	4.0	4.0	1.0	1	right	1.0	1.0	1.0	1	0.08	blockFiles/set_33/main_safe/leftBlue\GB_LB_1.xlsx
118	main_safe	True	0.0	122	0	4.0	4.0	1.0	1	right	1.0	0.0	1.0	1	0.08	blockFiles/set_33/main_safe/leftBlue\GB_LB_1.xlsx
119	main_safe	True	0.0	122	0	4.0	4.0	0.0	1	left	2.0	1.0	1.0	0	-0.08	blockFiles/set_33/main_safe/leftBlue\GB_LB_1.xlsx
120	main_safe	True	0.0	122	0	4.0	4.0	1.0	1	right	1.0	0.0	1.0	1	0.08	blockFiles/set_33/main_safe/leftBlue\GB_LB_1.xlsx
121	main_safe	True	0.0	122	0	4.0	4.0	1.0	1	right	1.0	1.0	1.0	1	0.08	blockFiles/set_33/main_safe/leftBlue\GB_LB_1.xlsx
122	main_safe	True	0.0	122	0	4.0	4.0	1.0	1	right	1.0	1.0	1.0	1	0.08	blockFiles/set_33/main_safe/leftBlue\GB_LB_1.xlsx
123	main_safe	True	0.0	122	0	4.0	4.0	1.0	1	right	1.0	1.0	1.0	1	0.08	blockFiles/set_33/main_safe/leftBlue\GB_LB_1.xlsx
124	main_safe	True	0.0	122	0	4.0	4.0	1.0	1	right	1.0	0.0	1.0	1	0.08	blockFiles/set_33/main_safe/leftBlue\GB_LB_1.xlsx
125	main_safe	True	0.0	122	0	4.0	4.0	0.0	1	left	2.0	1.0	1.0	0	-0.08	blockFiles/set_33/main_safe/leftBlue\GB_LB_1.xlsx
126	main_safe	True	0.0	122	0	4.0	4.0	0.0	1	left	2.0	1.0	1.0	0	-0.08	blockFiles/set_33/main_safe/leftBlue\GB_LB_1.xlsx
127	main_safe	True	0.0	122	0	5.0	5.0	1.0	1	right	1.0	0.0	0.0	1	0.08	blockFiles/set_33/main_safe/rightBlue\GB_RB_1.xlsx
128	main_safe	True	1.0	122	0	5.0	5.0	0.0	1	left	n/a	0.0	n/a	0	-0.08	blockFiles/set_33/main_safe/rightBlue\GB_RB_1.xlsx
129	main_safe	True	0.0	122	0	5.0	5.0	0.0	1	left	1.0	1.0	1.0	0	-0.08	blockFiles/set_33/main_safe/rightBlue\GB_RB_1.xlsx
130	main_safe	True	0.0	122	0	5.0	5.0	0.0	1	left	1.0	1.0	1.0	0	-0.08	blockFiles/set_33/main_safe/rightBlue\GB_RB_1.xlsx
131	main_safe	True	0.0	122	0	5.0	5.0	0.0	1	left	1.0	0.0	1.0	0	-0.08	blockFiles/set_33/main_safe/rightBlue\GB_RB_1.xlsx
132	main_safe	True	0.0	122	0	5.0	5.0	0.0	1	left	1.0	0.0	1.0	0	-0.08	blockFiles/set_33/main_safe/rightBlue\GB_RB_1.xlsx
133	main_safe	True	1.0	122	0	5.0	5.0	n/a	0	None	n/a	0.0	n/a	0	-0.08	blockFiles/set_33/main_safe/rightBlue\GB_RB_1.xlsx
134	main_safe	True	0.0	122	0	5.0	5.0	0.0	1	left	2.0	0.0	0.0	0	-0.08	blockFiles/set_33/main_safe/rightBlue\GB_RB_1.xlsx
135	main_safe	True	0.0	122	0	5.0	5.0	1.0	1	right	2.0	0.0	1.0	1	0.08	blockFiles/set_33/main_safe/rightBlue\GB_RB_1.xlsx
136	main_safe	True	0.0	122	0	5.0	5.0	0.0	1	left	1.0	1.0	1.0	0	-0.08	blockFiles/set_33/main_safe/rightBlue\GB_RB_1.xlsx
137	main_safe	True	0.0	122	0	5.0	5.0	0.0	1	left	1.0	1.0	1.0	0	-0.08	blockFiles/set_33/main_safe/rightBlue\GB_RB_1.xlsx
138	main_safe	True	0.0	122	0	5.0	5.0	0.0	1	left	1.0	1.0	1.0	0	-0.08	blockFiles/set_33/main_safe/rightBlue\GB_RB_1.xlsx
139	main_safe	True	0.0	122	0	5.0	5.0	1.0	1	right	2.0	1.0	1.0	1	0.08	blockFiles/set_33/main_safe/rightBlue\GB_RB_1.xlsx
140	main_safe	True	0.0	122	0	5.0	5.0	1.0	1	right	2.0	1.0	1.0	1	0.08	blockFiles/set_33/main_safe/rightBlue\GB_RB_1.xlsx
141	main_safe	True	0.0	122	0	5.0	5.0	1.0	1	right	2.0	1.0	1.0	1	0.08	blockFiles/set_33/main_safe/rightBlue\GB_RB_1.xlsx
142	main_safe	True	0.0	122	0	5.0	5.0	0.0	1	left	1.0	0.0	1.0	0	-0.08	blockFiles/set_33/main_safe/rightBlue\GB_RB_1.xlsx
143	main_safe	True	0.0	122	0	5.0	5.0	0.0	1	left	1.0	1.0	1.0	0	-0.08	blockFiles/set_33/main_safe/rightBlue\GB_RB_1.xlsx
144	main_safe	True	0.0	122	0	5.0	5.0	1.0	1	right	2.0	1.0	1.0	1	0.08	blockFiles/set_33/main_safe/rightBlue\GB_RB_1.xlsx
145	main_safe	True	0.0	122	0	5.0	5.0	1.0	1	right	2.0	1.0	1.0	1	0.08	blockFiles/set_33/main_safe/rightBlue\GB_RB_1.xlsx
146	main_safe	True	0.0	122	0	5.0	5.0	1.0	1	right	2.0	1.0	1.0	1	0.08	blockFiles/set_33/main_safe/rightBlue\GB_RB_1.xlsx
147	main_safe	True	0.0	122	0	5.0	5.0	1.0	1	right	2.0	1.0	1.0	1	0.08	blockFiles/set_33/main_safe/rightBlue\GB_RB_1.xlsx
148	main_safe	True	0.0	122	0	5.0	5.0	0.0	1	left	1.0	1.0	1.0	0	-0.08	blockFiles/set_33/main_safe/rightBlue\GB_RB_1.xlsx
149	main_safe	True	0.0	122	0	5.0	5.0	1.0	1	right	2.0	1.0	1.0	1	0.08	blockFiles/set_33/main_safe/rightBlue\GB_RB_1.xlsx
150	main_safe	True	0.0	122	0	5.0	5.0	1.0	1	right	2.0	0.0	1.0	1	0.08	blockFiles/set_33/main_safe/rightBlue\GB_RB_1.xlsx
151	main_safe	True	0.0	122	0	5.0	5.0	1.0	1	right	2.0	1.0	1.0	1	0.08	blockFiles/set_33/main_safe/rightBlue\GB_RB_1.xlsx
152	main_safe	True	0.0	122	0	5.0	5.0	0.0	1	left	1.0	0.0	1.0	0	-0.08	blockFiles/set_33/main_safe/rightBlue\GB_RB_1.xlsx
153	main_safe	True	0.0	122	0	5.0	5.0	0.0	1	left	1.0	1.0	1.0	0	-0.08	blockFiles/set_33/main_safe/rightBlue\GB_RB_1.xlsx
154	patches	True	n/a	122	0	n/a	n/a	1.0	1	right	n/a	n/a	n/a	1	0.029184642769400002	blockFiles/set_33/main_PD/GB_runPatches1.xlsx
155	patches	True	n/a	122	0	n/a	n/a	0.0	1	left	n/a	n/a	n/a	0	-0.0662251890637	blockFiles/set_33/main_PD/GB_runPatches1.xlsx
156	patches	True	n/a	122	0	n/a	n/a	1.0	1	right	n/a	n/a	n/a	1	0.0266900636069	blockFiles/set_33/main_PD/GB_runPatches1.xlsx
157	patches	True	n/a	122	0	n/a	n/a	0.0	1	left	n/a	n/a	n/a	0	-0.0389574338309	blockFiles/set_33/main_PD/GB_runPatches1.xlsx
158	patches	True	n/a	122	0	n/a	n/a	0.0	1	left	n/a	n/a	n/a	0	-0.0664901200682	blockFiles/set_33/main_PD/GB_runPatches1.xlsx
159	patches	True	n/a	122	0	n/a	n/a	0.0	1	left	n/a	n/a	n/a	0	-0.0220385470428	blockFiles/set_33/main_PD/GB_runPatches1.xlsx
160	patches	True	n/a	122	0	n/a	n/a	0.0	1	left	n/a	n/a	n/a	0	-0.0374386887811	blockFiles/set_33/main_PD/GB_runPatches1.xlsx
161	patches	True	n/a	122	0	n/a	n/a	0.0	1	left	n/a	n/a	n/a	0	-0.0619992385432	blockFiles/set_33/main_PD/GB_runPatches1.xlsx
162	patches	True	n/a	122	0	n/a	n/a	0.0	1	left	n/a	n/a	n/a	0	-0.048981173541400004	blockFiles/set_33/main_PD/GB_runPatches1.xlsx
163	patches	True	n/a	122	0	n/a	n/a	0.0	0	left	n/a	n/a	n/a	1	0.027231133226299997	blockFiles/set_33/main_PD/GB_runPatches1.xlsx
164	patches	True	n/a	122	0	n/a	n/a	1.0	1	right	n/a	n/a	n/a	1	0.0296885651909	blockFiles/set_33/main_PD/GB_runPatches1.xlsx
165	patches	True	n/a	122	0	n/a	n/a	0.0	0	left	n/a	n/a	n/a	1	0.0223866092972	blockFiles/set_33/main_PD/GB_runPatches1.xlsx
166	patches	True	n/a	122	0	n/a	n/a	0.0	1	left	n/a	n/a	n/a	0	-0.0127134465799	blockFiles/set_33/main_PD/GB_runPatches1.xlsx
167	patches	True	n/a	122	0	n/a	n/a	1.0	1	right	n/a	n/a	n/a	1	0.0314693455957	blockFiles/set_33/main_PD/GB_runPatches1.xlsx
168	patches	True	n/a	122	0	n/a	n/a	0.0	1	left	n/a	n/a	n/a	0	-0.0678186257929	blockFiles/set_33/main_PD/GB_runPatches1.xlsx
169	patches	True	n/a	122	0	n/a	n/a	1.0	1	right	n/a	n/a	n/a	1	0.019741835314799998	blockFiles/set_33/main_PD/GB_runPatches1.xlsx
170	patches	True	n/a	122	0	n/a	n/a	1.0	1	right	n/a	n/a	n/a	1	0.0304962685704	blockFiles/set_33/main_PD/GB_runPatches1.xlsx
171	patches	True	n/a	122	0	n/a	n/a	0.0	1	left	n/a	n/a	n/a	0	-0.0706013522111	blockFiles/set_33/main_PD/GB_runPatches1.xlsx
172	patches	True	n/a	122	0	n/a	n/a	0.0	1	left	n/a	n/a	n/a	0	-0.074200480748	blockFiles/set_33/main_PD/GB_runPatches1.xlsx
173	patches	True	n/a	122	0	n/a	n/a	1.0	0	right	n/a	n/a	n/a	0	-0.05195054307580001	blockFiles/set_33/main_PD/GB_runPatches1.xlsx
174	patches	True	n/a	122	0	n/a	n/a	0.0	1	left	n/a	n/a	n/a	0	-0.0276397585124	blockFiles/set_33/main_PD/GB_runPatches1.xlsx
175	patches	True	n/a	122	0	n/a	n/a	0.0	1	left	n/a	n/a	n/a	0	-0.025203361921000002	blockFiles/set_33/main_PD/GB_runPatches1.xlsx
176	patches	True	n/a	122	0	n/a	n/a	0.0	1	left	n/a	n/a	n/a	0	-0.064615583811	blockFiles/set_33/main_PD/GB_runPatches1.xlsx
177	patches	True	n/a	122	0	n/a	n/a	0.0	0	left	n/a	n/a	n/a	1	0.021061526667299997	blockFiles/set_33/main_PD/GB_runPatches1.xlsx
178	patches	True	n/a	122	0	n/a	n/a	0.0	1	left	n/a	n/a	n/a	0	-0.017839828413	blockFiles/set_33/main_PD/GB_runPatches1.xlsx
179	patches	True	n/a	122	0	n/a	n/a	0.0	1	left	n/a	n/a	n/a	0	-0.0466339249723	blockFiles/set_33/main_PD/GB_runPatches1.xlsx
180	patches	True	n/a	122	0	n/a	n/a	1.0	0	right	n/a	n/a	n/a	0	-0.00490251250565	blockFiles/set_33/main_PD/GB_runPatches1.xlsx
181	patches	True	n/a	122	0	n/a	n/a	1.0	1	right	n/a	n/a	n/a	1	0.05053447254	blockFiles/set_33/main_PD/GB_runPatches1.xlsx
182	patches	True	n/a	122	0	n/a	n/a	0.0	1	left	n/a	n/a	n/a	0	-0.053689167573999996	blockFiles/set_33/main_PD/GB_runPatches1.xlsx
183	patches	True	n/a	122	0	n/a	n/a	1.0	1	right	n/a	n/a	n/a	1	0.0633824190125	blockFiles/set_33/main_PD/GB_runPatches1.xlsx
184	patches	True	n/a	122	0	n/a	n/a	0.0	1	left	n/a	n/a	n/a	0	-0.07156417563560001	blockFiles/set_33/main_PD/GB_runPatches1.xlsx
185	patches	True	n/a	122	0	n/a	n/a	1.0	1	right	n/a	n/a	n/a	1	0.0369538764656	blockFiles/set_33/main_PD/GB_runPatches1.xlsx
186	patches	True	n/a	122	0	n/a	n/a	1.0	1	right	n/a	n/a	n/a	1	0.0121386874095	blockFiles/set_33/main_PD/GB_runPatches1.xlsx
187	patches	True	n/a	122	0	n/a	n/a	1.0	1	right	n/a	n/a	n/a	1	0.0563057887554	blockFiles/set_33/main_PD/GB_runPatches1.xlsx
188	patches	True	n/a	122	0	n/a	n/a	0.0	1	left	n/a	n/a	n/a	0	-0.0484123983048	blockFiles/set_33/main_PD/GB_runPatches1.xlsx
189	patches	True	n/a	122	0	n/a	n/a	0.0	1	left	n/a	n/a	n/a	0	-0.0314980111457	blockFiles/set_33/main_PD/GB_runPatches1.xlsx
190	patches	True	n/a	122	0	n/a	n/a	0.0	1	left	n/a	n/a	n/a	0	-0.0445649040118	blockFiles/set_33/main_PD/GB_runPatches1.xlsx
191	patches	True	n/a	122	0	n/a	n/a	0.0	1	left	n/a	n/a	n/a	0	-0.0221592282876	blockFiles/set_33/main_PD/GB_runPatches1.xlsx
192	patches	True	n/a	122	0	n/a	n/a	0.0	1	left	n/a	n/a	n/a	0	-0.0695857740752	blockFiles/set_33/main_PD/GB_runPatches1.xlsx
193	patches	True	n/a	122	0	n/a	n/a	1.0	1	right	n/a	n/a	n/a	1	0.028487416748	blockFiles/set_33/main_PD/GB_runPatches1.xlsx
194	patches	True	n/a	122	0	n/a	n/a	0.0	0	left	n/a	n/a	n/a	1	0.0272889036871	blockFiles/set_33/main_PD/GB_runPatches1.xlsx
195	patches	True	n/a	122	0	n/a	n/a	0.0	1	left	n/a	n/a	n/a	0	-0.061492106318499995	blockFiles/set_33/main_PD/GB_runPatches1.xlsx
196	patches	True	n/a	122	0	n/a	n/a	0.0	1	left	n/a	n/a	n/a	0	-0.028256744891400003	blockFiles/set_33/main_PD/GB_runPatches1.xlsx
197	patches	True	n/a	122	0	n/a	n/a	1.0	1	right	n/a	n/a	n/a	1	0.066019738894	blockFiles/set_33/main_PD/GB_runPatches1.xlsx
198	patches	True	n/a	122	0	n/a	n/a	1.0	1	right	n/a	n/a	n/a	1	0.0783532934263	blockFiles/set_33/main_PD/GB_runPatches1.xlsx
199	patches	True	n/a	122	0	n/a	n/a	1.0	1	right	n/a	n/a	n/a	1	0.0194465866685	blockFiles/set_33/main_PD/GB_runPatches1.xlsx
200	patches	True	n/a	122	0	n/a	n/a	1.0	1	right	n/a	n/a	n/a	1	0.0366738325544	blockFiles/set_33/main_PD/GB_runPatches1.xlsx
201	patches	True	n/a	122	0	n/a	n/a	1.0	1	right	n/a	n/a	n/a	1	0.0177986845933	blockFiles/set_33/main_PD/GB_runPatches1.xlsx
202	patches	True	n/a	122	0	n/a	n/a	0.0	1	left	n/a	n/a	n/a	0	-0.0221870727837	blockFiles/set_33/main_PD/GB_runPatches1.xlsx
203	patches	True	n/a	122	0	n/a	n/a	1.0	1	right	n/a	n/a	n/a	1	0.0232722151838	blockFiles/set_33/main_PD/GB_runPatches1.xlsx
204	patches	True	n/a	122	0	n/a	n/a	0.0	1	left	n/a	n/a	n/a	0	-0.0647225491703	blockFiles/set_33/main_PD/GB_runPatches1.xlsx
205	patches	True	n/a	122	0	n/a	n/a	0.0	1	left	n/a	n/a	n/a	0	-0.0382412746735	blockFiles/set_33/main_PD/GB_runPatches1.xlsx
206	patches	True	n/a	122	0	n/a	n/a	0.0	1	left	n/a	n/a	n/a	0	-0.048962309956599996	blockFiles/set_33/main_PD/GB_runPatches1.xlsx
207	patches	True	n/a	122	0	n/a	n/a	0.0	1	left	n/a	n/a	n/a	0	-0.0695011939667	blockFiles/set_33/main_PD/GB_runPatches1.xlsx
208	patches	True	n/a	122	0	n/a	n/a	0.0	1	left	n/a	n/a	n/a	0	-0.0782557523996	blockFiles/set_33/main_PD/GB_runPatches1.xlsx
209	patches	True	n/a	122	0	n/a	n/a	n/a	0	None	n/a	n/a	n/a	1	0.045179246347400004	blockFiles/set_33/main_PD/GB_runPatches1.xlsx
210	patches	True	n/a	122	0	n/a	n/a	1.0	1	right	n/a	n/a	n/a	1	0.015311238803000001	blockFiles/set_33/main_PD/GB_runPatches1.xlsx
211	patches	True	n/a	122	0	n/a	n/a	0.0	1	left	n/a	n/a	n/a	0	-0.027121499758200003	blockFiles/set_33/main_PD/GB_runPatches1.xlsx
212	patches	True	n/a	122	0	n/a	n/a	0.0	0	left	n/a	n/a	n/a	1	0.07204605709760001	blockFiles/set_33/main_PD/GB_runPatches1.xlsx
213	patches	True	n/a	122	0	n/a	n/a	1.0	1	right	n/a	n/a	n/a	1	0.0161341712065	blockFiles/set_33/main_PD/GB_runPatches1.xlsx
214	patches	True	n/a	122	0	n/a	n/a	0.0	1	left	n/a	n/a	n/a	0	-0.07190438134600001	blockFiles/set_33/main_PD/GB_runPatches1.xlsx
215	patches	True	n/a	122	0	n/a	n/a	1.0	0	right	n/a	n/a	n/a	0	-0.0250614112243	blockFiles/set_33/main_PD/GB_runPatches1.xlsx
216	patches	True	n/a	122	0	n/a	n/a	0.0	1	left	n/a	n/a	n/a	0	-0.014817896336299999	blockFiles/set_33/main_PD/GB_runPatches1.xlsx
217	patches	True	n/a	122	0	n/a	n/a	1.0	1	right	n/a	n/a	n/a	1	0.0469757566229	blockFiles/set_33/main_PD/GB_runPatches1.xlsx
218	patches	True	n/a	122	0	n/a	n/a	0.0	1	left	n/a	n/a	n/a	0	-0.019688100852099998	blockFiles/set_33/main_PD/GB_runPatches1.xlsx
219	patches	True	n/a	122	0	n/a	n/a	1.0	1	right	n/a	n/a	n/a	1	0.0649641930684	blockFiles/set_33/main_PD/GB_runPatches1.xlsx
220	patches	True	n/a	122	0	n/a	n/a	1.0	1	right	n/a	n/a	n/a	1	0.0549000496045	blockFiles/set_33/main_PD/GB_runPatches1.xlsx
221	patches	True	n/a	122	0	n/a	n/a	0.0	1	left	n/a	n/a	n/a	0	-0.014569507110899998	blockFiles/set_33/main_PD/GB_runPatches1.xlsx
222	patches	True	n/a	122	0	n/a	n/a	1.0	1	right	n/a	n/a	n/a	1	0.07457154784350001	blockFiles/set_33/main_PD/GB_runPatches1.xlsx
223	patches	True	n/a	122	0	n/a	n/a	0.0	0	left	n/a	n/a	n/a	1	0.004441272150729999	blockFiles/set_33/main_PD/GB_runPatches1.xlsx
224	patches	True	n/a	122	0	n/a	n/a	1.0	0	right	n/a	n/a	n/a	0	-0.0408514868282	blockFiles/set_33/main_PD/GB_runPatches1.xlsx
225	patches	True	n/a	122	0	n/a	n/a	n/a	0	None	n/a	n/a	n/a	1	0.0662550227903	blockFiles/set_33/main_PD/GB_runPatches1.xlsx
226	patches	True	n/a	122	0	n/a	n/a	1.0	1	right	n/a	n/a	n/a	1	0.05353051209819999	blockFiles/set_33/main_PD/GB_runPatches1.xlsx
227	patches	True	n/a	122	0	n/a	n/a	1.0	1	right	n/a	n/a	n/a	1	0.0316616081074	blockFiles/set_33/main_PD/GB_runPatches1.xlsx
228	patches	True	n/a	122	0	n/a	n/a	1.0	1	right	n/a	n/a	n/a	1	0.0393947370164	blockFiles/set_33/main_PD/GB_runPatches1.xlsx
229	patches	True	n/a	122	0	n/a	n/a	0.0	0	left	n/a	n/a	n/a	1	0.031098030284000003	blockFiles/set_33/main_PD/GB_runPatches1.xlsx
230	patches	True	n/a	122	0	n/a	n/a	n/a	0	None	n/a	n/a	n/a	0	-0.0386104362272	blockFiles/set_33/main_PD/GB_runPatches1.xlsx
231	patches	True	n/a	122	0	n/a	n/a	1.0	1	right	n/a	n/a	n/a	1	0.04195715412499999	blockFiles/set_33/main_PD/GB_runPatches1.xlsx
232	patches	True	n/a	122	0	n/a	n/a	0.0	1	left	n/a	n/a	n/a	0	-0.005256098825479999	blockFiles/set_33/main_PD/GB_runPatches1.xlsx
233	patches	True	n/a	122	0	n/a	n/a	0.0	1	left	n/a	n/a	n/a	0	-0.0668447572738	blockFiles/set_33/main_PD/GB_runPatches1.xlsx
234	patches	True	n/a	122	0	n/a	n/a	0.0	1	left	n/a	n/a	n/a	0	-0.045784332603199994	blockFiles/set_33/main_PD/GB_runPatches1.xlsx
235	patches	True	n/a	122	0	n/a	n/a	n/a	0	None	n/a	n/a	n/a	0	-0.010954091176400001	blockFiles/set_33/main_PD/GB_runPatches1.xlsx
236	patches	True	n/a	122	0	n/a	n/a	1.0	1	right	n/a	n/a	n/a	1	0.038042716290800006	blockFiles/set_33/main_PD/GB_runPatches1.xlsx
237	patches	True	n/a	122	0	n/a	n/a	0.0	1	left	n/a	n/a	n/a	0	-0.0431210651062	blockFiles/set_33/main_PD/GB_runPatches1.xlsx
238	patches	True	n/a	122	0	n/a	n/a	0.0	1	left	n/a	n/a	n/a	0	-0.06964981131260001	blockFiles/set_33/main_PD/GB_runPatches1.xlsx
239	patches	True	n/a	122	0	n/a	n/a	1.0	1	right	n/a	n/a	n/a	1	0.0157872772217	blockFiles/set_33/main_PD/GB_runPatches1.xlsx
240	patches	True	n/a	122	0	n/a	n/a	1.0	1	right	n/a	n/a	n/a	1	0.0328910546005	blockFiles/set_33/main_PD/GB_runPatches1.xlsx
241	patches	True	n/a	122	0	n/a	n/a	1.0	1	right	n/a	n/a	n/a	1	0.0735203704797	blockFiles/set_33/main_PD/GB_runPatches1.xlsx
242	patches	True	n/a	122	0	n/a	n/a	1.0	1	right	n/a	n/a	n/a	1	0.0645053451508	blockFiles/set_33/main_PD/GB_runPatches1.xlsx
243	patches	True	n/a	122	0	n/a	n/a	1.0	0	right	n/a	n/a	n/a	0	-0.0247940253466	blockFiles/set_33/main_PD/GB_runPatches1.xlsx
244	patches	True	n/a	122	0	n/a	n/a	n/a	0	None	n/a	n/a	n/a	1	0.018902253322299997	blockFiles/set_33/main_PD/GB_runPatches1.xlsx
245	patches	True	n/a	122	0	n/a	n/a	1.0	1	right	n/a	n/a	n/a	1	0.0394016366266	blockFiles/set_33/main_PD/GB_runPatches1.xlsx
246	patches	True	n/a	122	0	n/a	n/a	0.0	1	left	n/a	n/a	n/a	0	-0.001070415508	blockFiles/set_33/main_PD/GB_runPatches1.xlsx
247	patches	True	n/a	122	0	n/a	n/a	1.0	1	right	n/a	n/a	n/a	1	0.0782469357178	blockFiles/set_33/main_PD/GB_runPatches1.xlsx
248	patches	True	n/a	122	0	n/a	n/a	1.0	1	right	n/a	n/a	n/a	1	0.0291132658347	blockFiles/set_33/main_PD/GB_runPatches1.xlsx
249	patches	True	n/a	122	0	n/a	n/a	0.0	1	left	n/a	n/a	n/a	0	-0.0641179150529	blockFiles/set_33/main_PD/GB_runPatches1.xlsx
250	patches	True	n/a	122	0	n/a	n/a	1.0	1	right	n/a	n/a	n/a	1	0.0542992502078	blockFiles/set_33/main_PD/GB_runPatches1.xlsx
251	patches	True	n/a	122	0	n/a	n/a	1.0	1	right	n/a	n/a	n/a	1	0.0347618984617	blockFiles/set_33/main_PD/GB_runPatches1.xlsx
252	patches	True	n/a	122	0	n/a	n/a	1.0	1	right	n/a	n/a	n/a	1	0.07266975183039999	blockFiles/set_33/main_PD/GB_runPatches1.xlsx
253	patches	True	n/a	122	0	n/a	n/a	0.0	0	left	n/a	n/a	n/a	1	0.020127145201	blockFiles/set_33/main_PD/GB_runPatches1.xlsx
254	main_unc	True	0.0	122	0	0.0	0.0	1.0	1	right	1.0	0.0	0.0	1	0.031109034065200002	blockFiles/set_33/main_unc/rightBlue\GB_RB_5.xlsx
255	main_unc	True	0.0	122	0	0.0	0.0	0.0	0	left	2.0	1.0	1.0	1	0.00736779032275	blockFiles/set_33/main_unc/rightBlue\GB_RB_5.xlsx
256	main_unc	True	0.0	122	0	0.0	0.0	0.0	1	left	2.0	1.0	0.0	0	-0.047791532743699995	blockFiles/set_33/main_unc/rightBlue\GB_RB_5.xlsx
257	main_unc	True	0.0	122	0	0.0	0.0	1.0	1	right	1.0	0.0	0.0	1	0.0340129412897	blockFiles/set_33/main_unc/rightBlue\GB_RB_5.xlsx
258	main_unc	True	0.0	122	0	0.0	0.0	0.0	1	left	2.0	1.0	0.0	0	-0.049854129422500004	blockFiles/set_33/main_unc/rightBlue\GB_RB_5.xlsx
259	main_unc	True	1.0	122	0	0.0	0.0	n/a	0	None	n/a	0.0	n/a	0	-0.0119748057052	blockFiles/set_33/main_unc/rightBlue\GB_RB_5.xlsx
260	main_unc	True	0.0	122	0	0.0	0.0	0.0	1	left	2.0	1.0	0.0	0	-0.00851427862421	blockFiles/set_33/main_unc/rightBlue\GB_RB_5.xlsx
261	main_unc	True	0.0	122	0	0.0	0.0	0.0	1	left	2.0	0.0	0.0	0	-0.0669589159079	blockFiles/set_33/main_unc/rightBlue\GB_RB_5.xlsx
262	main_unc	True	0.0	122	0	0.0	0.0	0.0	1	left	2.0	0.0	0.0	0	-0.0514065064117	blockFiles/set_33/main_unc/rightBlue\GB_RB_5.xlsx
263	main_unc	True	0.0	122	0	0.0	0.0	1.0	1	right	1.0	0.0	0.0	1	0.0517629406415	blockFiles/set_33/main_unc/rightBlue\GB_RB_5.xlsx
264	main_unc	True	0.0	122	0	0.0	0.0	1.0	1	right	1.0	0.0	0.0	1	0.00426794765517	blockFiles/set_33/main_unc/rightBlue\GB_RB_5.xlsx
265	main_unc	True	0.0	122	0	0.0	0.0	1.0	1	right	1.0	0.0	0.0	1	0.0427997906134	blockFiles/set_33/main_unc/rightBlue\GB_RB_5.xlsx
266	main_unc	True	0.0	122	0	0.0	0.0	0.0	1	left	1.0	1.0	1.0	0	-0.0298939311877	blockFiles/set_33/main_unc/rightBlue\GB_RB_5.xlsx
267	main_unc	True	0.0	122	0	0.0	0.0	1.0	1	right	2.0	0.0	1.0	1	0.029404903110099998	blockFiles/set_33/main_unc/rightBlue\GB_RB_5.xlsx
268	main_unc	True	0.0	122	0	0.0	0.0	1.0	1	right	2.0	1.0	1.0	1	0.0342068180628	blockFiles/set_33/main_unc/rightBlue\GB_RB_5.xlsx
269	main_unc	True	0.0	122	0	0.0	0.0	0.0	1	left	1.0	1.0	1.0	0	-0.0635135567188	blockFiles/set_33/main_unc/rightBlue\GB_RB_5.xlsx
270	main_unc	True	0.0	122	0	0.0	0.0	1.0	1	right	2.0	1.0	1.0	1	0.0771104486845	blockFiles/set_33/main_unc/rightBlue\GB_RB_5.xlsx
271	main_unc	True	0.0	122	0	0.0	0.0	1.0	1	right	2.0	1.0	1.0	1	0.0639040958323	blockFiles/set_33/main_unc/rightBlue\GB_RB_5.xlsx
272	main_unc	True	0.0	122	0	0.0	0.0	1.0	1	right	2.0	1.0	1.0	1	0.0359225996025	blockFiles/set_33/main_unc/rightBlue\GB_RB_5.xlsx
273	main_unc	True	0.0	122	0	0.0	0.0	1.0	1	right	2.0	0.0	1.0	1	0.0359891864099	blockFiles/set_33/main_unc/rightBlue\GB_RB_5.xlsx
274	main_unc	True	1.0	122	0	0.0	0.0	n/a	0	None	n/a	0.0	n/a	0	-0.054093726445000004	blockFiles/set_33/main_unc/rightBlue\GB_RB_5.xlsx
275	main_unc	True	0.0	122	0	0.0	0.0	0.0	0	left	1.0	0.0	0.0	1	0.00027901912108099997	blockFiles/set_33/main_unc/rightBlue\GB_RB_5.xlsx
276	main_unc	True	0.0	122	0	0.0	0.0	1.0	1	right	1.0	0.0	0.0	1	0.00140268910676	blockFiles/set_33/main_unc/rightBlue\GB_RB_5.xlsx
277	main_unc	True	0.0	122	0	0.0	0.0	0.0	1	left	1.0	1.0	1.0	0	-0.031995974536999996	blockFiles/set_33/main_unc/rightBlue\GB_RB_5.xlsx
278	main_unc	True	0.0	122	0	0.0	0.0	0.0	1	left	1.0	1.0	1.0	0	-0.0715592630953	blockFiles/set_33/main_unc/rightBlue\GB_RB_5.xlsx
279	main_unc	True	0.0	122	0	0.0	0.0	0.0	1	left	1.0	1.0	1.0	0	-0.0119748057052	blockFiles/set_33/main_unc/rightBlue\GB_RB_5.xlsx
280	main_unc	True	0.0	122	0	0.0	0.0	0.0	1	left	1.0	0.0	1.0	0	-0.054093726445000004	blockFiles/set_33/main_unc/rightBlue\GB_RB_5.xlsx
281	main_unc	True	0.0	122	0	1.0	1.0	1.0	0	right	2.0	1.0	1.0	0	-0.0029060642048699997	blockFiles/set_33/main_unc/leftBlue\GB_LB_5.xlsx
282	main_unc	True	0.0	122	0	1.0	1.0	1.0	1	right	2.0	0.0	0.0	1	0.046257908046199996	blockFiles/set_33/main_unc/leftBlue\GB_LB_5.xlsx
283	main_unc	True	0.0	122	0	1.0	1.0	0.0	1	left	1.0	0.0	0.0	0	-0.0269706396386	blockFiles/set_33/main_unc/leftBlue\GB_LB_5.xlsx
284	main_unc	True	0.0	122	0	1.0	1.0	1.0	1	right	2.0	1.0	0.0	1	0.0532544697076	blockFiles/set_33/main_unc/leftBlue\GB_LB_5.xlsx
285	main_unc	True	0.0	122	0	1.0	1.0	0.0	1	left	1.0	0.0	0.0	0	-0.0716654435359	blockFiles/set_33/main_unc/leftBlue\GB_LB_5.xlsx
286	main_unc	True	0.0	122	0	1.0	1.0	1.0	1	right	2.0	0.0	0.0	1	0.0252433164977	blockFiles/set_33/main_unc/leftBlue\GB_LB_5.xlsx
287	main_unc	True	0.0	122	0	1.0	1.0	0.0	1	left	2.0	1.0	1.0	0	-0.0338838939369	blockFiles/set_33/main_unc/leftBlue\GB_LB_5.xlsx
288	main_unc	True	0.0	122	0	1.0	1.0	0.0	1	left	2.0	1.0	1.0	0	-0.0530003132299	blockFiles/set_33/main_unc/leftBlue\GB_LB_5.xlsx
289	main_unc	True	0.0	122	0	1.0	1.0	1.0	1	right	1.0	1.0	1.0	1	0.0331252010539	blockFiles/set_33/main_unc/leftBlue\GB_LB_5.xlsx
290	main_unc	True	0.0	122	0	1.0	1.0	1.0	1	right	1.0	1.0	1.0	1	0.076731759645	blockFiles/set_33/main_unc/leftBlue\GB_LB_5.xlsx
291	main_unc	True	0.0	122	0	1.0	1.0	1.0	0	right	1.0	1.0	0.0	0	-0.0354139415361	blockFiles/set_33/main_unc/leftBlue\GB_LB_5.xlsx
292	main_unc	True	0.0	122	0	1.0	1.0	0.0	1	left	2.0	1.0	1.0	0	-0.0465782096237	blockFiles/set_33/main_unc/leftBlue\GB_LB_5.xlsx
293	main_unc	True	0.0	122	0	1.0	1.0	1.0	1	right	1.0	1.0	1.0	1	0.0565772706084	blockFiles/set_33/main_unc/leftBlue\GB_LB_5.xlsx
294	main_unc	True	1.0	122	0	1.0	1.0	0.0	1	left	n/a	0.0	n/a	0	-0.0282001503929	blockFiles/set_33/main_unc/leftBlue\GB_LB_5.xlsx
295	main_unc	True	0.0	122	0	1.0	1.0	1.0	1	right	1.0	1.0	1.0	1	0.022290557939599998	blockFiles/set_33/main_unc/leftBlue\GB_LB_5.xlsx
296	main_unc	True	0.0	122	0	1.0	1.0	1.0	1	right	1.0	1.0	1.0	1	0.00592758266255	blockFiles/set_33/main_unc/leftBlue\GB_LB_5.xlsx
297	main_unc	True	0.0	122	0	1.0	1.0	1.0	1	right	2.0	0.0	0.0	1	0.005034823566680001	blockFiles/set_33/main_unc/leftBlue\GB_LB_5.xlsx
298	main_unc	True	0.0	122	0	1.0	1.0	1.0	1	right	1.0	1.0	1.0	1	0.0449351036362	blockFiles/set_33/main_unc/leftBlue\GB_LB_5.xlsx
299	main_unc	True	0.0	122	0	1.0	1.0	0.0	1	left	2.0	0.0	1.0	0	-0.0773638153821	blockFiles/set_33/main_unc/leftBlue\GB_LB_5.xlsx
300	main_unc	True	0.0	122	0	1.0	1.0	0.0	1	left	2.0	1.0	1.0	0	-0.021995946113	blockFiles/set_33/main_unc/leftBlue\GB_LB_5.xlsx
301	main_unc	True	0.0	122	0	1.0	1.0	0.0	1	left	2.0	0.0	1.0	0	-0.0747731301747	blockFiles/set_33/main_unc/leftBlue\GB_LB_5.xlsx
302	main_unc	True	0.0	122	0	1.0	1.0	0.0	1	left	2.0	1.0	1.0	0	-0.0411725622229	blockFiles/set_33/main_unc/leftBlue\GB_LB_5.xlsx
303	main_unc	True	0.0	122	0	1.0	1.0	1.0	0	right	1.0	0.0	0.0	0	-0.0049925163947	blockFiles/set_33/main_unc/leftBlue\GB_LB_5.xlsx
304	main_unc	True	1.0	122	0	1.0	1.0	n/a	0	None	n/a	0.0	n/a	1	0.0106451844797	blockFiles/set_33/main_unc/leftBlue\GB_LB_5.xlsx
305	main_unc	True	0.0	122	0	1.0	1.0	1.0	1	right	1.0	1.0	1.0	1	0.039956706427	blockFiles/set_33/main_unc/leftBlue\GB_LB_5.xlsx
306	main_unc	True	0.0	122	0	1.0	1.0	0.0	1	left	2.0	0.0	1.0	0	-0.0282001503929	blockFiles/set_33/main_unc/leftBlue\GB_LB_5.xlsx
307	main_unc	True	0.0	122	0	1.0	1.0	1.0	1	right	1.0	1.0	1.0	1	0.0106451844797	blockFiles/set_33/main_unc/leftBlue\GB_LB_5.xlsx
308	main_unc	True	0.0	122	0	2.0	2.0	1.0	0	right	1.0	0.0	0.0	0	-0.007235022746030001	blockFiles/set_33/main_unc/leftBlue\GB_LB_2.xlsx
309	main_unc	True	0.0	122	0	2.0	2.0	1.0	1	right	1.0	1.0	1.0	1	0.058539596665699994	blockFiles/set_33/main_unc/leftBlue\GB_LB_2.xlsx
310	main_unc	True	0.0	122	0	2.0	2.0	1.0	0	right	1.0	1.0	0.0	0	-0.033850265219799995	blockFiles/set_33/main_unc/leftBlue\GB_LB_2.xlsx
311	main_unc	True	0.0	122	0	2.0	2.0	1.0	1	right	1.0	1.0	1.0	1	0.0015504602901600002	blockFiles/set_33/main_unc/leftBlue\GB_LB_2.xlsx
312	main_unc	True	0.0	122	0	2.0	2.0	0.0	1	left	2.0	1.0	1.0	0	-0.0411743161455	blockFiles/set_33/main_unc/leftBlue\GB_LB_2.xlsx
313	main_unc	True	0.0	122	0	2.0	2.0	1.0	0	right	1.0	0.0	0.0	0	-0.0373319550231	blockFiles/set_33/main_unc/leftBlue\GB_LB_2.xlsx
314	main_unc	True	0.0	122	0	2.0	2.0	0.0	1	left	2.0	1.0	1.0	0	-0.0720046876743	blockFiles/set_33/main_unc/leftBlue\GB_LB_2.xlsx
315	main_unc	True	0.0	122	0	2.0	2.0	1.0	1	right	1.0	0.0	1.0	1	0.036618854627	blockFiles/set_33/main_unc/leftBlue\GB_LB_2.xlsx
316	main_unc	True	0.0	122	0	2.0	2.0	1.0	1	right	1.0	1.0	1.0	1	0.055137390662000005	blockFiles/set_33/main_unc/leftBlue\GB_LB_2.xlsx
317	main_unc	True	0.0	122	0	2.0	2.0	0.0	1	left	2.0	1.0	1.0	0	-0.01931433158	blockFiles/set_33/main_unc/leftBlue\GB_LB_2.xlsx
318	main_unc	True	0.0	122	0	2.0	2.0	1.0	1	right	1.0	1.0	1.0	1	0.066482122913	blockFiles/set_33/main_unc/leftBlue\GB_LB_2.xlsx
319	main_unc	True	0.0	122	0	2.0	2.0	0.0	1	left	2.0	1.0	1.0	0	-0.039768938235900005	blockFiles/set_33/main_unc/leftBlue\GB_LB_2.xlsx
320	main_unc	True	0.0	122	0	2.0	2.0	1.0	1	right	1.0	1.0	1.0	1	0.00885696252808	blockFiles/set_33/main_unc/leftBlue\GB_LB_2.xlsx
321	main_unc	True	0.0	122	0	2.0	2.0	0.0	1	left	2.0	1.0	1.0	0	-0.059695222843399995	blockFiles/set_33/main_unc/leftBlue\GB_LB_2.xlsx
322	main_unc	True	0.0	122	0	2.0	2.0	1.0	1	right	1.0	1.0	1.0	1	0.038832555972	blockFiles/set_33/main_unc/leftBlue\GB_LB_2.xlsx
323	main_unc	True	0.0	122	0	2.0	2.0	1.0	1	right	1.0	1.0	1.0	1	0.0113428920135	blockFiles/set_33/main_unc/leftBlue\GB_LB_2.xlsx
324	main_unc	True	0.0	122	0	2.0	2.0	1.0	1	right	1.0	0.0	1.0	1	0.06818307470530001	blockFiles/set_33/main_unc/leftBlue\GB_LB_2.xlsx
325	main_unc	True	0.0	122	0	2.0	2.0	0.0	1	left	2.0	1.0	1.0	0	-0.0755715147592	blockFiles/set_33/main_unc/leftBlue\GB_LB_2.xlsx
326	main_unc	True	0.0	122	0	2.0	2.0	1.0	1	right	1.0	0.0	1.0	1	0.0327956719138	blockFiles/set_33/main_unc/leftBlue\GB_LB_2.xlsx
327	main_unc	True	0.0	122	0	2.0	2.0	0.0	1	left	2.0	0.0	1.0	0	-0.00498721767217	blockFiles/set_33/main_unc/leftBlue\GB_LB_2.xlsx
328	main_unc	True	0.0	122	0	2.0	2.0	0.0	1	left	2.0	1.0	1.0	0	-0.0548032020964	blockFiles/set_33/main_unc/leftBlue\GB_LB_2.xlsx
329	main_unc	True	0.0	122	0	2.0	2.0	0.0	1	left	2.0	1.0	1.0	0	-0.0217258455977	blockFiles/set_33/main_unc/leftBlue\GB_LB_2.xlsx
330	main_unc	True	0.0	122	0	2.0	2.0	0.0	1	left	2.0	1.0	1.0	0	-0.0424665262923	blockFiles/set_33/main_unc/leftBlue\GB_LB_2.xlsx
331	main_unc	True	1.0	122	0	2.0	2.0	n/a	0	None	n/a	0.0	n/a	1	0.012152119632800001	blockFiles/set_33/main_unc/leftBlue\GB_LB_2.xlsx
332	main_unc	True	0.0	122	0	2.0	2.0	0.0	1	left	2.0	1.0	1.0	0	-0.0779605517723	blockFiles/set_33/main_unc/leftBlue\GB_LB_2.xlsx
333	main_unc	True	0.0	122	0	2.0	2.0	1.0	1	right	1.0	1.0	1.0	1	0.012152119632800001	blockFiles/set_33/main_unc/leftBlue\GB_LB_2.xlsx
334	main_unc	True	0.0	122	0	3.0	3.0	1.0	1	right	1.0	0.0	0.0	1	0.0706120295823	blockFiles/set_33/main_unc/rightBlue\GB_RB_3.xlsx
335	main_unc	True	0.0	122	0	3.0	3.0	0.0	1	left	2.0	1.0	0.0	0	-0.04872849835080001	blockFiles/set_33/main_unc/rightBlue\GB_RB_3.xlsx
336	main_unc	True	0.0	122	0	3.0	3.0	0.0	1	left	2.0	0.0	0.0	0	-0.029307137690499998	blockFiles/set_33/main_unc/rightBlue\GB_RB_3.xlsx
337	main_unc	True	0.0	122	0	3.0	3.0	1.0	1	right	1.0	0.0	0.0	1	0.047110283114	blockFiles/set_33/main_unc/rightBlue\GB_RB_3.xlsx
338	main_unc	True	0.0	122	0	3.0	3.0	0.0	1	left	1.0	1.0	1.0	0	-0.00896167339757	blockFiles/set_33/main_unc/rightBlue\GB_RB_3.xlsx
339	main_unc	True	0.0	122	0	3.0	3.0	0.0	1	left	1.0	1.0	1.0	0	-0.029109582603000003	blockFiles/set_33/main_unc/rightBlue\GB_RB_3.xlsx
340	main_unc	True	0.0	122	0	3.0	3.0	1.0	1	right	2.0	1.0	1.0	1	0.0315225613676	blockFiles/set_33/main_unc/rightBlue\GB_RB_3.xlsx
341	main_unc	True	0.0	122	0	3.0	3.0	0.0	1	left	1.0	1.0	1.0	0	-0.0677698168159	blockFiles/set_33/main_unc/rightBlue\GB_RB_3.xlsx
342	main_unc	True	0.0	122	0	3.0	3.0	0.0	1	left	1.0	0.0	1.0	0	-0.0763689685613	blockFiles/set_33/main_unc/rightBlue\GB_RB_3.xlsx
343	main_unc	True	0.0	122	0	3.0	3.0	0.0	1	left	1.0	1.0	1.0	0	-0.0119077895954	blockFiles/set_33/main_unc/rightBlue\GB_RB_3.xlsx
344	main_unc	True	0.0	122	0	3.0	3.0	0.0	1	left	1.0	1.0	1.0	0	-0.075960285645	blockFiles/set_33/main_unc/rightBlue\GB_RB_3.xlsx
345	main_unc	True	0.0	122	0	3.0	3.0	1.0	1	right	2.0	0.0	1.0	1	0.050732559729399995	blockFiles/set_33/main_unc/rightBlue\GB_RB_3.xlsx
346	main_unc	True	0.0	122	0	3.0	3.0	1.0	1	right	2.0	1.0	1.0	1	0.006907950975	blockFiles/set_33/main_unc/rightBlue\GB_RB_3.xlsx
347	main_unc	True	0.0	122	0	3.0	3.0	1.0	1	right	2.0	1.0	1.0	1	0.0708870404586	blockFiles/set_33/main_unc/rightBlue\GB_RB_3.xlsx
348	main_unc	True	0.0	122	0	3.0	3.0	0.0	1	left	1.0	0.0	1.0	0	-0.0354295798019	blockFiles/set_33/main_unc/rightBlue\GB_RB_3.xlsx
349	main_unc	True	1.0	122	0	3.0	3.0	n/a	0	None	n/a	0.0	n/a	1	0.010291213356	blockFiles/set_33/main_unc/rightBlue\GB_RB_3.xlsx
350	main_unc	True	0.0	122	0	3.0	3.0	1.0	1	right	2.0	1.0	1.0	1	0.037951405681699996	blockFiles/set_33/main_unc/rightBlue\GB_RB_3.xlsx
351	main_unc	True	0.0	122	0	3.0	3.0	0.0	1	left	1.0	1.0	1.0	0	-0.013708170298500001	blockFiles/set_33/main_unc/rightBlue\GB_RB_3.xlsx
352	main_unc	True	0.0	122	0	3.0	3.0	1.0	1	right	2.0	1.0	1.0	1	0.0671665327065	blockFiles/set_33/main_unc/rightBlue\GB_RB_3.xlsx
353	main_unc	True	0.0	122	0	3.0	3.0	0.0	1	left	1.0	1.0	1.0	0	-0.046310050412999994	blockFiles/set_33/main_unc/rightBlue\GB_RB_3.xlsx
354	main_unc	True	0.0	122	0	3.0	3.0	1.0	1	right	1.0	0.0	0.0	1	0.0148874763772	blockFiles/set_33/main_unc/rightBlue\GB_RB_3.xlsx
355	main_unc	True	0.0	122	0	3.0	3.0	1.0	1	right	1.0	0.0	0.0	1	0.054706867150999997	blockFiles/set_33/main_unc/rightBlue\GB_RB_3.xlsx
356	main_unc	True	0.0	122	0	3.0	3.0	1.0	1	right	2.0	1.0	1.0	1	0.056601486727599994	blockFiles/set_33/main_unc/rightBlue\GB_RB_3.xlsx
357	main_unc	True	0.0	122	0	3.0	3.0	1.0	0	right	2.0	1.0	0.0	0	-0.012602101545799998	blockFiles/set_33/main_unc/rightBlue\GB_RB_3.xlsx
358	main_unc	True	0.0	122	0	3.0	3.0	0.0	1	left	1.0	1.0	1.0	0	-0.0394255500287	blockFiles/set_33/main_unc/rightBlue\GB_RB_3.xlsx
359	main_unc	True	0.0	122	0	3.0	3.0	0.0	0	left	2.0	0.0	1.0	1	0.010291213356	blockFiles/set_33/main_unc/rightBlue\GB_RB_3.xlsx
360	main_unc	True	1.0	122	0	4.0	4.0	n/a	0	None	n/a	0.0	n/a	0	-0.0150297248363	blockFiles/set_33/main_unc/leftBlue\GB_LB_1.xlsx
361	main_unc	True	0.0	122	0	4.0	4.0	0.0	0	left	1.0	1.0	1.0	1	0.033572031837	blockFiles/set_33/main_unc/leftBlue\GB_LB_1.xlsx
362	main_unc	True	0.0	122	0	4.0	4.0	0.0	1	left	1.0	0.0	0.0	0	-0.0638577177003	blockFiles/set_33/main_unc/leftBlue\GB_LB_1.xlsx
363	main_unc	True	0.0	122	0	4.0	4.0	0.0	1	left	1.0	0.0	0.0	0	-0.0712365566194	blockFiles/set_33/main_unc/leftBlue\GB_LB_1.xlsx
364	main_unc	True	0.0	122	0	4.0	4.0	1.0	1	right	1.0	1.0	1.0	1	0.0302955658734	blockFiles/set_33/main_unc/leftBlue\GB_LB_1.xlsx
365	main_unc	True	0.0	122	0	4.0	4.0	1.0	1	right	1.0	1.0	1.0	1	0.012012494020200002	blockFiles/set_33/main_unc/leftBlue\GB_LB_1.xlsx
366	main_unc	True	0.0	122	0	4.0	4.0	0.0	1	left	2.0	0.0	1.0	0	-0.07394233347849999	blockFiles/set_33/main_unc/leftBlue\GB_LB_1.xlsx
367	main_unc	True	0.0	122	0	4.0	4.0	1.0	1	right	1.0	1.0	1.0	1	0.013893646150799998	blockFiles/set_33/main_unc/leftBlue\GB_LB_1.xlsx
368	main_unc	True	0.0	122	0	4.0	4.0	1.0	1	right	1.0	1.0	1.0	1	0.077278679572	blockFiles/set_33/main_unc/leftBlue\GB_LB_1.xlsx
369	main_unc	True	1.0	122	0	4.0	4.0	n/a	0	None	n/a	0.0	n/a	1	0.0131004750915	blockFiles/set_33/main_unc/leftBlue\GB_LB_1.xlsx
370	main_unc	True	0.0	122	0	4.0	4.0	1.0	1	right	1.0	1.0	1.0	1	0.0738484143093	blockFiles/set_33/main_unc/leftBlue\GB_LB_1.xlsx
371	main_unc	True	0.0	122	0	4.0	4.0	1.0	0	right	1.0	0.0	0.0	0	-0.0075774374418000005	blockFiles/set_33/main_unc/leftBlue\GB_LB_1.xlsx
372	main_unc	True	0.0	122	0	4.0	4.0	1.0	1	right	1.0	1.0	1.0	1	0.049879841785900006	blockFiles/set_33/main_unc/leftBlue\GB_LB_1.xlsx
373	main_unc	True	1.0	122	0	4.0	4.0	0.0	1	left	n/a	0.0	n/a	0	-0.0121654641442	blockFiles/set_33/main_unc/leftBlue\GB_LB_1.xlsx
374	main_unc	True	0.0	122	0	4.0	4.0	0.0	0	left	1.0	0.0	1.0	1	0.039510648977000004	blockFiles/set_33/main_unc/leftBlue\GB_LB_1.xlsx
375	main_unc	True	0.0	122	0	4.0	4.0	1.0	1	right	2.0	0.0	0.0	1	0.0637989306822	blockFiles/set_33/main_unc/leftBlue\GB_LB_1.xlsx
376	main_unc	True	0.0	122	0	4.0	4.0	0.0	1	left	2.0	1.0	1.0	0	-0.035224348120400005	blockFiles/set_33/main_unc/leftBlue\GB_LB_1.xlsx
377	main_unc	True	0.0	122	0	4.0	4.0	0.0	1	left	2.0	1.0	1.0	0	-0.0413414939865	blockFiles/set_33/main_unc/leftBlue\GB_LB_1.xlsx
378	main_unc	True	0.0	122	0	4.0	4.0	0.0	1	left	2.0	0.0	1.0	0	-0.049462801963099996	blockFiles/set_33/main_unc/leftBlue\GB_LB_1.xlsx
379	main_unc	True	1.0	122	0	4.0	4.0	0.0	1	left	n/a	0.0	n/a	0	-0.0648962048814	blockFiles/set_33/main_unc/leftBlue\GB_LB_1.xlsx
380	main_unc	True	0.0	122	0	4.0	4.0	1.0	1	right	1.0	1.0	1.0	1	0.0285196850635	blockFiles/set_33/main_unc/leftBlue\GB_LB_1.xlsx
381	main_unc	True	0.0	122	0	4.0	4.0	0.0	1	left	1.0	0.0	0.0	0	-0.014612478408999999	blockFiles/set_33/main_unc/leftBlue\GB_LB_1.xlsx
382	main_unc	True	1.0	122	0	4.0	4.0	0.0	1	left	n/a	0.0	n/a	0	-0.0305649297871	blockFiles/set_33/main_unc/leftBlue\GB_LB_1.xlsx
383	main_unc	True	0.0	122	0	4.0	4.0	1.0	1	right	1.0	1.0	1.0	1	0.07956110402939999	blockFiles/set_33/main_unc/leftBlue\GB_LB_1.xlsx
384	main_unc	True	0.0	122	0	4.0	4.0	1.0	1	right	1.0	1.0	1.0	1	0.0206681871042	blockFiles/set_33/main_unc/leftBlue\GB_LB_1.xlsx
385	main_unc	True	0.0	122	0	4.0	4.0	n/a	0	None	n/a	0.0	n/a	0	-0.0150297248363	blockFiles/set_33/main_unc/leftBlue\GB_LB_1.xlsx
386	main_unc	True	0.0	122	0	4.0	4.0	1.0	0	right	n/a	0.0	n/a	0	-0.0150297248363	blockFiles/set_33/main_unc/leftBlue\GB_LB_1.xlsx
387	main_unc	True	0.0	122	0	4.0	4.0	0.0	1	left	2.0	0.0	1.0	0	-0.0150297248363	blockFiles/set_33/main_unc/leftBlue\GB_LB_1.xlsx
388	main_unc	True	0.0	122	0	4.0	4.0	1.0	1	right	1.0	1.0	1.0	1	0.0131004750915	blockFiles/set_33/main_unc/leftBlue\GB_LB_1.xlsx
389	main_unc	True	0.0	122	0	4.0	4.0	0.0	1	left	2.0	1.0	1.0	0	-0.0121654641442	blockFiles/set_33/main_unc/leftBlue\GB_LB_1.xlsx
390	main_unc	True	0.0	122	0	4.0	4.0	0.0	1	left	1.0	1.0	0.0	0	-0.0648962048814	blockFiles/set_33/main_unc/leftBlue\GB_LB_1.xlsx
391	main_unc	True	0.0	122	0	4.0	4.0	0.0	1	left	2.0	0.0	1.0	0	-0.0305649297871	blockFiles/set_33/main_unc/leftBlue\GB_LB_1.xlsx
392	main_unc	True	0.0	122	0	5.0	5.0	1.0	0	right	1.0	0.0	0.0	0	-0.0159534883872	blockFiles/set_33/main_unc/leftBlue\GB_LB_4.xlsx
393	main_unc	True	0.0	122	0	5.0	5.0	0.0	1	left	1.0	0.0	0.0	0	-0.054833326228	blockFiles/set_33/main_unc/leftBlue\GB_LB_4.xlsx
394	main_unc	True	0.0	122	0	5.0	5.0	0.0	1	left	2.0	0.0	1.0	0	-0.00245323102921	blockFiles/set_33/main_unc/leftBlue\GB_LB_4.xlsx
395	main_unc	True	0.0	122	0	5.0	5.0	1.0	1	right	2.0	1.0	0.0	1	0.0305837534741	blockFiles/set_33/main_unc/leftBlue\GB_LB_4.xlsx
396	main_unc	True	0.0	122	0	5.0	5.0	1.0	1	right	2.0	0.0	0.0	1	0.020765561536	blockFiles/set_33/main_unc/leftBlue\GB_LB_4.xlsx
397	main_unc	True	0.0	122	0	5.0	5.0	0.0	1	left	1.0	0.0	0.0	0	-0.0433026681654	blockFiles/set_33/main_unc/leftBlue\GB_LB_4.xlsx
398	main_unc	True	0.0	122	0	5.0	5.0	1.0	1	right	2.0	0.0	0.0	1	0.0687158448994	blockFiles/set_33/main_unc/leftBlue\GB_LB_4.xlsx
399	main_unc	True	0.0	122	0	5.0	5.0	0.0	1	left	1.0	0.0	0.0	0	-0.0523054570891	blockFiles/set_33/main_unc/leftBlue\GB_LB_4.xlsx
400	main_unc	True	0.0	122	0	5.0	5.0	0.0	1	left	1.0	0.0	0.0	0	-0.0421971976757	blockFiles/set_33/main_unc/leftBlue\GB_LB_4.xlsx
401	main_unc	True	0.0	122	0	5.0	5.0	0.0	1	left	1.0	1.0	0.0	0	-0.009809994418170001	blockFiles/set_33/main_unc/leftBlue\GB_LB_4.xlsx
402	main_unc	True	0.0	122	0	5.0	5.0	1.0	1	right	2.0	0.0	0.0	1	0.072136163041	blockFiles/set_33/main_unc/leftBlue\GB_LB_4.xlsx
403	main_unc	True	1.0	122	0	5.0	5.0	n/a	0	None	n/a	0.0	n/a	1	0.057123968191400004	blockFiles/set_33/main_unc/leftBlue\GB_LB_4.xlsx
404	main_unc	True	0.0	122	0	5.0	5.0	1.0	1	right	1.0	1.0	1.0	1	0.028765678461599997	blockFiles/set_33/main_unc/leftBlue\GB_LB_4.xlsx
405	main_unc	True	0.0	122	0	5.0	5.0	1.0	1	right	1.0	1.0	1.0	1	0.06551556034009999	blockFiles/set_33/main_unc/leftBlue\GB_LB_4.xlsx
406	main_unc	True	0.0	122	0	5.0	5.0	1.0	0	right	1.0	0.0	0.0	0	-0.00826661884785	blockFiles/set_33/main_unc/leftBlue\GB_LB_4.xlsx
407	main_unc	True	0.0	122	0	5.0	5.0	0.0	1	left	2.0	0.0	1.0	0	-0.0394500785135	blockFiles/set_33/main_unc/leftBlue\GB_LB_4.xlsx
408	main_unc	True	0.0	122	0	5.0	5.0	1.0	1	right	1.0	1.0	1.0	1	0.0622028194927	blockFiles/set_33/main_unc/leftBlue\GB_LB_4.xlsx
409	main_unc	True	1.0	122	0	5.0	5.0	n/a	0	None	n/a	0.0	n/a	1	0.0216986018792	blockFiles/set_33/main_unc/leftBlue\GB_LB_4.xlsx
410	main_unc	True	1.0	122	0	5.0	5.0	n/a	0	None	n/a	0.0	n/a	1	0.0430461272784	blockFiles/set_33/main_unc/leftBlue\GB_LB_4.xlsx
411	main_unc	True	0.0	122	0	5.0	5.0	0.0	1	left	2.0	1.0	1.0	0	-0.0399486913718	blockFiles/set_33/main_unc/leftBlue\GB_LB_4.xlsx
412	main_unc	True	1.0	122	0	5.0	5.0	n/a	0	None	n/a	0.0	n/a	1	0.0525811936334	blockFiles/set_33/main_unc/leftBlue\GB_LB_4.xlsx
413	main_unc	True	0.0	122	0	5.0	5.0	1.0	1	right	1.0	1.0	1.0	1	0.029613355509900005	blockFiles/set_33/main_unc/leftBlue\GB_LB_4.xlsx
414	main_unc	True	1.0	122	0	5.0	5.0	1.0	1	right	n/a	0.0	n/a	1	0.05744539130480001	blockFiles/set_33/main_unc/leftBlue\GB_LB_4.xlsx
415	main_unc	True	0.0	122	0	5.0	5.0	0.0	1	left	2.0	0.0	1.0	0	-0.0652974942699	blockFiles/set_33/main_unc/leftBlue\GB_LB_4.xlsx
416	main_unc	True	1.0	122	0	5.0	5.0	0.0	0	left	n/a	0.0	n/a	1	0.000954006444663	blockFiles/set_33/main_unc/leftBlue\GB_LB_4.xlsx
417	main_unc	True	0.0	122	0	5.0	5.0	1.0	1	right	2.0	0.0	0.0	1	0.057123968191400004	blockFiles/set_33/main_unc/leftBlue\GB_LB_4.xlsx
418	main_unc	True	0.0	122	0	5.0	5.0	0.0	0	left	1.0	1.0	1.0	1	0.0216986018792	blockFiles/set_33/main_unc/leftBlue\GB_LB_4.xlsx
419	main_unc	True	0.0	122	0	5.0	5.0	1.0	1	right	1.0	1.0	1.0	1	0.0430461272784	blockFiles/set_33/main_unc/leftBlue\GB_LB_4.xlsx
420	main_unc	True	0.0	122	0	5.0	5.0	1.0	1	right	1.0	1.0	1.0	1	0.0525811936334	blockFiles/set_33/main_unc/leftBlue\GB_LB_4.xlsx
421	main_unc	True	0.0	122	0	5.0	5.0	n/a	0	None	n/a	0.0	n/a	1	0.05744539130480001	blockFiles/set_33/main_unc/leftBlue\GB_LB_4.xlsx
422	main_unc	True	0.0	122	0	5.0	5.0	0.0	0	left	1.0	1.0	1.0	1	0.05744539130480001	blockFiles/set_33/main_unc/leftBlue\GB_LB_4.xlsx
423	main_unc	True	0.0	122	0	5.0	5.0	0.0	0	left	2.0	0.0	0.0	1	0.000954006444663	blockFiles/set_33/main_unc/leftBlue\GB_LB_4.xlsx
424	main_unc	True	0.0	122	0	6.0	6.0	1.0	1	right	1.0	1.0	0.0	1	0.0154478944279	blockFiles/set_33/main_unc/rightBlue\GB_RB_4.xlsx
425	main_unc	True	1.0	122	0	6.0	6.0	n/a	0	None	n/a	0.0	n/a	0	-0.00789259439334	blockFiles/set_33/main_unc/rightBlue\GB_RB_4.xlsx
426	main_unc	True	0.0	122	0	6.0	6.0	1.0	0	right	1.0	1.0	1.0	0	-0.00227395320311	blockFiles/set_33/main_unc/rightBlue\GB_RB_4.xlsx
427	main_unc	True	0.0	122	0	6.0	6.0	1.0	1	right	1.0	0.0	0.0	1	0.07871201092380001	blockFiles/set_33/main_unc/rightBlue\GB_RB_4.xlsx
428	main_unc	True	0.0	122	0	6.0	6.0	0.0	1	left	2.0	0.0	0.0	0	-0.035259801652300006	blockFiles/set_33/main_unc/rightBlue\GB_RB_4.xlsx
429	main_unc	True	0.0	122	0	6.0	6.0	1.0	1	right	1.0	0.0	0.0	1	0.057055204995	blockFiles/set_33/main_unc/rightBlue\GB_RB_4.xlsx
430	main_unc	True	0.0	122	0	6.0	6.0	0.0	1	left	2.0	0.0	0.0	0	-0.0511950339563	blockFiles/set_33/main_unc/rightBlue\GB_RB_4.xlsx
431	main_unc	True	0.0	122	0	6.0	6.0	1.0	1	right	2.0	0.0	1.0	1	0.0751509412564	blockFiles/set_33/main_unc/rightBlue\GB_RB_4.xlsx
432	main_unc	True	0.0	122	0	6.0	6.0	1.0	1	right	1.0	0.0	0.0	1	0.030389982461900004	blockFiles/set_33/main_unc/rightBlue\GB_RB_4.xlsx
433	main_unc	True	0.0	122	0	6.0	6.0	0.0	1	left	1.0	1.0	1.0	0	-0.0102890227735	blockFiles/set_33/main_unc/rightBlue\GB_RB_4.xlsx
434	main_unc	True	0.0	122	0	6.0	6.0	1.0	1	right	1.0	0.0	0.0	1	0.0427689454146	blockFiles/set_33/main_unc/rightBlue\GB_RB_4.xlsx
435	main_unc	True	0.0	122	0	6.0	6.0	1.0	1	right	1.0	1.0	0.0	1	0.057851088848	blockFiles/set_33/main_unc/rightBlue\GB_RB_4.xlsx
436	main_unc	True	0.0	122	0	6.0	6.0	0.0	1	left	2.0	0.0	0.0	0	-0.0268915388919	blockFiles/set_33/main_unc/rightBlue\GB_RB_4.xlsx
437	main_unc	True	1.0	122	0	6.0	6.0	1.0	1	right	n/a	0.0	n/a	1	0.0652382395789	blockFiles/set_33/main_unc/rightBlue\GB_RB_4.xlsx
438	main_unc	True	0.0	122	0	6.0	6.0	0.0	1	left	2.0	0.0	0.0	0	-0.0423419790715	blockFiles/set_33/main_unc/rightBlue\GB_RB_4.xlsx
439	main_unc	True	0.0	122	0	6.0	6.0	0.0	1	left	2.0	0.0	0.0	0	-0.04748304056	blockFiles/set_33/main_unc/rightBlue\GB_RB_4.xlsx
440	main_unc	True	0.0	122	0	6.0	6.0	0.0	1	left	2.0	0.0	0.0	0	-0.0624994978495	blockFiles/set_33/main_unc/rightBlue\GB_RB_4.xlsx
441	main_unc	True	0.0	122	0	6.0	6.0	0.0	1	left	2.0	0.0	0.0	0	-0.013254566881799998	blockFiles/set_33/main_unc/rightBlue\GB_RB_4.xlsx
442	main_unc	True	0.0	122	0	6.0	6.0	1.0	1	right	2.0	1.0	1.0	1	0.007032900676130001	blockFiles/set_33/main_unc/rightBlue\GB_RB_4.xlsx
443	main_unc	True	0.0	122	0	6.0	6.0	0.0	1	left	2.0	0.0	0.0	0	-0.0604006331228	blockFiles/set_33/main_unc/rightBlue\GB_RB_4.xlsx
444	main_unc	True	0.0	122	0	6.0	6.0	0.0	1	left	2.0	0.0	0.0	0	-0.0226582480408	blockFiles/set_33/main_unc/rightBlue\GB_RB_4.xlsx
445	main_unc	True	0.0	122	0	6.0	6.0	0.0	1	left	2.0	0.0	0.0	0	-0.0477547579445	blockFiles/set_33/main_unc/rightBlue\GB_RB_4.xlsx
446	main_unc	True	0.0	122	0	6.0	6.0	1.0	1	right	2.0	1.0	1.0	1	0.0245437331684	blockFiles/set_33/main_unc/rightBlue\GB_RB_4.xlsx
447	main_unc	True	0.0	122	0	6.0	6.0	1.0	1	right	2.0	1.0	1.0	1	0.029297423549	blockFiles/set_33/main_unc/rightBlue\GB_RB_4.xlsx
448	main_unc	True	0.0	122	0	6.0	6.0	1.0	1	right	2.0	1.0	1.0	1	0.0511334685795	blockFiles/set_33/main_unc/rightBlue\GB_RB_4.xlsx
449	main_unc	True	0.0	122	0	6.0	6.0	1.0	0	right	2.0	0.0	0.0	0	-0.00789259439334	blockFiles/set_33/main_unc/rightBlue\GB_RB_4.xlsx
450	main_unc	True	0.0	122	0	6.0	6.0	1.0	1	right	2.0	0.0	1.0	1	0.0652382395789	blockFiles/set_33/main_unc/rightBlue\GB_RB_4.xlsx
451	main_unc	True	0.0	122	0	7.0	7.0	1.0	1	right	1.0	0.0	0.0	1	0.0482515929081	blockFiles/set_33/main_unc/rightBlue\GB_RB_2.xlsx
452	main_unc	True	0.0	122	0	7.0	7.0	0.0	1	left	2.0	0.0	0.0	0	-0.0787949880213	blockFiles/set_33/main_unc/rightBlue\GB_RB_2.xlsx
453	main_unc	True	0.0	122	0	7.0	7.0	1.0	1	right	2.0	1.0	1.0	1	0.023711150717	blockFiles/set_33/main_unc/rightBlue\GB_RB_2.xlsx
454	main_unc	True	0.0	122	0	7.0	7.0	0.0	1	left	1.0	1.0	1.0	0	-0.036420928426099994	blockFiles/set_33/main_unc/rightBlue\GB_RB_2.xlsx
455	main_unc	True	0.0	122	0	7.0	7.0	1.0	1	right	2.0	1.0	1.0	1	0.037209392823300005	blockFiles/set_33/main_unc/rightBlue\GB_RB_2.xlsx
456	main_unc	True	0.0	122	0	7.0	7.0	1.0	1	right	2.0	0.0	1.0	1	0.05567629847680001	blockFiles/set_33/main_unc/rightBlue\GB_RB_2.xlsx
457	main_unc	True	0.0	122	0	7.0	7.0	1.0	0	right	2.0	0.0	0.0	0	-0.013192585650799999	blockFiles/set_33/main_unc/rightBlue\GB_RB_2.xlsx
458	main_unc	True	0.0	122	0	7.0	7.0	1.0	1	right	2.0	1.0	1.0	1	0.07953115718439999	blockFiles/set_33/main_unc/rightBlue\GB_RB_2.xlsx
459	main_unc	True	0.0	122	0	7.0	7.0	0.0	1	left	1.0	1.0	1.0	0	-0.044069105424	blockFiles/set_33/main_unc/rightBlue\GB_RB_2.xlsx
460	main_unc	True	0.0	122	0	7.0	7.0	0.0	1	left	1.0	1.0	1.0	0	-0.011222521886200001	blockFiles/set_33/main_unc/rightBlue\GB_RB_2.xlsx
461	main_unc	True	1.0	122	0	7.0	7.0	1.0	0	right	n/a	0.0	n/a	0	-0.022617187798	blockFiles/set_33/main_unc/rightBlue\GB_RB_2.xlsx
462	main_unc	True	0.0	122	0	7.0	7.0	1.0	1	right	2.0	1.0	1.0	1	0.025955598037700003	blockFiles/set_33/main_unc/rightBlue\GB_RB_2.xlsx
463	main_unc	True	0.0	122	0	7.0	7.0	1.0	1	right	2.0	1.0	1.0	1	0.0255331722274	blockFiles/set_33/main_unc/rightBlue\GB_RB_2.xlsx
464	main_unc	True	1.0	122	0	7.0	7.0	n/a	0	None	n/a	0.0	n/a	0	-0.0781275155209	blockFiles/set_33/main_unc/rightBlue\GB_RB_2.xlsx
465	main_unc	True	0.0	122	0	7.0	7.0	0.0	1	left	1.0	1.0	1.0	0	-0.043828382510699995	blockFiles/set_33/main_unc/rightBlue\GB_RB_2.xlsx
466	main_unc	True	0.0	122	0	7.0	7.0	0.0	1	left	1.0	1.0	1.0	0	-0.0393130895309	blockFiles/set_33/main_unc/rightBlue\GB_RB_2.xlsx
467	main_unc	True	0.0	122	0	7.0	7.0	0.0	1	left	1.0	1.0	1.0	0	-0.0406145461835	blockFiles/set_33/main_unc/rightBlue\GB_RB_2.xlsx
468	main_unc	True	0.0	122	0	7.0	7.0	1.0	1	right	2.0	1.0	1.0	1	0.0600557191297	blockFiles/set_33/main_unc/rightBlue\GB_RB_2.xlsx
469	main_unc	True	1.0	122	0	7.0	7.0	n/a	0	None	n/a	0.0	n/a	1	0.0308956967667	blockFiles/set_33/main_unc/rightBlue\GB_RB_2.xlsx
470	main_unc	True	0.0	122	0	7.0	7.0	1.0	0	right	2.0	0.0	0.0	0	-0.00524796796963	blockFiles/set_33/main_unc/rightBlue\GB_RB_2.xlsx
471	main_unc	True	0.0	122	0	7.0	7.0	0.0	1	left	2.0	1.0	0.0	0	-0.06916375609110001	blockFiles/set_33/main_unc/rightBlue\GB_RB_2.xlsx
472	main_unc	True	0.0	122	0	7.0	7.0	0.0	1	left	2.0	0.0	0.0	0	-0.0412738558836	blockFiles/set_33/main_unc/rightBlue\GB_RB_2.xlsx
473	main_unc	True	1.0	122	0	7.0	7.0	1.0	1	right	n/a	0.0	n/a	1	0.0538066417165	blockFiles/set_33/main_unc/rightBlue\GB_RB_2.xlsx
474	main_unc	True	0.0	122	0	7.0	7.0	1.0	1	right	1.0	0.0	0.0	1	0.0285487564467	blockFiles/set_33/main_unc/rightBlue\GB_RB_2.xlsx
475	main_unc	True	1.0	122	0	7.0	7.0	n/a	0	None	n/a	0.0	n/a	1	0.05179925110190001	blockFiles/set_33/main_unc/rightBlue\GB_RB_2.xlsx
476	main_unc	True	0.0	122	0	7.0	7.0	n/a	0	None	n/a	0.0	n/a	0	-0.022617187798	blockFiles/set_33/main_unc/rightBlue\GB_RB_2.xlsx
477	main_unc	True	0.0	122	0	7.0	7.0	n/a	0	None	n/a	0.0	n/a	0	-0.022617187798	blockFiles/set_33/main_unc/rightBlue\GB_RB_2.xlsx
478	main_unc	True	0.0	122	0	7.0	7.0	1.0	0	right	1.0	1.0	1.0	0	-0.022617187798	blockFiles/set_33/main_unc/rightBlue\GB_RB_2.xlsx
479	main_unc	True	0.0	122	0	7.0	7.0	0.0	1	left	2.0	1.0	0.0	0	-0.0781275155209	blockFiles/set_33/main_unc/rightBlue\GB_RB_2.xlsx
480	main_unc	True	0.0	122	0	7.0	7.0	1.0	1	right	1.0	1.0	0.0	1	0.0308956967667	blockFiles/set_33/main_unc/rightBlue\GB_RB_2.xlsx
481	main_unc	True	0.0	122	0	7.0	7.0	1.0	1	right	1.0	1.0	0.0	1	0.0538066417165	blockFiles/set_33/main_unc/rightBlue\GB_RB_2.xlsx
482	main_unc	True	0.0	122	0	7.0	7.0	1.0	1	right	1.0	0.0	0.0	1	0.05179925110190001	blockFiles/set_33/main_unc/rightBlue\GB_RB_2.xlsx
483	main_unc	True	0.0	122	0	8.0	8.0	0.0	1	left	1.0	0.0	1.0	0	-0.035096991062199996	blockFiles/set_33/main_unc/rightBlue\GB_RB_1.xlsx
484	main_unc	True	0.0	122	0	8.0	8.0	0.0	1	left	1.0	1.0	1.0	0	-0.0419066709094	blockFiles/set_33/main_unc/rightBlue\GB_RB_1.xlsx
485	main_unc	True	0.0	122	0	8.0	8.0	0.0	1	left	1.0	1.0	1.0	0	-0.04174031741919999	blockFiles/set_33/main_unc/rightBlue\GB_RB_1.xlsx
486	main_unc	True	0.0	122	0	8.0	8.0	1.0	1	right	2.0	1.0	1.0	1	0.0658448113315	blockFiles/set_33/main_unc/rightBlue\GB_RB_1.xlsx
487	main_unc	True	0.0	122	0	8.0	8.0	1.0	1	right	2.0	1.0	1.0	1	0.00405996190384	blockFiles/set_33/main_unc/rightBlue\GB_RB_1.xlsx
488	main_unc	True	0.0	122	0	8.0	8.0	1.0	1	right	2.0	1.0	1.0	1	0.0290552666597	blockFiles/set_33/main_unc/rightBlue\GB_RB_1.xlsx
489	main_unc	True	0.0	122	0	8.0	8.0	1.0	0	right	2.0	0.0	0.0	0	-0.00020016180351400002	blockFiles/set_33/main_unc/rightBlue\GB_RB_1.xlsx
490	main_unc	True	0.0	122	0	8.0	8.0	1.0	1	right	2.0	1.0	1.0	1	0.0394587222859	blockFiles/set_33/main_unc/rightBlue\GB_RB_1.xlsx
491	main_unc	True	0.0	122	0	8.0	8.0	1.0	1	right	2.0	1.0	1.0	1	0.0666032953002	blockFiles/set_33/main_unc/rightBlue\GB_RB_1.xlsx
492	main_unc	True	1.0	122	0	8.0	8.0	1.0	1	right	n/a	0.0	n/a	1	0.0294646544009	blockFiles/set_33/main_unc/rightBlue\GB_RB_1.xlsx
493	main_unc	True	0.0	122	0	8.0	8.0	0.0	1	left	1.0	1.0	1.0	0	-0.0495659207739	blockFiles/set_33/main_unc/rightBlue\GB_RB_1.xlsx
494	main_unc	True	0.0	122	0	8.0	8.0	0.0	1	left	1.0	0.0	1.0	0	-0.06863898063080001	blockFiles/set_33/main_unc/rightBlue\GB_RB_1.xlsx
495	main_unc	True	0.0	122	0	8.0	8.0	0.0	1	left	1.0	1.0	1.0	0	-0.04251773260530001	blockFiles/set_33/main_unc/rightBlue\GB_RB_1.xlsx
496	main_unc	True	0.0	122	0	8.0	8.0	0.0	0	left	1.0	0.0	0.0	1	0.0208899788558	blockFiles/set_33/main_unc/rightBlue\GB_RB_1.xlsx
497	main_unc	True	1.0	122	0	8.0	8.0	n/a	0	None	n/a	0.0	n/a	0	-0.0738388012163	blockFiles/set_33/main_unc/rightBlue\GB_RB_1.xlsx
498	main_unc	True	0.0	122	0	8.0	8.0	0.0	1	left	1.0	1.0	1.0	0	-0.0385978293046	blockFiles/set_33/main_unc/rightBlue\GB_RB_1.xlsx
499	main_unc	True	0.0	122	0	8.0	8.0	0.0	1	left	1.0	0.0	1.0	0	-0.026088962312799998	blockFiles/set_33/main_unc/rightBlue\GB_RB_1.xlsx
500	main_unc	True	0.0	122	0	8.0	8.0	0.0	1	left	1.0	1.0	1.0	0	-0.052495146058499996	blockFiles/set_33/main_unc/rightBlue\GB_RB_1.xlsx
501	main_unc	True	1.0	122	0	8.0	8.0	0.0	1	left	n/a	0.0	n/a	0	-0.022960076909500002	blockFiles/set_33/main_unc/rightBlue\GB_RB_1.xlsx
502	main_unc	True	0.0	122	0	8.0	8.0	0.0	1	left	1.0	0.0	1.0	0	-0.0650452911109	blockFiles/set_33/main_unc/rightBlue\GB_RB_1.xlsx
503	main_unc	True	0.0	122	0	8.0	8.0	0.0	0	left	1.0	0.0	0.0	1	0.0431652740948	blockFiles/set_33/main_unc/rightBlue\GB_RB_1.xlsx
504	main_unc	True	0.0	122	0	8.0	8.0	0.0	1	left	1.0	1.0	1.0	0	-0.0632962673157	blockFiles/set_33/main_unc/rightBlue\GB_RB_1.xlsx
505	main_unc	True	1.0	122	0	8.0	8.0	n/a	0	None	n/a	0.0	n/a	1	0.0029911299049899995	blockFiles/set_33/main_unc/rightBlue\GB_RB_1.xlsx
506	main_unc	True	0.0	122	0	8.0	8.0	1.0	1	right	2.0	1.0	1.0	1	0.0795872889273	blockFiles/set_33/main_unc/rightBlue\GB_RB_1.xlsx
507	main_unc	True	0.0	122	0	8.0	8.0	1.0	1	right	2.0	1.0	1.0	1	0.014161006901399998	blockFiles/set_33/main_unc/rightBlue\GB_RB_1.xlsx
508	main_unc	True	0.0	122	0	8.0	8.0	1.0	1	right	2.0	1.0	1.0	1	0.0294646544009	blockFiles/set_33/main_unc/rightBlue\GB_RB_1.xlsx
509	main_unc	True	0.0	122	0	8.0	8.0	0.0	1	left	1.0	1.0	1.0	0	-0.0738388012163	blockFiles/set_33/main_unc/rightBlue\GB_RB_1.xlsx
510	main_unc	True	0.0	122	0	8.0	8.0	n/a	0	None	n/a	0.0	n/a	0	-0.022960076909500002	blockFiles/set_33/main_unc/rightBlue\GB_RB_1.xlsx
511	main_unc	True	0.0	122	0	8.0	8.0	0.0	1	left	2.0	1.0	0.0	0	-0.022960076909500002	blockFiles/set_33/main_unc/rightBlue\GB_RB_1.xlsx
512	main_unc	True	0.0	122	0	8.0	8.0	1.0	1	right	2.0	1.0	1.0	1	0.0029911299049899995	blockFiles/set_33/main_unc/rightBlue\GB_RB_1.xlsx
513	main_unc	True	0.0	122	0	9.0	9.0	0.0	1	left	1.0	1.0	1.0	0	-0.04944354876880001	blockFiles/set_33/main_unc/rightBlue\GB_RB_6.xlsx
514	main_unc	True	0.0	122	0	9.0	9.0	0.0	1	left	1.0	1.0	1.0	0	-0.0340887833014	blockFiles/set_33/main_unc/rightBlue\GB_RB_6.xlsx
515	main_unc	True	0.0	122	0	9.0	9.0	1.0	1	right	2.0	0.0	1.0	1	0.0583552430198	blockFiles/set_33/main_unc/rightBlue\GB_RB_6.xlsx
516	main_unc	True	0.0	122	0	9.0	9.0	1.0	1	right	2.0	1.0	1.0	1	0.0393313746341	blockFiles/set_33/main_unc/rightBlue\GB_RB_6.xlsx
517	main_unc	True	0.0	122	0	9.0	9.0	1.0	1	right	2.0	1.0	1.0	1	0.053990158774	blockFiles/set_33/main_unc/rightBlue\GB_RB_6.xlsx
518	main_unc	True	1.0	122	0	9.0	9.0	1.0	1	right	n/a	0.0	n/a	1	0.0762480691075	blockFiles/set_33/main_unc/rightBlue\GB_RB_6.xlsx
519	main_unc	True	1.0	122	0	9.0	9.0	n/a	0	None	n/a	0.0	n/a	0	-0.029220921900100002	blockFiles/set_33/main_unc/rightBlue\GB_RB_6.xlsx
520	main_unc	True	0.0	122	0	9.0	9.0	1.0	0	right	2.0	0.0	0.0	0	-0.0175846641324	blockFiles/set_33/main_unc/rightBlue\GB_RB_6.xlsx
521	main_unc	True	0.0	122	0	9.0	9.0	0.0	1	left	2.0	0.0	0.0	0	-0.0201735389046	blockFiles/set_33/main_unc/rightBlue\GB_RB_6.xlsx
522	main_unc	True	0.0	122	0	9.0	9.0	1.0	1	right	2.0	1.0	1.0	1	0.0564318671636	blockFiles/set_33/main_unc/rightBlue\GB_RB_6.xlsx
523	main_unc	True	0.0	122	0	9.0	9.0	0.0	1	left	1.0	0.0	1.0	0	-0.0695282978751	blockFiles/set_33/main_unc/rightBlue\GB_RB_6.xlsx
524	main_unc	True	0.0	122	0	9.0	9.0	0.0	1	left	1.0	1.0	1.0	0	-0.048983495514799996	blockFiles/set_33/main_unc/rightBlue\GB_RB_6.xlsx
525	main_unc	True	0.0	122	0	9.0	9.0	1.0	1	right	2.0	1.0	1.0	1	0.061401057671800006	blockFiles/set_33/main_unc/rightBlue\GB_RB_6.xlsx
526	main_unc	True	1.0	122	0	9.0	9.0	1.0	1	right	n/a	0.0	n/a	1	0.0466019753553	blockFiles/set_33/main_unc/rightBlue\GB_RB_6.xlsx
527	main_unc	True	0.0	122	0	9.0	9.0	1.0	0	right	1.0	0.0	1.0	0	-0.024424168095	blockFiles/set_33/main_unc/rightBlue\GB_RB_6.xlsx
528	main_unc	True	0.0	122	0	9.0	9.0	1.0	1	right	2.0	1.0	1.0	1	0.006145317852499999	blockFiles/set_33/main_unc/rightBlue\GB_RB_6.xlsx
529	main_unc	True	0.0	122	0	9.0	9.0	0.0	1	left	2.0	0.0	0.0	0	-0.0590045502223	blockFiles/set_33/main_unc/rightBlue\GB_RB_6.xlsx
530	main_unc	True	0.0	122	0	9.0	9.0	1.0	1	right	2.0	1.0	1.0	1	0.0764072877169	blockFiles/set_33/main_unc/rightBlue\GB_RB_6.xlsx
531	main_unc	True	0.0	122	0	9.0	9.0	1.0	1	right	1.0	1.0	0.0	1	0.043427018970300005	blockFiles/set_33/main_unc/rightBlue\GB_RB_6.xlsx
532	main_unc	True	0.0	122	0	9.0	9.0	0.0	1	left	2.0	0.0	0.0	0	-0.024029640313200002	blockFiles/set_33/main_unc/rightBlue\GB_RB_6.xlsx
533	main_unc	True	1.0	122	0	9.0	9.0	n/a	0	None	n/a	0.0	n/a	0	-0.0773280447349	blockFiles/set_33/main_unc/rightBlue\GB_RB_6.xlsx
534	main_unc	True	0.0	122	0	9.0	9.0	1.0	1	right	1.0	0.0	0.0	1	0.00152600398287	blockFiles/set_33/main_unc/rightBlue\GB_RB_6.xlsx
535	main_unc	True	0.0	122	0	9.0	9.0	1.0	1	right	1.0	0.0	0.0	1	0.050707782916699994	blockFiles/set_33/main_unc/rightBlue\GB_RB_6.xlsx
536	main_unc	True	0.0	122	0	9.0	9.0	0.0	1	left	1.0	1.0	1.0	0	-0.0634887237474	blockFiles/set_33/main_unc/rightBlue\GB_RB_6.xlsx
537	main_unc	True	0.0	122	0	9.0	9.0	1.0	1	right	2.0	1.0	1.0	1	0.0597653389908	blockFiles/set_33/main_unc/rightBlue\GB_RB_6.xlsx
538	main_unc	True	0.0	122	0	9.0	9.0	1.0	1	right	2.0	1.0	1.0	1	0.0762480691075	blockFiles/set_33/main_unc/rightBlue\GB_RB_6.xlsx
539	main_unc	True	0.0	122	0	9.0	9.0	0.0	1	left	1.0	0.0	1.0	0	-0.029220921900100002	blockFiles/set_33/main_unc/rightBlue\GB_RB_6.xlsx
540	main_unc	True	0.0	122	0	9.0	9.0	1.0	1	right	2.0	1.0	1.0	1	0.0466019753553	blockFiles/set_33/main_unc/rightBlue\GB_RB_6.xlsx
541	main_unc	True	0.0	122	0	9.0	9.0	0.0	1	left	1.0	1.0	1.0	0	-0.0773280447349	blockFiles/set_33/main_unc/rightBlue\GB_RB_6.xlsx
542	main_unc	True	0.0	122	0	10.0	10.0	0.0	1	left	2.0	1.0	1.0	0	-0.0635969075002	blockFiles/set_33/main_unc/leftBlue\GB_LB_6.xlsx
543	main_unc	True	0.0	122	0	10.0	10.0	1.0	0	right	1.0	0.0	0.0	0	-0.0037288267538000005	blockFiles/set_33/main_unc/leftBlue\GB_LB_6.xlsx
544	main_unc	True	0.0	122	0	10.0	10.0	0.0	1	left	1.0	0.0	0.0	0	-0.0483741957135	blockFiles/set_33/main_unc/leftBlue\GB_LB_6.xlsx
545	main_unc	True	0.0	122	0	10.0	10.0	1.0	1	right	1.0	1.0	1.0	1	0.0472656526975	blockFiles/set_33/main_unc/leftBlue\GB_LB_6.xlsx
546	main_unc	True	0.0	122	0	10.0	10.0	1.0	1	right	1.0	1.0	1.0	1	0.07210479618980001	blockFiles/set_33/main_unc/leftBlue\GB_LB_6.xlsx
547	main_unc	True	0.0	122	0	10.0	10.0	0.0	1	left	1.0	0.0	0.0	0	-0.000155843440443	blockFiles/set_33/main_unc/leftBlue\GB_LB_6.xlsx
548	main_unc	True	0.0	122	0	10.0	10.0	1.0	1	right	1.0	0.0	1.0	1	0.061494474709	blockFiles/set_33/main_unc/leftBlue\GB_LB_6.xlsx
549	main_unc	True	0.0	122	0	10.0	10.0	1.0	1	right	1.0	1.0	1.0	1	0.07652426196260001	blockFiles/set_33/main_unc/leftBlue\GB_LB_6.xlsx
550	main_unc	True	0.0	122	0	10.0	10.0	1.0	1	right	1.0	0.0	1.0	1	0.0335378126614	blockFiles/set_33/main_unc/leftBlue\GB_LB_6.xlsx
551	main_unc	True	0.0	122	0	10.0	10.0	0.0	1	left	2.0	1.0	1.0	0	-0.048346729092300006	blockFiles/set_33/main_unc/leftBlue\GB_LB_6.xlsx
552	main_unc	True	0.0	122	0	10.0	10.0	1.0	1	right	1.0	1.0	1.0	1	0.0531257780083	blockFiles/set_33/main_unc/leftBlue\GB_LB_6.xlsx
553	main_unc	True	0.0	122	0	10.0	10.0	1.0	1	right	1.0	1.0	1.0	1	0.0204116558656	blockFiles/set_33/main_unc/leftBlue\GB_LB_6.xlsx
554	main_unc	True	0.0	122	0	10.0	10.0	0.0	1	left	2.0	1.0	1.0	0	-0.010659191980999998	blockFiles/set_33/main_unc/leftBlue\GB_LB_6.xlsx
555	main_unc	True	0.0	122	0	10.0	10.0	1.0	1	right	1.0	0.0	1.0	1	0.023947840929	blockFiles/set_33/main_unc/leftBlue\GB_LB_6.xlsx
556	main_unc	True	0.0	122	0	10.0	10.0	0.0	1	left	2.0	1.0	1.0	0	-0.0450845929049	blockFiles/set_33/main_unc/leftBlue\GB_LB_6.xlsx
557	main_unc	True	0.0	122	0	10.0	10.0	1.0	1	right	2.0	0.0	0.0	1	0.059766264483300004	blockFiles/set_33/main_unc/leftBlue\GB_LB_6.xlsx
558	main_unc	True	0.0	122	0	10.0	10.0	1.0	1	right	1.0	1.0	1.0	1	0.0338106060959	blockFiles/set_33/main_unc/leftBlue\GB_LB_6.xlsx
559	main_unc	True	0.0	122	0	10.0	10.0	0.0	1	left	2.0	1.0	1.0	0	-0.07837117737160001	blockFiles/set_33/main_unc/leftBlue\GB_LB_6.xlsx
560	main_unc	True	1.0	122	0	10.0	10.0	n/a	0	None	n/a	0.0	n/a	1	0.0317812320217	blockFiles/set_33/main_unc/leftBlue\GB_LB_6.xlsx
561	main_unc	True	0.0	122	0	10.0	10.0	0.0	0	left	2.0	0.0	0.0	1	0.0283965267986	blockFiles/set_33/main_unc/leftBlue\GB_LB_6.xlsx
562	main_unc	True	1.0	122	0	10.0	10.0	n/a	0	None	n/a	0.0	n/a	0	-0.0025695861875999998	blockFiles/set_33/main_unc/leftBlue\GB_LB_6.xlsx
563	main_unc	True	0.0	122	0	10.0	10.0	0.0	1	left	2.0	0.0	1.0	0	-0.0037086507678	blockFiles/set_33/main_unc/leftBlue\GB_LB_6.xlsx
564	main_unc	True	0.0	122	0	10.0	10.0	0.0	1	left	2.0	1.0	1.0	0	-0.0705702015758	blockFiles/set_33/main_unc/leftBlue\GB_LB_6.xlsx
565	main_unc	True	0.0	122	0	10.0	10.0	0.0	1	left	2.0	1.0	1.0	0	-0.056662868578	blockFiles/set_33/main_unc/leftBlue\GB_LB_6.xlsx
566	main_unc	True	0.0	122	0	10.0	10.0	0.0	1	left	2.0	1.0	1.0	0	-0.0514557804912	blockFiles/set_33/main_unc/leftBlue\GB_LB_6.xlsx
567	main_unc	True	0.0	122	0	10.0	10.0	0.0	0	left	1.0	1.0	1.0	1	0.0317812320217	blockFiles/set_33/main_unc/leftBlue\GB_LB_6.xlsx
568	main_unc	True	0.0	122	0	10.0	10.0	0.0	1	left	2.0	1.0	1.0	0	-0.0025695861875999998	blockFiles/set_33/main_unc/leftBlue\GB_LB_6.xlsx
569	main_unc	True	0.0	122	0	11.0	11.0	1.0	1	right	1.0	1.0	1.0	1	0.0281094550341	blockFiles/set_33/main_unc/leftBlue\GB_LB_3.xlsx
570	main_unc	True	0.0	122	0	11.0	11.0	0.0	1	left	2.0	1.0	1.0	0	-0.0465825765207	blockFiles/set_33/main_unc/leftBlue\GB_LB_3.xlsx
571	main_unc	True	0.0	122	0	11.0	11.0	0.0	0	left	2.0	0.0	0.0	1	0.038250823766	blockFiles/set_33/main_unc/leftBlue\GB_LB_3.xlsx
572	main_unc	True	0.0	122	0	11.0	11.0	1.0	1	right	1.0	1.0	1.0	1	0.029067290779200002	blockFiles/set_33/main_unc/leftBlue\GB_LB_3.xlsx
573	main_unc	True	0.0	122	0	11.0	11.0	0.0	0	left	1.0	0.0	1.0	1	0.0369846129231	blockFiles/set_33/main_unc/leftBlue\GB_LB_3.xlsx
574	main_unc	True	0.0	122	0	11.0	11.0	0.0	1	left	2.0	1.0	1.0	0	-0.07943415524439999	blockFiles/set_33/main_unc/leftBlue\GB_LB_3.xlsx
575	main_unc	True	0.0	122	0	11.0	11.0	1.0	1	right	1.0	1.0	1.0	1	0.051968999039400006	blockFiles/set_33/main_unc/leftBlue\GB_LB_3.xlsx
576	main_unc	True	0.0	122	0	11.0	11.0	0.0	1	left	1.0	1.0	0.0	0	-0.0775084969774	blockFiles/set_33/main_unc/leftBlue\GB_LB_3.xlsx
577	main_unc	True	0.0	122	0	11.0	11.0	0.0	1	left	2.0	1.0	1.0	0	-0.025582242272799996	blockFiles/set_33/main_unc/leftBlue\GB_LB_3.xlsx
578	main_unc	True	0.0	122	0	11.0	11.0	0.0	1	left	2.0	1.0	1.0	0	-0.0108584759943	blockFiles/set_33/main_unc/leftBlue\GB_LB_3.xlsx
579	main_unc	True	0.0	122	0	11.0	11.0	0.0	1	left	2.0	1.0	1.0	0	-0.0031867361813800003	blockFiles/set_33/main_unc/leftBlue\GB_LB_3.xlsx
580	main_unc	True	0.0	122	0	11.0	11.0	1.0	1	right	1.0	1.0	1.0	1	0.0793144069053	blockFiles/set_33/main_unc/leftBlue\GB_LB_3.xlsx
581	main_unc	True	0.0	122	0	11.0	11.0	0.0	0	left	1.0	1.0	1.0	1	0.0169848949835	blockFiles/set_33/main_unc/leftBlue\GB_LB_3.xlsx
582	main_unc	True	0.0	122	0	11.0	11.0	1.0	0	right	2.0	1.0	1.0	0	-0.0329422100447	blockFiles/set_33/main_unc/leftBlue\GB_LB_3.xlsx
583	main_unc	True	0.0	122	0	11.0	11.0	0.0	0	left	1.0	0.0	1.0	1	0.0341898651235	blockFiles/set_33/main_unc/leftBlue\GB_LB_3.xlsx
584	main_unc	True	0.0	122	0	11.0	11.0	0.0	1	left	2.0	1.0	1.0	0	-0.0677945606224	blockFiles/set_33/main_unc/leftBlue\GB_LB_3.xlsx
585	main_unc	True	0.0	122	0	11.0	11.0	0.0	1	left	2.0	0.0	1.0	0	-0.0429641589709	blockFiles/set_33/main_unc/leftBlue\GB_LB_3.xlsx
586	main_unc	True	0.0	122	0	11.0	11.0	0.0	0	left	1.0	1.0	1.0	1	0.0272813208587	blockFiles/set_33/main_unc/leftBlue\GB_LB_3.xlsx
587	main_unc	True	0.0	122	0	11.0	11.0	1.0	1	right	1.0	1.0	1.0	1	0.0656925526634	blockFiles/set_33/main_unc/leftBlue\GB_LB_3.xlsx
588	main_unc	True	0.0	122	0	11.0	11.0	0.0	1	left	2.0	1.0	1.0	0	-0.0200917667523	blockFiles/set_33/main_unc/leftBlue\GB_LB_3.xlsx
589	main_unc	True	0.0	122	0	11.0	11.0	1.0	1	right	1.0	1.0	1.0	1	0.0267787359469	blockFiles/set_33/main_unc/leftBlue\GB_LB_3.xlsx
590	main_unc	True	0.0	122	0	11.0	11.0	1.0	1	right	1.0	1.0	1.0	1	0.0482073674165	blockFiles/set_33/main_unc/leftBlue\GB_LB_3.xlsx
591	main_unc	True	0.0	122	0	11.0	11.0	0.0	1	left	2.0	1.0	1.0	0	-0.02747401895	blockFiles/set_33/main_unc/leftBlue\GB_LB_3.xlsx
592	main_unc	True	0.0	122	0	11.0	11.0	1.0	0	right	1.0	0.0	0.0	0	-0.0320780518651	blockFiles/set_33/main_unc/leftBlue\GB_LB_3.xlsx
593	main_unc	True	0.0	122	0	11.0	11.0	1.0	0	right	1.0	0.0	0.0	0	-0.00503322718665	blockFiles/set_33/main_unc/leftBlue\GB_LB_3.xlsx
