	trial_type	complete	missIndex	participant	id	blockNumber	b_t	d_t	decision1.corr	decision1.keys	a_t	r_t	decision2.corr	s_t	u_t	block_file
0	main_safe	True	0.0	609	0	0.0	0.0	1.0	1	right	2.0	1.0	0.0	1	0.08	blockFiles/set_28/main_safe/leftBlue\GB_LB_1.xlsx
1	main_safe	True	0.0	609	0	0.0	0.0	0.0	1	left	1.0	0.0	0.0	0	-0.08	blockFiles/set_28/main_safe/leftBlue\GB_LB_1.xlsx
2	main_safe	True	0.0	609	0	0.0	0.0	0.0	1	left	1.0	0.0	0.0	0	-0.08	blockFiles/set_28/main_safe/leftBlue\GB_LB_1.xlsx
3	main_safe	True	0.0	609	0	0.0	0.0	0.0	1	left	2.0	1.0	1.0	0	-0.08	blockFiles/set_28/main_safe/leftBlue\GB_LB_1.xlsx
4	main_safe	True	0.0	609	0	0.0	0.0	1.0	1	right	1.0	1.0	1.0	1	0.08	blockFiles/set_28/main_safe/leftBlue\GB_LB_1.xlsx
5	main_safe	True	0.0	609	0	0.0	0.0	1.0	1	right	1.0	0.0	1.0	1	0.08	blockFiles/set_28/main_safe/leftBlue\GB_LB_1.xlsx
6	main_safe	True	0.0	609	0	0.0	0.0	0.0	1	left	2.0	1.0	1.0	0	-0.08	blockFiles/set_28/main_safe/leftBlue\GB_LB_1.xlsx
7	main_safe	True	0.0	609	0	0.0	0.0	1.0	1	right	1.0	1.0	1.0	1	0.08	blockFiles/set_28/main_safe/leftBlue\GB_LB_1.xlsx
8	main_safe	True	0.0	609	0	0.0	0.0	0.0	0	left	1.0	1.0	1.0	1	0.08	blockFiles/set_28/main_safe/leftBlue\GB_LB_1.xlsx
9	main_safe	True	0.0	609	0	0.0	0.0	1.0	1	right	1.0	1.0	1.0	1	0.08	blockFiles/set_28/main_safe/leftBlue\GB_LB_1.xlsx
10	main_safe	True	0.0	609	0	0.0	0.0	0.0	1	left	2.0	1.0	1.0	0	-0.08	blockFiles/set_28/main_safe/leftBlue\GB_LB_1.xlsx
11	main_safe	True	0.0	609	0	0.0	0.0	1.0	1	right	1.0	1.0	1.0	1	0.08	blockFiles/set_28/main_safe/leftBlue\GB_LB_1.xlsx
12	main_safe	True	0.0	609	0	0.0	0.0	1.0	1	right	1.0	0.0	1.0	1	0.08	blockFiles/set_28/main_safe/leftBlue\GB_LB_1.xlsx
13	main_safe	True	0.0	609	0	0.0	0.0	0.0	1	left	1.0	0.0	0.0	0	-0.08	blockFiles/set_28/main_safe/leftBlue\GB_LB_1.xlsx
14	main_safe	True	0.0	609	0	0.0	0.0	0.0	1	left	2.0	1.0	1.0	0	-0.08	blockFiles/set_28/main_safe/leftBlue\GB_LB_1.xlsx
15	main_safe	True	0.0	609	0	0.0	0.0	0.0	1	left	2.0	1.0	1.0	0	-0.08	blockFiles/set_28/main_safe/leftBlue\GB_LB_1.xlsx
16	main_safe	True	0.0	609	0	0.0	0.0	0.0	1	left	2.0	0.0	1.0	0	-0.08	blockFiles/set_28/main_safe/leftBlue\GB_LB_1.xlsx
17	main_safe	True	0.0	609	0	0.0	0.0	1.0	1	right	1.0	1.0	1.0	1	0.08	blockFiles/set_28/main_safe/leftBlue\GB_LB_1.xlsx
18	main_safe	True	0.0	609	0	0.0	0.0	0.0	1	left	2.0	1.0	1.0	0	-0.08	blockFiles/set_28/main_safe/leftBlue\GB_LB_1.xlsx
19	main_safe	True	0.0	609	0	0.0	0.0	0.0	1	left	2.0	1.0	1.0	0	-0.08	blockFiles/set_28/main_safe/leftBlue\GB_LB_1.xlsx
20	main_safe	True	0.0	609	0	0.0	0.0	0.0	1	left	2.0	1.0	1.0	0	-0.08	blockFiles/set_28/main_safe/leftBlue\GB_LB_1.xlsx
21	main_safe	True	0.0	609	0	0.0	0.0	0.0	1	left	2.0	0.0	1.0	0	-0.08	blockFiles/set_28/main_safe/leftBlue\GB_LB_1.xlsx
22	main_safe	True	0.0	609	0	0.0	0.0	1.0	1	right	1.0	1.0	1.0	1	0.08	blockFiles/set_28/main_safe/leftBlue\GB_LB_1.xlsx
23	main_safe	True	0.0	609	0	0.0	0.0	1.0	1	right	1.0	1.0	1.0	1	0.08	blockFiles/set_28/main_safe/leftBlue\GB_LB_1.xlsx
24	main_safe	True	0.0	609	0	0.0	0.0	1.0	1	right	1.0	1.0	1.0	1	0.08	blockFiles/set_28/main_safe/leftBlue\GB_LB_1.xlsx
25	main_safe	True	0.0	609	0	1.0	1.0	1.0	1	right	2.0	0.0	1.0	1	0.08	blockFiles/set_28/main_safe/rightBlue\GB_RB_2.xlsx
26	main_safe	True	0.0	609	0	1.0	1.0	0.0	1	left	2.0	0.0	0.0	0	-0.08	blockFiles/set_28/main_safe/rightBlue\GB_RB_2.xlsx
27	main_safe	True	0.0	609	0	1.0	1.0	0.0	1	left	1.0	0.0	1.0	0	-0.08	blockFiles/set_28/main_safe/rightBlue\GB_RB_2.xlsx
28	main_safe	True	0.0	609	0	1.0	1.0	1.0	1	right	1.0	1.0	0.0	1	0.08	blockFiles/set_28/main_safe/rightBlue\GB_RB_2.xlsx
29	main_safe	True	0.0	609	0	1.0	1.0	1.0	1	right	1.0	0.0	0.0	1	0.08	blockFiles/set_28/main_safe/rightBlue\GB_RB_2.xlsx
30	main_safe	True	0.0	609	0	1.0	1.0	1.0	1	right	1.0	0.0	0.0	1	0.08	blockFiles/set_28/main_safe/rightBlue\GB_RB_2.xlsx
31	main_safe	True	0.0	609	0	1.0	1.0	0.0	1	left	1.0	1.0	1.0	0	-0.08	blockFiles/set_28/main_safe/rightBlue\GB_RB_2.xlsx
32	main_safe	True	0.0	609	0	1.0	1.0	1.0	1	right	2.0	0.0	1.0	1	0.08	blockFiles/set_28/main_safe/rightBlue\GB_RB_2.xlsx
33	main_safe	True	0.0	609	0	1.0	1.0	0.0	1	left	1.0	1.0	1.0	0	-0.08	blockFiles/set_28/main_safe/rightBlue\GB_RB_2.xlsx
34	main_safe	True	0.0	609	0	1.0	1.0	0.0	1	left	1.0	1.0	1.0	0	-0.08	blockFiles/set_28/main_safe/rightBlue\GB_RB_2.xlsx
35	main_safe	True	0.0	609	0	1.0	1.0	0.0	1	left	1.0	0.0	1.0	0	-0.08	blockFiles/set_28/main_safe/rightBlue\GB_RB_2.xlsx
36	main_safe	True	0.0	609	0	1.0	1.0	0.0	1	left	1.0	1.0	1.0	0	-0.08	blockFiles/set_28/main_safe/rightBlue\GB_RB_2.xlsx
37	main_safe	True	0.0	609	0	1.0	1.0	0.0	1	left	1.0	1.0	1.0	0	-0.08	blockFiles/set_28/main_safe/rightBlue\GB_RB_2.xlsx
38	main_safe	True	0.0	609	0	1.0	1.0	0.0	1	left	1.0	1.0	1.0	0	-0.08	blockFiles/set_28/main_safe/rightBlue\GB_RB_2.xlsx
39	main_safe	True	0.0	609	0	1.0	1.0	1.0	1	right	2.0	1.0	1.0	1	0.08	blockFiles/set_28/main_safe/rightBlue\GB_RB_2.xlsx
40	main_safe	True	0.0	609	0	1.0	1.0	1.0	1	right	2.0	1.0	1.0	1	0.08	blockFiles/set_28/main_safe/rightBlue\GB_RB_2.xlsx
41	main_safe	True	0.0	609	0	1.0	1.0	1.0	1	right	2.0	1.0	1.0	1	0.08	blockFiles/set_28/main_safe/rightBlue\GB_RB_2.xlsx
42	main_safe	True	0.0	609	0	1.0	1.0	0.0	1	left	1.0	1.0	1.0	0	-0.08	blockFiles/set_28/main_safe/rightBlue\GB_RB_2.xlsx
43	main_safe	True	0.0	609	0	1.0	1.0	1.0	1	right	2.0	1.0	1.0	1	0.08	blockFiles/set_28/main_safe/rightBlue\GB_RB_2.xlsx
44	main_safe	True	0.0	609	0	1.0	1.0	1.0	1	right	2.0	1.0	1.0	1	0.08	blockFiles/set_28/main_safe/rightBlue\GB_RB_2.xlsx
45	main_safe	True	0.0	609	0	1.0	1.0	1.0	1	right	2.0	1.0	1.0	1	0.08	blockFiles/set_28/main_safe/rightBlue\GB_RB_2.xlsx
46	main_safe	True	0.0	609	0	1.0	1.0	1.0	1	right	2.0	1.0	1.0	1	0.08	blockFiles/set_28/main_safe/rightBlue\GB_RB_2.xlsx
47	main_safe	True	0.0	609	0	1.0	1.0	0.0	1	left	1.0	1.0	1.0	0	-0.08	blockFiles/set_28/main_safe/rightBlue\GB_RB_2.xlsx
48	main_safe	True	0.0	609	0	1.0	1.0	0.0	1	left	1.0	0.0	1.0	0	-0.08	blockFiles/set_28/main_safe/rightBlue\GB_RB_2.xlsx
49	main_safe	True	0.0	609	0	1.0	1.0	0.0	1	left	1.0	1.0	1.0	0	-0.08	blockFiles/set_28/main_safe/rightBlue\GB_RB_2.xlsx
50	main_safe	True	0.0	609	0	2.0	2.0	1.0	1	right	2.0	1.0	1.0	1	0.08	blockFiles/set_28/main_safe/rightBlue\GB_RB_3.xlsx
51	main_safe	True	0.0	609	0	2.0	2.0	1.0	1	right	2.0	1.0	1.0	1	0.08	blockFiles/set_28/main_safe/rightBlue\GB_RB_3.xlsx
52	main_safe	True	0.0	609	0	2.0	2.0	1.0	1	right	2.0	0.0	1.0	1	0.08	blockFiles/set_28/main_safe/rightBlue\GB_RB_3.xlsx
53	main_safe	True	0.0	609	0	2.0	2.0	1.0	1	right	2.0	1.0	1.0	1	0.08	blockFiles/set_28/main_safe/rightBlue\GB_RB_3.xlsx
54	main_safe	True	0.0	609	0	2.0	2.0	0.0	1	left	1.0	1.0	1.0	0	-0.08	blockFiles/set_28/main_safe/rightBlue\GB_RB_3.xlsx
55	main_safe	True	0.0	609	0	2.0	2.0	1.0	1	right	2.0	1.0	1.0	1	0.08	blockFiles/set_28/main_safe/rightBlue\GB_RB_3.xlsx
56	main_safe	True	0.0	609	0	2.0	2.0	0.0	1	left	1.0	1.0	1.0	0	-0.08	blockFiles/set_28/main_safe/rightBlue\GB_RB_3.xlsx
57	main_safe	True	0.0	609	0	2.0	2.0	0.0	1	left	1.0	1.0	1.0	0	-0.08	blockFiles/set_28/main_safe/rightBlue\GB_RB_3.xlsx
58	main_safe	True	0.0	609	0	2.0	2.0	0.0	1	left	1.0	0.0	1.0	0	-0.08	blockFiles/set_28/main_safe/rightBlue\GB_RB_3.xlsx
59	main_safe	True	0.0	609	0	2.0	2.0	1.0	1	right	2.0	1.0	1.0	1	0.08	blockFiles/set_28/main_safe/rightBlue\GB_RB_3.xlsx
60	main_safe	True	0.0	609	0	2.0	2.0	1.0	1	right	2.0	1.0	1.0	1	0.08	blockFiles/set_28/main_safe/rightBlue\GB_RB_3.xlsx
61	main_safe	True	0.0	609	0	2.0	2.0	0.0	1	left	1.0	1.0	1.0	0	-0.08	blockFiles/set_28/main_safe/rightBlue\GB_RB_3.xlsx
62	main_safe	True	0.0	609	0	2.0	2.0	1.0	1	right	1.0	0.0	0.0	1	0.08	blockFiles/set_28/main_safe/rightBlue\GB_RB_3.xlsx
63	main_safe	True	0.0	609	0	2.0	2.0	0.0	1	left	1.0	1.0	1.0	0	-0.08	blockFiles/set_28/main_safe/rightBlue\GB_RB_3.xlsx
64	main_safe	True	0.0	609	0	2.0	2.0	0.0	1	left	1.0	0.0	1.0	0	-0.08	blockFiles/set_28/main_safe/rightBlue\GB_RB_3.xlsx
65	main_safe	True	0.0	609	0	2.0	2.0	0.0	0	left	2.0	1.0	1.0	1	0.08	blockFiles/set_28/main_safe/rightBlue\GB_RB_3.xlsx
66	main_safe	True	0.0	609	0	2.0	2.0	0.0	1	left	1.0	1.0	1.0	0	-0.08	blockFiles/set_28/main_safe/rightBlue\GB_RB_3.xlsx
67	main_safe	True	0.0	609	0	2.0	2.0	0.0	1	left	1.0	1.0	1.0	0	-0.08	blockFiles/set_28/main_safe/rightBlue\GB_RB_3.xlsx
68	main_safe	True	0.0	609	0	2.0	2.0	1.0	1	right	2.0	1.0	1.0	1	0.08	blockFiles/set_28/main_safe/rightBlue\GB_RB_3.xlsx
69	main_safe	True	0.0	609	0	2.0	2.0	0.0	1	left	1.0	1.0	1.0	0	-0.08	blockFiles/set_28/main_safe/rightBlue\GB_RB_3.xlsx
70	main_safe	True	0.0	609	0	2.0	2.0	0.0	1	left	1.0	0.0	1.0	0	-0.08	blockFiles/set_28/main_safe/rightBlue\GB_RB_3.xlsx
71	main_safe	True	0.0	609	0	2.0	2.0	1.0	1	right	2.0	1.0	1.0	1	0.08	blockFiles/set_28/main_safe/rightBlue\GB_RB_3.xlsx
72	main_safe	True	0.0	609	0	2.0	2.0	0.0	1	left	1.0	1.0	1.0	0	-0.08	blockFiles/set_28/main_safe/rightBlue\GB_RB_3.xlsx
73	main_safe	True	0.0	609	0	2.0	2.0	0.0	1	left	1.0	1.0	1.0	0	-0.08	blockFiles/set_28/main_safe/rightBlue\GB_RB_3.xlsx
74	main_safe	True	0.0	609	0	2.0	2.0	1.0	1	right	2.0	0.0	1.0	1	0.08	blockFiles/set_28/main_safe/rightBlue\GB_RB_3.xlsx
75	main_safe	True	0.0	609	0	3.0	3.0	0.0	1	left	1.0	0.0	0.0	0	-0.08	blockFiles/set_28/main_safe/leftBlue\GB_LB_3.xlsx
76	main_safe	True	0.0	609	0	3.0	3.0	1.0	1	right	1.0	1.0	1.0	1	0.08	blockFiles/set_28/main_safe/leftBlue\GB_LB_3.xlsx
77	main_safe	True	0.0	609	0	3.0	3.0	1.0	1	right	1.0	1.0	1.0	1	0.08	blockFiles/set_28/main_safe/leftBlue\GB_LB_3.xlsx
78	main_safe	True	0.0	609	0	3.0	3.0	0.0	1	left	2.0	1.0	1.0	0	-0.08	blockFiles/set_28/main_safe/leftBlue\GB_LB_3.xlsx
79	main_safe	True	0.0	609	0	3.0	3.0	1.0	1	right	1.0	1.0	1.0	1	0.08	blockFiles/set_28/main_safe/leftBlue\GB_LB_3.xlsx
80	main_safe	True	0.0	609	0	3.0	3.0	0.0	1	left	2.0	1.0	1.0	0	-0.08	blockFiles/set_28/main_safe/leftBlue\GB_LB_3.xlsx
81	main_safe	True	0.0	609	0	3.0	3.0	0.0	1	left	1.0	0.0	0.0	0	-0.08	blockFiles/set_28/main_safe/leftBlue\GB_LB_3.xlsx
82	main_safe	True	0.0	609	0	3.0	3.0	1.0	1	right	2.0	0.0	0.0	1	0.08	blockFiles/set_28/main_safe/leftBlue\GB_LB_3.xlsx
83	main_safe	True	0.0	609	0	3.0	3.0	1.0	1	right	1.0	0.0	1.0	1	0.08	blockFiles/set_28/main_safe/leftBlue\GB_LB_3.xlsx
84	main_safe	True	0.0	609	0	3.0	3.0	1.0	1	right	1.0	1.0	1.0	1	0.08	blockFiles/set_28/main_safe/leftBlue\GB_LB_3.xlsx
85	main_safe	True	0.0	609	0	3.0	3.0	1.0	1	right	1.0	1.0	1.0	1	0.08	blockFiles/set_28/main_safe/leftBlue\GB_LB_3.xlsx
86	main_safe	True	0.0	609	0	3.0	3.0	1.0	1	right	1.0	1.0	1.0	1	0.08	blockFiles/set_28/main_safe/leftBlue\GB_LB_3.xlsx
87	main_safe	True	0.0	609	0	3.0	3.0	0.0	1	left	2.0	0.0	1.0	0	-0.08	blockFiles/set_28/main_safe/leftBlue\GB_LB_3.xlsx
88	main_safe	True	0.0	609	0	3.0	3.0	0.0	1	left	2.0	0.0	1.0	0	-0.08	blockFiles/set_28/main_safe/leftBlue\GB_LB_3.xlsx
89	main_safe	True	0.0	609	0	3.0	3.0	0.0	1	left	2.0	1.0	1.0	0	-0.08	blockFiles/set_28/main_safe/leftBlue\GB_LB_3.xlsx
90	main_safe	True	0.0	609	0	3.0	3.0	1.0	1	right	1.0	0.0	1.0	1	0.08	blockFiles/set_28/main_safe/leftBlue\GB_LB_3.xlsx
91	main_safe	True	0.0	609	0	3.0	3.0	0.0	1	left	2.0	1.0	1.0	0	-0.08	blockFiles/set_28/main_safe/leftBlue\GB_LB_3.xlsx
92	main_safe	True	0.0	609	0	3.0	3.0	1.0	1	right	1.0	1.0	1.0	1	0.08	blockFiles/set_28/main_safe/leftBlue\GB_LB_3.xlsx
93	main_safe	True	0.0	609	0	3.0	3.0	1.0	1	right	1.0	0.0	1.0	1	0.08	blockFiles/set_28/main_safe/leftBlue\GB_LB_3.xlsx
94	main_safe	True	0.0	609	0	3.0	3.0	1.0	1	right	1.0	1.0	1.0	1	0.08	blockFiles/set_28/main_safe/leftBlue\GB_LB_3.xlsx
95	main_safe	True	0.0	609	0	3.0	3.0	1.0	1	right	1.0	1.0	1.0	1	0.08	blockFiles/set_28/main_safe/leftBlue\GB_LB_3.xlsx
96	main_safe	True	0.0	609	0	3.0	3.0	0.0	1	left	2.0	1.0	1.0	0	-0.08	blockFiles/set_28/main_safe/leftBlue\GB_LB_3.xlsx
97	main_safe	True	0.0	609	0	3.0	3.0	0.0	1	left	2.0	1.0	1.0	0	-0.08	blockFiles/set_28/main_safe/leftBlue\GB_LB_3.xlsx
98	main_safe	True	0.0	609	0	3.0	3.0	1.0	1	right	1.0	1.0	1.0	1	0.08	blockFiles/set_28/main_safe/leftBlue\GB_LB_3.xlsx
99	main_safe	True	0.0	609	0	3.0	3.0	0.0	1	left	2.0	1.0	1.0	0	-0.08	blockFiles/set_28/main_safe/leftBlue\GB_LB_3.xlsx
100	main_safe	True	0.0	609	0	4.0	4.0	0.0	1	left	1.0	0.0	0.0	0	-0.08	blockFiles/set_28/main_safe/leftBlue\GB_LB_2.xlsx
101	main_safe	True	0.0	609	0	4.0	4.0	1.0	1	right	1.0	1.0	1.0	1	0.08	blockFiles/set_28/main_safe/leftBlue\GB_LB_2.xlsx
102	main_safe	True	0.0	609	0	4.0	4.0	0.0	1	left	2.0	1.0	1.0	0	-0.08	blockFiles/set_28/main_safe/leftBlue\GB_LB_2.xlsx
103	main_safe	True	0.0	609	0	4.0	4.0	0.0	1	left	2.0	1.0	1.0	0	-0.08	blockFiles/set_28/main_safe/leftBlue\GB_LB_2.xlsx
104	main_safe	True	1.0	609	0	4.0	4.0	0.0	1	left	n/a	0.0	n/a	0	-0.08	blockFiles/set_28/main_safe/leftBlue\GB_LB_2.xlsx
105	main_safe	True	0.0	609	0	4.0	4.0	0.0	1	left	2.0	1.0	1.0	0	-0.08	blockFiles/set_28/main_safe/leftBlue\GB_LB_2.xlsx
106	main_safe	True	0.0	609	0	4.0	4.0	1.0	1	right	1.0	0.0	1.0	1	0.08	blockFiles/set_28/main_safe/leftBlue\GB_LB_2.xlsx
107	main_safe	True	0.0	609	0	4.0	4.0	1.0	1	right	1.0	1.0	1.0	1	0.08	blockFiles/set_28/main_safe/leftBlue\GB_LB_2.xlsx
108	main_safe	True	0.0	609	0	4.0	4.0	0.0	1	left	2.0	1.0	1.0	0	-0.08	blockFiles/set_28/main_safe/leftBlue\GB_LB_2.xlsx
109	main_safe	True	0.0	609	0	4.0	4.0	1.0	1	right	1.0	1.0	1.0	1	0.08	blockFiles/set_28/main_safe/leftBlue\GB_LB_2.xlsx
110	main_safe	True	0.0	609	0	4.0	4.0	1.0	1	right	1.0	0.0	1.0	1	0.08	blockFiles/set_28/main_safe/leftBlue\GB_LB_2.xlsx
111	main_safe	True	0.0	609	0	4.0	4.0	0.0	1	left	2.0	1.0	1.0	0	-0.08	blockFiles/set_28/main_safe/leftBlue\GB_LB_2.xlsx
112	main_safe	True	0.0	609	0	4.0	4.0	0.0	1	left	2.0	1.0	1.0	0	-0.08	blockFiles/set_28/main_safe/leftBlue\GB_LB_2.xlsx
113	main_safe	True	0.0	609	0	4.0	4.0	1.0	1	right	1.0	1.0	1.0	1	0.08	blockFiles/set_28/main_safe/leftBlue\GB_LB_2.xlsx
114	main_safe	True	0.0	609	0	4.0	4.0	1.0	1	right	1.0	1.0	1.0	1	0.08	blockFiles/set_28/main_safe/leftBlue\GB_LB_2.xlsx
115	main_safe	True	0.0	609	0	4.0	4.0	0.0	1	left	2.0	1.0	1.0	0	-0.08	blockFiles/set_28/main_safe/leftBlue\GB_LB_2.xlsx
116	main_safe	True	0.0	609	0	4.0	4.0	1.0	1	right	1.0	1.0	1.0	1	0.08	blockFiles/set_28/main_safe/leftBlue\GB_LB_2.xlsx
117	main_safe	True	0.0	609	0	4.0	4.0	1.0	1	right	1.0	0.0	1.0	1	0.08	blockFiles/set_28/main_safe/leftBlue\GB_LB_2.xlsx
118	main_safe	True	0.0	609	0	4.0	4.0	0.0	1	left	2.0	1.0	1.0	0	-0.08	blockFiles/set_28/main_safe/leftBlue\GB_LB_2.xlsx
119	main_safe	True	0.0	609	0	4.0	4.0	0.0	1	left	2.0	1.0	1.0	0	-0.08	blockFiles/set_28/main_safe/leftBlue\GB_LB_2.xlsx
120	main_safe	True	0.0	609	0	4.0	4.0	1.0	1	right	1.0	1.0	1.0	1	0.08	blockFiles/set_28/main_safe/leftBlue\GB_LB_2.xlsx
121	main_safe	True	0.0	609	0	4.0	4.0	1.0	1	right	1.0	0.0	1.0	1	0.08	blockFiles/set_28/main_safe/leftBlue\GB_LB_2.xlsx
122	main_safe	True	0.0	609	0	4.0	4.0	1.0	1	right	1.0	0.0	1.0	1	0.08	blockFiles/set_28/main_safe/leftBlue\GB_LB_2.xlsx
123	main_safe	True	0.0	609	0	4.0	4.0	0.0	1	left	2.0	1.0	1.0	0	-0.08	blockFiles/set_28/main_safe/leftBlue\GB_LB_2.xlsx
124	main_safe	True	0.0	609	0	4.0	4.0	0.0	1	left	2.0	1.0	1.0	0	-0.08	blockFiles/set_28/main_safe/leftBlue\GB_LB_2.xlsx
125	main_safe	True	0.0	609	0	4.0	4.0	0.0	1	left	2.0	1.0	1.0	0	-0.08	blockFiles/set_28/main_safe/leftBlue\GB_LB_2.xlsx
126	main_safe	True	0.0	609	0	5.0	5.0	1.0	1	right	2.0	0.0	1.0	1	0.08	blockFiles/set_28/main_safe/rightBlue\GB_RB_1.xlsx
127	main_safe	True	0.0	609	0	5.0	5.0	1.0	1	right	2.0	1.0	1.0	1	0.08	blockFiles/set_28/main_safe/rightBlue\GB_RB_1.xlsx
128	main_safe	True	0.0	609	0	5.0	5.0	0.0	1	left	1.0	1.0	1.0	0	-0.08	blockFiles/set_28/main_safe/rightBlue\GB_RB_1.xlsx
129	main_safe	True	0.0	609	0	5.0	5.0	1.0	1	right	2.0	1.0	1.0	1	0.08	blockFiles/set_28/main_safe/rightBlue\GB_RB_1.xlsx
130	main_safe	True	0.0	609	0	5.0	5.0	0.0	1	left	1.0	1.0	1.0	0	-0.08	blockFiles/set_28/main_safe/rightBlue\GB_RB_1.xlsx
131	main_safe	True	0.0	609	0	5.0	5.0	0.0	1	left	2.0	0.0	0.0	0	-0.08	blockFiles/set_28/main_safe/rightBlue\GB_RB_1.xlsx
132	main_safe	True	0.0	609	0	5.0	5.0	0.0	1	left	1.0	1.0	1.0	0	-0.08	blockFiles/set_28/main_safe/rightBlue\GB_RB_1.xlsx
133	main_safe	True	0.0	609	0	5.0	5.0	0.0	1	left	1.0	0.0	1.0	0	-0.08	blockFiles/set_28/main_safe/rightBlue\GB_RB_1.xlsx
134	main_safe	True	0.0	609	0	5.0	5.0	1.0	1	right	1.0	0.0	0.0	1	0.08	blockFiles/set_28/main_safe/rightBlue\GB_RB_1.xlsx
135	main_safe	True	0.0	609	0	5.0	5.0	1.0	1	right	2.0	1.0	1.0	1	0.08	blockFiles/set_28/main_safe/rightBlue\GB_RB_1.xlsx
136	main_safe	True	0.0	609	0	5.0	5.0	1.0	1	right	2.0	1.0	1.0	1	0.08	blockFiles/set_28/main_safe/rightBlue\GB_RB_1.xlsx
137	main_safe	True	0.0	609	0	5.0	5.0	1.0	1	right	2.0	1.0	1.0	1	0.08	blockFiles/set_28/main_safe/rightBlue\GB_RB_1.xlsx
138	main_safe	True	0.0	609	0	5.0	5.0	0.0	1	left	1.0	1.0	1.0	0	-0.08	blockFiles/set_28/main_safe/rightBlue\GB_RB_1.xlsx
139	main_safe	True	0.0	609	0	5.0	5.0	1.0	1	right	2.0	1.0	1.0	1	0.08	blockFiles/set_28/main_safe/rightBlue\GB_RB_1.xlsx
140	main_safe	True	0.0	609	0	5.0	5.0	0.0	1	left	1.0	1.0	1.0	0	-0.08	blockFiles/set_28/main_safe/rightBlue\GB_RB_1.xlsx
141	main_safe	True	0.0	609	0	5.0	5.0	1.0	1	right	2.0	1.0	1.0	1	0.08	blockFiles/set_28/main_safe/rightBlue\GB_RB_1.xlsx
142	main_safe	True	0.0	609	0	5.0	5.0	0.0	1	left	1.0	1.0	1.0	0	-0.08	blockFiles/set_28/main_safe/rightBlue\GB_RB_1.xlsx
143	main_safe	True	0.0	609	0	5.0	5.0	1.0	1	right	2.0	1.0	1.0	1	0.08	blockFiles/set_28/main_safe/rightBlue\GB_RB_1.xlsx
144	main_safe	True	0.0	609	0	5.0	5.0	1.0	1	right	2.0	1.0	1.0	1	0.08	blockFiles/set_28/main_safe/rightBlue\GB_RB_1.xlsx
145	main_safe	True	0.0	609	0	5.0	5.0	1.0	1	right	2.0	1.0	1.0	1	0.08	blockFiles/set_28/main_safe/rightBlue\GB_RB_1.xlsx
146	main_safe	True	0.0	609	0	5.0	5.0	0.0	1	left	1.0	1.0	1.0	0	-0.08	blockFiles/set_28/main_safe/rightBlue\GB_RB_1.xlsx
147	main_safe	True	1.0	609	0	5.0	5.0	0.0	1	left	n/a	0.0	n/a	0	-0.08	blockFiles/set_28/main_safe/rightBlue\GB_RB_1.xlsx
148	main_safe	True	0.0	609	0	5.0	5.0	0.0	1	left	1.0	1.0	1.0	0	-0.08	blockFiles/set_28/main_safe/rightBlue\GB_RB_1.xlsx
149	main_safe	True	0.0	609	0	5.0	5.0	0.0	1	left	1.0	0.0	1.0	0	-0.08	blockFiles/set_28/main_safe/rightBlue\GB_RB_1.xlsx
150	main_safe	True	0.0	609	0	5.0	5.0	0.0	1	left	1.0	1.0	1.0	0	-0.08	blockFiles/set_28/main_safe/rightBlue\GB_RB_1.xlsx
151	main_safe	True	0.0	609	0	5.0	5.0	0.0	1	left	1.0	0.0	1.0	0	-0.08	blockFiles/set_28/main_safe/rightBlue\GB_RB_1.xlsx
152	patches	True	n/a	609	0	n/a	n/a	n/a	0	None	n/a	n/a	n/a	1	0.0133983965591	blockFiles/set_28/main_PD/GB_runPatches1.xlsx
153	patches	True	n/a	609	0	n/a	n/a	0.0	1	left	n/a	n/a	n/a	0	-0.01679315947	blockFiles/set_28/main_PD/GB_runPatches1.xlsx
154	patches	True	n/a	609	0	n/a	n/a	0.0	1	left	n/a	n/a	n/a	0	-0.078944666367	blockFiles/set_28/main_PD/GB_runPatches1.xlsx
155	patches	True	n/a	609	0	n/a	n/a	1.0	1	right	n/a	n/a	n/a	1	0.040091591980300004	blockFiles/set_28/main_PD/GB_runPatches1.xlsx
156	patches	True	n/a	609	0	n/a	n/a	0.0	1	left	n/a	n/a	n/a	0	-0.0774984431081	blockFiles/set_28/main_PD/GB_runPatches1.xlsx
157	patches	True	n/a	609	0	n/a	n/a	1.0	1	right	n/a	n/a	n/a	1	0.024186689648799997	blockFiles/set_28/main_PD/GB_runPatches1.xlsx
158	patches	True	n/a	609	0	n/a	n/a	1.0	0	right	n/a	n/a	n/a	0	-0.00951955867931	blockFiles/set_28/main_PD/GB_runPatches1.xlsx
159	patches	True	n/a	609	0	n/a	n/a	1.0	0	right	n/a	n/a	n/a	0	-0.000994460135698	blockFiles/set_28/main_PD/GB_runPatches1.xlsx
160	patches	True	n/a	609	0	n/a	n/a	0.0	0	left	n/a	n/a	n/a	1	0.049114039428500005	blockFiles/set_28/main_PD/GB_runPatches1.xlsx
161	patches	True	n/a	609	0	n/a	n/a	1.0	1	right	n/a	n/a	n/a	1	0.020730958357500003	blockFiles/set_28/main_PD/GB_runPatches1.xlsx
162	patches	True	n/a	609	0	n/a	n/a	1.0	1	right	n/a	n/a	n/a	1	0.0674171197973	blockFiles/set_28/main_PD/GB_runPatches1.xlsx
163	patches	True	n/a	609	0	n/a	n/a	0.0	0	left	n/a	n/a	n/a	1	0.0410082953237	blockFiles/set_28/main_PD/GB_runPatches1.xlsx
164	patches	True	n/a	609	0	n/a	n/a	0.0	1	left	n/a	n/a	n/a	0	-0.0409770570882	blockFiles/set_28/main_PD/GB_runPatches1.xlsx
165	patches	True	n/a	609	0	n/a	n/a	1.0	0	right	n/a	n/a	n/a	0	-0.0199586881697	blockFiles/set_28/main_PD/GB_runPatches1.xlsx
166	patches	True	n/a	609	0	n/a	n/a	1.0	1	right	n/a	n/a	n/a	1	0.0344589949585	blockFiles/set_28/main_PD/GB_runPatches1.xlsx
167	patches	True	n/a	609	0	n/a	n/a	1.0	1	right	n/a	n/a	n/a	1	0.055769147295500004	blockFiles/set_28/main_PD/GB_runPatches1.xlsx
168	patches	True	n/a	609	0	n/a	n/a	1.0	1	right	n/a	n/a	n/a	1	0.05316391129049999	blockFiles/set_28/main_PD/GB_runPatches1.xlsx
169	patches	True	n/a	609	0	n/a	n/a	1.0	1	right	n/a	n/a	n/a	1	0.0678938417323	blockFiles/set_28/main_PD/GB_runPatches1.xlsx
170	patches	True	n/a	609	0	n/a	n/a	1.0	1	right	n/a	n/a	n/a	1	0.0567388488725	blockFiles/set_28/main_PD/GB_runPatches1.xlsx
171	patches	True	n/a	609	0	n/a	n/a	0.0	0	left	n/a	n/a	n/a	1	0.00533232152462	blockFiles/set_28/main_PD/GB_runPatches1.xlsx
172	patches	True	n/a	609	0	n/a	n/a	1.0	1	right	n/a	n/a	n/a	1	0.0202496688254	blockFiles/set_28/main_PD/GB_runPatches1.xlsx
173	patches	True	n/a	609	0	n/a	n/a	1.0	1	right	n/a	n/a	n/a	1	0.078467830047	blockFiles/set_28/main_PD/GB_runPatches1.xlsx
174	patches	True	n/a	609	0	n/a	n/a	0.0	1	left	n/a	n/a	n/a	0	-0.0182105837576	blockFiles/set_28/main_PD/GB_runPatches1.xlsx
175	patches	True	n/a	609	0	n/a	n/a	0.0	1	left	n/a	n/a	n/a	0	-0.00196663716808	blockFiles/set_28/main_PD/GB_runPatches1.xlsx
176	patches	True	n/a	609	0	n/a	n/a	0.0	1	left	n/a	n/a	n/a	0	-0.06114794489	blockFiles/set_28/main_PD/GB_runPatches1.xlsx
177	patches	True	n/a	609	0	n/a	n/a	0.0	1	left	n/a	n/a	n/a	0	-0.0663444535993	blockFiles/set_28/main_PD/GB_runPatches1.xlsx
178	patches	True	n/a	609	0	n/a	n/a	1.0	1	right	n/a	n/a	n/a	1	0.0473099036328	blockFiles/set_28/main_PD/GB_runPatches1.xlsx
179	patches	True	n/a	609	0	n/a	n/a	1.0	1	right	n/a	n/a	n/a	1	0.0778680057824	blockFiles/set_28/main_PD/GB_runPatches1.xlsx
180	patches	True	n/a	609	0	n/a	n/a	0.0	1	left	n/a	n/a	n/a	0	-0.0232515145652	blockFiles/set_28/main_PD/GB_runPatches1.xlsx
181	patches	True	n/a	609	0	n/a	n/a	0.0	1	left	n/a	n/a	n/a	0	-0.0191480982862	blockFiles/set_28/main_PD/GB_runPatches1.xlsx
182	patches	True	n/a	609	0	n/a	n/a	0.0	1	left	n/a	n/a	n/a	0	-0.0628575300612	blockFiles/set_28/main_PD/GB_runPatches1.xlsx
183	patches	True	n/a	609	0	n/a	n/a	0.0	1	left	n/a	n/a	n/a	0	-0.0026738076098299997	blockFiles/set_28/main_PD/GB_runPatches1.xlsx
184	patches	True	n/a	609	0	n/a	n/a	1.0	1	right	n/a	n/a	n/a	1	0.055236501731000004	blockFiles/set_28/main_PD/GB_runPatches1.xlsx
185	patches	True	n/a	609	0	n/a	n/a	0.0	1	left	n/a	n/a	n/a	0	-0.055818005502199994	blockFiles/set_28/main_PD/GB_runPatches1.xlsx
186	patches	True	n/a	609	0	n/a	n/a	0.0	1	left	n/a	n/a	n/a	0	-0.0466309046373	blockFiles/set_28/main_PD/GB_runPatches1.xlsx
187	patches	True	n/a	609	0	n/a	n/a	0.0	1	left	n/a	n/a	n/a	0	-0.040571259390599995	blockFiles/set_28/main_PD/GB_runPatches1.xlsx
188	patches	True	n/a	609	0	n/a	n/a	1.0	1	right	n/a	n/a	n/a	1	0.0579842592217	blockFiles/set_28/main_PD/GB_runPatches1.xlsx
189	patches	True	n/a	609	0	n/a	n/a	0.0	1	left	n/a	n/a	n/a	0	-0.06316732672969999	blockFiles/set_28/main_PD/GB_runPatches1.xlsx
190	patches	True	n/a	609	0	n/a	n/a	1.0	1	right	n/a	n/a	n/a	1	0.0691852934286	blockFiles/set_28/main_PD/GB_runPatches1.xlsx
191	patches	True	n/a	609	0	n/a	n/a	1.0	1	right	n/a	n/a	n/a	1	0.008017324451359999	blockFiles/set_28/main_PD/GB_runPatches1.xlsx
192	patches	True	n/a	609	0	n/a	n/a	1.0	1	right	n/a	n/a	n/a	1	0.013095461260500001	blockFiles/set_28/main_PD/GB_runPatches1.xlsx
193	patches	True	n/a	609	0	n/a	n/a	0.0	1	left	n/a	n/a	n/a	0	-0.0637818440422	blockFiles/set_28/main_PD/GB_runPatches1.xlsx
194	patches	True	n/a	609	0	n/a	n/a	1.0	1	right	n/a	n/a	n/a	1	0.051432611402099995	blockFiles/set_28/main_PD/GB_runPatches1.xlsx
195	patches	True	n/a	609	0	n/a	n/a	1.0	1	right	n/a	n/a	n/a	1	0.036796522680699995	blockFiles/set_28/main_PD/GB_runPatches1.xlsx
196	patches	True	n/a	609	0	n/a	n/a	1.0	1	right	n/a	n/a	n/a	1	0.0519138413854	blockFiles/set_28/main_PD/GB_runPatches1.xlsx
197	patches	True	n/a	609	0	n/a	n/a	1.0	0	right	n/a	n/a	n/a	0	-0.0333938980475	blockFiles/set_28/main_PD/GB_runPatches1.xlsx
198	patches	True	n/a	609	0	n/a	n/a	n/a	0	None	n/a	n/a	n/a	0	-0.026245144568400002	blockFiles/set_28/main_PD/GB_runPatches1.xlsx
199	patches	True	n/a	609	0	n/a	n/a	0.0	1	left	n/a	n/a	n/a	0	-0.04920968020330001	blockFiles/set_28/main_PD/GB_runPatches1.xlsx
200	patches	True	n/a	609	0	n/a	n/a	0.0	1	left	n/a	n/a	n/a	0	-0.0439496474527	blockFiles/set_28/main_PD/GB_runPatches1.xlsx
201	patches	True	n/a	609	0	n/a	n/a	1.0	1	right	n/a	n/a	n/a	1	0.0290817907825	blockFiles/set_28/main_PD/GB_runPatches1.xlsx
202	patches	True	n/a	609	0	n/a	n/a	0.0	1	left	n/a	n/a	n/a	0	-0.0400279060565	blockFiles/set_28/main_PD/GB_runPatches1.xlsx
203	patches	True	n/a	609	0	n/a	n/a	1.0	1	right	n/a	n/a	n/a	1	0.018016988188	blockFiles/set_28/main_PD/GB_runPatches1.xlsx
204	patches	True	n/a	609	0	n/a	n/a	0.0	1	left	n/a	n/a	n/a	0	-0.0588207971305	blockFiles/set_28/main_PD/GB_runPatches1.xlsx
205	patches	True	n/a	609	0	n/a	n/a	1.0	1	right	n/a	n/a	n/a	1	0.048912107888599995	blockFiles/set_28/main_PD/GB_runPatches1.xlsx
206	patches	True	n/a	609	0	n/a	n/a	1.0	0	right	n/a	n/a	n/a	0	-0.0169084747136	blockFiles/set_28/main_PD/GB_runPatches1.xlsx
207	patches	True	n/a	609	0	n/a	n/a	n/a	0	None	n/a	n/a	n/a	0	-0.0655035091564	blockFiles/set_28/main_PD/GB_runPatches1.xlsx
208	patches	True	n/a	609	0	n/a	n/a	1.0	1	right	n/a	n/a	n/a	1	0.0252926277556	blockFiles/set_28/main_PD/GB_runPatches1.xlsx
209	patches	True	n/a	609	0	n/a	n/a	1.0	1	right	n/a	n/a	n/a	1	0.054412641990900006	blockFiles/set_28/main_PD/GB_runPatches1.xlsx
210	patches	True	n/a	609	0	n/a	n/a	1.0	0	right	n/a	n/a	n/a	0	-0.0018636069633099998	blockFiles/set_28/main_PD/GB_runPatches1.xlsx
211	patches	True	n/a	609	0	n/a	n/a	1.0	1	right	n/a	n/a	n/a	1	0.0539310406335	blockFiles/set_28/main_PD/GB_runPatches1.xlsx
212	patches	True	n/a	609	0	n/a	n/a	1.0	1	right	n/a	n/a	n/a	1	0.0498863933235	blockFiles/set_28/main_PD/GB_runPatches1.xlsx
213	patches	True	n/a	609	0	n/a	n/a	0.0	1	left	n/a	n/a	n/a	0	-0.07321013975889999	blockFiles/set_28/main_PD/GB_runPatches1.xlsx
214	patches	True	n/a	609	0	n/a	n/a	1.0	1	right	n/a	n/a	n/a	1	0.0401328469254	blockFiles/set_28/main_PD/GB_runPatches1.xlsx
215	patches	True	n/a	609	0	n/a	n/a	0.0	1	left	n/a	n/a	n/a	0	-0.0434088543057	blockFiles/set_28/main_PD/GB_runPatches1.xlsx
216	patches	True	n/a	609	0	n/a	n/a	n/a	0	None	n/a	n/a	n/a	0	-0.0361178838089	blockFiles/set_28/main_PD/GB_runPatches1.xlsx
217	patches	True	n/a	609	0	n/a	n/a	1.0	1	right	n/a	n/a	n/a	1	0.0612375597656	blockFiles/set_28/main_PD/GB_runPatches1.xlsx
218	patches	True	n/a	609	0	n/a	n/a	1.0	1	right	n/a	n/a	n/a	1	0.039568078443400004	blockFiles/set_28/main_PD/GB_runPatches1.xlsx
219	patches	True	n/a	609	0	n/a	n/a	1.0	1	right	n/a	n/a	n/a	1	0.000265980493277	blockFiles/set_28/main_PD/GB_runPatches1.xlsx
220	patches	True	n/a	609	0	n/a	n/a	0.0	1	left	n/a	n/a	n/a	0	-0.0614893560298	blockFiles/set_28/main_PD/GB_runPatches1.xlsx
221	patches	True	n/a	609	0	n/a	n/a	0.0	1	left	n/a	n/a	n/a	0	-0.048526553641999995	blockFiles/set_28/main_PD/GB_runPatches1.xlsx
222	patches	True	n/a	609	0	n/a	n/a	0.0	1	left	n/a	n/a	n/a	0	-0.00189283711836	blockFiles/set_28/main_PD/GB_runPatches1.xlsx
223	patches	True	n/a	609	0	n/a	n/a	0.0	1	left	n/a	n/a	n/a	0	-0.059655443579	blockFiles/set_28/main_PD/GB_runPatches1.xlsx
224	patches	True	n/a	609	0	n/a	n/a	0.0	1	left	n/a	n/a	n/a	0	-0.0668981109187	blockFiles/set_28/main_PD/GB_runPatches1.xlsx
225	patches	True	n/a	609	0	n/a	n/a	1.0	1	right	n/a	n/a	n/a	1	0.0773192483559	blockFiles/set_28/main_PD/GB_runPatches1.xlsx
226	patches	True	n/a	609	0	n/a	n/a	0.0	1	left	n/a	n/a	n/a	0	-0.0253132643737	blockFiles/set_28/main_PD/GB_runPatches1.xlsx
227	patches	True	n/a	609	0	n/a	n/a	1.0	1	right	n/a	n/a	n/a	1	0.0398098798096	blockFiles/set_28/main_PD/GB_runPatches1.xlsx
228	patches	True	n/a	609	0	n/a	n/a	0.0	1	left	n/a	n/a	n/a	0	-0.00374765146524	blockFiles/set_28/main_PD/GB_runPatches1.xlsx
229	patches	True	n/a	609	0	n/a	n/a	1.0	1	right	n/a	n/a	n/a	1	0.0524176995084	blockFiles/set_28/main_PD/GB_runPatches1.xlsx
230	patches	True	n/a	609	0	n/a	n/a	1.0	1	right	n/a	n/a	n/a	1	0.0541489809565	blockFiles/set_28/main_PD/GB_runPatches1.xlsx
231	patches	True	n/a	609	0	n/a	n/a	n/a	0	None	n/a	n/a	n/a	0	-0.05151587814090001	blockFiles/set_28/main_PD/GB_runPatches1.xlsx
232	patches	True	n/a	609	0	n/a	n/a	0.0	1	left	n/a	n/a	n/a	0	-0.0144919184968	blockFiles/set_28/main_PD/GB_runPatches1.xlsx
233	patches	True	n/a	609	0	n/a	n/a	1.0	1	right	n/a	n/a	n/a	1	0.0682463839278	blockFiles/set_28/main_PD/GB_runPatches1.xlsx
234	patches	True	n/a	609	0	n/a	n/a	0.0	1	left	n/a	n/a	n/a	0	-0.060487292334400006	blockFiles/set_28/main_PD/GB_runPatches1.xlsx
235	patches	True	n/a	609	0	n/a	n/a	1.0	1	right	n/a	n/a	n/a	1	0.014834595006	blockFiles/set_28/main_PD/GB_runPatches1.xlsx
236	patches	True	n/a	609	0	n/a	n/a	0.0	1	left	n/a	n/a	n/a	0	-0.0745500334352	blockFiles/set_28/main_PD/GB_runPatches1.xlsx
237	patches	True	n/a	609	0	n/a	n/a	0.0	0	left	n/a	n/a	n/a	1	0.013980982583000002	blockFiles/set_28/main_PD/GB_runPatches1.xlsx
238	patches	True	n/a	609	0	n/a	n/a	n/a	0	None	n/a	n/a	n/a	0	-0.013785418141600001	blockFiles/set_28/main_PD/GB_runPatches1.xlsx
239	patches	True	n/a	609	0	n/a	n/a	0.0	1	left	n/a	n/a	n/a	0	-0.043663698192699996	blockFiles/set_28/main_PD/GB_runPatches1.xlsx
240	patches	True	n/a	609	0	n/a	n/a	1.0	0	right	n/a	n/a	n/a	0	-0.0600153885782	blockFiles/set_28/main_PD/GB_runPatches1.xlsx
241	patches	True	n/a	609	0	n/a	n/a	0.0	0	left	n/a	n/a	n/a	1	0.0410313640349	blockFiles/set_28/main_PD/GB_runPatches1.xlsx
242	patches	True	n/a	609	0	n/a	n/a	0.0	1	left	n/a	n/a	n/a	0	-0.0711774211191	blockFiles/set_28/main_PD/GB_runPatches1.xlsx
243	patches	True	n/a	609	0	n/a	n/a	1.0	1	right	n/a	n/a	n/a	1	0.0556313265488	blockFiles/set_28/main_PD/GB_runPatches1.xlsx
244	patches	True	n/a	609	0	n/a	n/a	0.0	1	left	n/a	n/a	n/a	0	-0.0161990676075	blockFiles/set_28/main_PD/GB_runPatches1.xlsx
245	patches	True	n/a	609	0	n/a	n/a	0.0	1	left	n/a	n/a	n/a	0	-0.0237999760546	blockFiles/set_28/main_PD/GB_runPatches1.xlsx
246	patches	True	n/a	609	0	n/a	n/a	1.0	1	right	n/a	n/a	n/a	1	0.0682449465804	blockFiles/set_28/main_PD/GB_runPatches1.xlsx
247	patches	True	n/a	609	0	n/a	n/a	1.0	1	right	n/a	n/a	n/a	1	0.019906282294499998	blockFiles/set_28/main_PD/GB_runPatches1.xlsx
248	patches	True	n/a	609	0	n/a	n/a	0.0	1	left	n/a	n/a	n/a	0	-0.075581730213	blockFiles/set_28/main_PD/GB_runPatches1.xlsx
249	patches	True	n/a	609	0	n/a	n/a	1.0	1	right	n/a	n/a	n/a	1	0.0587963563576	blockFiles/set_28/main_PD/GB_runPatches1.xlsx
250	patches	True	n/a	609	0	n/a	n/a	n/a	0	None	n/a	n/a	n/a	1	0.0752447823808	blockFiles/set_28/main_PD/GB_runPatches1.xlsx
251	patches	True	n/a	609	0	n/a	n/a	1.0	1	right	n/a	n/a	n/a	1	0.0447825762816	blockFiles/set_28/main_PD/GB_runPatches1.xlsx
252	main_unc	True	0.0	609	0	0.0	0.0	1.0	0	right	2.0	1.0	1.0	0	-0.018731338456299998	blockFiles/set_28/main_unc/leftBlue\GB_LB_5.xlsx
253	main_unc	True	0.0	609	0	0.0	0.0	1.0	0	right	1.0	0.0	0.0	0	-0.018232757151099996	blockFiles/set_28/main_unc/leftBlue\GB_LB_5.xlsx
254	main_unc	True	0.0	609	0	0.0	0.0	0.0	1	left	2.0	1.0	1.0	0	-0.0443351362087	blockFiles/set_28/main_unc/leftBlue\GB_LB_5.xlsx
255	main_unc	True	0.0	609	0	0.0	0.0	0.0	1	left	2.0	1.0	1.0	0	-0.0705458988436	blockFiles/set_28/main_unc/leftBlue\GB_LB_5.xlsx
256	main_unc	True	0.0	609	0	0.0	0.0	0.0	1	left	2.0	1.0	1.0	0	-0.0730037009902	blockFiles/set_28/main_unc/leftBlue\GB_LB_5.xlsx
257	main_unc	True	0.0	609	0	0.0	0.0	1.0	1	right	1.0	1.0	1.0	1	0.013671553880000001	blockFiles/set_28/main_unc/leftBlue\GB_LB_5.xlsx
258	main_unc	True	0.0	609	0	0.0	0.0	0.0	1	left	2.0	1.0	1.0	0	-0.019798103794499998	blockFiles/set_28/main_unc/leftBlue\GB_LB_5.xlsx
259	main_unc	True	0.0	609	0	0.0	0.0	1.0	1	right	1.0	1.0	1.0	1	0.0368053797632	blockFiles/set_28/main_unc/leftBlue\GB_LB_5.xlsx
260	main_unc	True	0.0	609	0	0.0	0.0	0.0	0	left	1.0	1.0	1.0	1	0.027483014129099998	blockFiles/set_28/main_unc/leftBlue\GB_LB_5.xlsx
261	main_unc	True	1.0	609	0	0.0	0.0	n/a	0	None	n/a	0.0	n/a	1	0.00351742701605	blockFiles/set_28/main_unc/leftBlue\GB_LB_5.xlsx
262	main_unc	True	0.0	609	0	0.0	0.0	1.0	1	right	1.0	1.0	1.0	1	0.0211586022004	blockFiles/set_28/main_unc/leftBlue\GB_LB_5.xlsx
263	main_unc	True	0.0	609	0	0.0	0.0	0.0	1	left	2.0	1.0	1.0	0	-0.0640166910551	blockFiles/set_28/main_unc/leftBlue\GB_LB_5.xlsx
264	main_unc	True	0.0	609	0	0.0	0.0	1.0	1	right	1.0	1.0	1.0	1	0.056397885587099995	blockFiles/set_28/main_unc/leftBlue\GB_LB_5.xlsx
265	main_unc	True	0.0	609	0	0.0	0.0	1.0	1	right	1.0	0.0	1.0	1	0.0508661642857	blockFiles/set_28/main_unc/leftBlue\GB_LB_5.xlsx
266	main_unc	True	0.0	609	0	0.0	0.0	1.0	0	right	2.0	1.0	1.0	0	-0.0261675034091	blockFiles/set_28/main_unc/leftBlue\GB_LB_5.xlsx
267	main_unc	True	0.0	609	0	0.0	0.0	0.0	1	left	2.0	0.0	1.0	0	-0.06260259838769999	blockFiles/set_28/main_unc/leftBlue\GB_LB_5.xlsx
268	main_unc	True	0.0	609	0	0.0	0.0	0.0	1	left	2.0	1.0	1.0	0	-0.0725527076423	blockFiles/set_28/main_unc/leftBlue\GB_LB_5.xlsx
269	main_unc	True	0.0	609	0	0.0	0.0	1.0	1	right	1.0	1.0	1.0	1	0.045206826161599996	blockFiles/set_28/main_unc/leftBlue\GB_LB_5.xlsx
270	main_unc	True	0.0	609	0	0.0	0.0	0.0	1	left	2.0	1.0	1.0	0	-0.000577747840434	blockFiles/set_28/main_unc/leftBlue\GB_LB_5.xlsx
271	main_unc	True	0.0	609	0	0.0	0.0	0.0	1	left	2.0	0.0	1.0	0	-0.0206658031605	blockFiles/set_28/main_unc/leftBlue\GB_LB_5.xlsx
272	main_unc	True	0.0	609	0	0.0	0.0	0.0	1	left	2.0	1.0	1.0	0	-0.06091600045559999	blockFiles/set_28/main_unc/leftBlue\GB_LB_5.xlsx
273	main_unc	True	0.0	609	0	0.0	0.0	1.0	1	right	2.0	0.0	0.0	1	0.0060016306676000004	blockFiles/set_28/main_unc/leftBlue\GB_LB_5.xlsx
274	main_unc	True	0.0	609	0	0.0	0.0	1.0	1	right	1.0	1.0	1.0	1	0.0528659242392	blockFiles/set_28/main_unc/leftBlue\GB_LB_5.xlsx
275	main_unc	True	0.0	609	0	0.0	0.0	1.0	1	right	1.0	0.0	1.0	1	0.0683506058156	blockFiles/set_28/main_unc/leftBlue\GB_LB_5.xlsx
276	main_unc	True	0.0	609	0	0.0	0.0	1.0	1	right	1.0	1.0	1.0	1	0.04972119554880001	blockFiles/set_28/main_unc/leftBlue\GB_LB_5.xlsx
277	main_unc	True	0.0	609	0	0.0	0.0	1.0	1	right	1.0	0.0	1.0	1	0.00351742701605	blockFiles/set_28/main_unc/leftBlue\GB_LB_5.xlsx
278	main_unc	True	0.0	609	0	1.0	1.0	0.0	1	left	1.0	1.0	1.0	0	-0.0286834217235	blockFiles/set_28/main_unc/rightBlue\GB_RB_2.xlsx
279	main_unc	True	0.0	609	0	1.0	1.0	1.0	1	right	2.0	1.0	1.0	1	0.0195276158862	blockFiles/set_28/main_unc/rightBlue\GB_RB_2.xlsx
280	main_unc	True	0.0	609	0	1.0	1.0	0.0	1	left	1.0	1.0	1.0	0	-0.051999162267899995	blockFiles/set_28/main_unc/rightBlue\GB_RB_2.xlsx
281	main_unc	True	0.0	609	0	1.0	1.0	1.0	0	right	1.0	0.0	1.0	0	-0.060197791717900004	blockFiles/set_28/main_unc/rightBlue\GB_RB_2.xlsx
282	main_unc	True	0.0	609	0	1.0	1.0	1.0	1	right	2.0	0.0	1.0	1	0.015461635906200002	blockFiles/set_28/main_unc/rightBlue\GB_RB_2.xlsx
283	main_unc	True	0.0	609	0	1.0	1.0	0.0	1	left	1.0	1.0	1.0	0	-0.0155504341237	blockFiles/set_28/main_unc/rightBlue\GB_RB_2.xlsx
284	main_unc	True	0.0	609	0	1.0	1.0	0.0	1	left	1.0	0.0	1.0	0	-0.0614893836714	blockFiles/set_28/main_unc/rightBlue\GB_RB_2.xlsx
285	main_unc	True	0.0	609	0	1.0	1.0	1.0	1	right	2.0	1.0	1.0	1	0.0711367115565	blockFiles/set_28/main_unc/rightBlue\GB_RB_2.xlsx
286	main_unc	True	0.0	609	0	1.0	1.0	1.0	1	right	2.0	1.0	1.0	1	0.0747529072315	blockFiles/set_28/main_unc/rightBlue\GB_RB_2.xlsx
287	main_unc	True	0.0	609	0	1.0	1.0	0.0	1	left	1.0	1.0	1.0	0	-0.048652886450300005	blockFiles/set_28/main_unc/rightBlue\GB_RB_2.xlsx
288	main_unc	True	0.0	609	0	1.0	1.0	0.0	1	left	1.0	1.0	1.0	0	-0.0421407411806	blockFiles/set_28/main_unc/rightBlue\GB_RB_2.xlsx
289	main_unc	True	0.0	609	0	1.0	1.0	1.0	0	right	2.0	0.0	0.0	0	-0.013748494740600001	blockFiles/set_28/main_unc/rightBlue\GB_RB_2.xlsx
290	main_unc	True	0.0	609	0	1.0	1.0	1.0	1	right	1.0	0.0	0.0	1	0.00608188908547	blockFiles/set_28/main_unc/rightBlue\GB_RB_2.xlsx
291	main_unc	True	0.0	609	0	1.0	1.0	1.0	1	right	2.0	1.0	1.0	1	0.048385068904599995	blockFiles/set_28/main_unc/rightBlue\GB_RB_2.xlsx
292	main_unc	True	1.0	609	0	1.0	1.0	0.0	0	left	n/a	0.0	n/a	1	0.0021405701711800004	blockFiles/set_28/main_unc/rightBlue\GB_RB_2.xlsx
293	main_unc	True	0.0	609	0	1.0	1.0	1.0	1	right	2.0	1.0	1.0	1	0.062131289746599996	blockFiles/set_28/main_unc/rightBlue\GB_RB_2.xlsx
294	main_unc	True	0.0	609	0	1.0	1.0	1.0	0	right	2.0	0.0	0.0	0	-0.0265659541823	blockFiles/set_28/main_unc/rightBlue\GB_RB_2.xlsx
295	main_unc	True	0.0	609	0	1.0	1.0	0.0	1	left	1.0	0.0	1.0	0	-0.0597265520133	blockFiles/set_28/main_unc/rightBlue\GB_RB_2.xlsx
296	main_unc	True	0.0	609	0	1.0	1.0	1.0	1	right	2.0	1.0	1.0	1	0.028695661705	blockFiles/set_28/main_unc/rightBlue\GB_RB_2.xlsx
297	main_unc	True	0.0	609	0	1.0	1.0	1.0	1	right	2.0	1.0	1.0	1	0.041587332394	blockFiles/set_28/main_unc/rightBlue\GB_RB_2.xlsx
298	main_unc	True	0.0	609	0	1.0	1.0	0.0	0	left	1.0	0.0	0.0	1	0.00752451283857	blockFiles/set_28/main_unc/rightBlue\GB_RB_2.xlsx
299	main_unc	True	0.0	609	0	1.0	1.0	0.0	1	left	1.0	1.0	1.0	0	-0.038455037158	blockFiles/set_28/main_unc/rightBlue\GB_RB_2.xlsx
300	main_unc	True	0.0	609	0	1.0	1.0	0.0	1	left	1.0	1.0	1.0	0	-0.0721737859957	blockFiles/set_28/main_unc/rightBlue\GB_RB_2.xlsx
301	main_unc	True	0.0	609	0	1.0	1.0	0.0	1	left	1.0	0.0	1.0	0	-0.0466654921137	blockFiles/set_28/main_unc/rightBlue\GB_RB_2.xlsx
302	main_unc	True	0.0	609	0	1.0	1.0	1.0	1	right	2.0	1.0	1.0	1	0.005537868309770001	blockFiles/set_28/main_unc/rightBlue\GB_RB_2.xlsx
303	main_unc	True	0.0	609	0	1.0	1.0	1.0	1	right	2.0	1.0	1.0	1	0.0021405701711800004	blockFiles/set_28/main_unc/rightBlue\GB_RB_2.xlsx
304	main_unc	True	0.0	609	0	2.0	2.0	1.0	1	right	2.0	0.0	0.0	1	0.0479518201947	blockFiles/set_28/main_unc/leftBlue\GB_LB_4.xlsx
305	main_unc	True	0.0	609	0	2.0	2.0	0.0	1	left	1.0	0.0	0.0	0	-0.00676291862503	blockFiles/set_28/main_unc/leftBlue\GB_LB_4.xlsx
306	main_unc	True	0.0	609	0	2.0	2.0	0.0	1	left	2.0	1.0	1.0	0	-0.056908745989199996	blockFiles/set_28/main_unc/leftBlue\GB_LB_4.xlsx
307	main_unc	True	0.0	609	0	2.0	2.0	0.0	1	left	2.0	1.0	1.0	0	-0.0329636961035	blockFiles/set_28/main_unc/leftBlue\GB_LB_4.xlsx
308	main_unc	True	0.0	609	0	2.0	2.0	0.0	1	left	2.0	1.0	1.0	0	-0.028713860362800003	blockFiles/set_28/main_unc/leftBlue\GB_LB_4.xlsx
309	main_unc	True	0.0	609	0	2.0	2.0	0.0	1	left	2.0	0.0	1.0	0	-0.0685951310955	blockFiles/set_28/main_unc/leftBlue\GB_LB_4.xlsx
310	main_unc	True	0.0	609	0	2.0	2.0	0.0	1	left	2.0	1.0	1.0	0	-0.0248565542698	blockFiles/set_28/main_unc/leftBlue\GB_LB_4.xlsx
311	main_unc	True	0.0	609	0	2.0	2.0	0.0	1	left	2.0	0.0	1.0	0	-0.0148226564936	blockFiles/set_28/main_unc/leftBlue\GB_LB_4.xlsx
312	main_unc	True	0.0	609	0	2.0	2.0	0.0	1	left	2.0	1.0	1.0	0	-0.0659688462876	blockFiles/set_28/main_unc/leftBlue\GB_LB_4.xlsx
313	main_unc	True	0.0	609	0	2.0	2.0	1.0	1	right	1.0	1.0	1.0	1	0.033143225852399996	blockFiles/set_28/main_unc/leftBlue\GB_LB_4.xlsx
314	main_unc	True	0.0	609	0	2.0	2.0	1.0	1	right	1.0	1.0	1.0	1	0.0355822223984	blockFiles/set_28/main_unc/leftBlue\GB_LB_4.xlsx
315	main_unc	True	0.0	609	0	2.0	2.0	0.0	1	left	2.0	1.0	1.0	0	-0.053958478849400006	blockFiles/set_28/main_unc/leftBlue\GB_LB_4.xlsx
316	main_unc	True	1.0	609	0	2.0	2.0	n/a	0	None	n/a	0.0	n/a	1	0.00285797093064	blockFiles/set_28/main_unc/leftBlue\GB_LB_4.xlsx
317	main_unc	True	0.0	609	0	2.0	2.0	1.0	1	right	1.0	1.0	1.0	1	0.017380902208400002	blockFiles/set_28/main_unc/leftBlue\GB_LB_4.xlsx
318	main_unc	True	0.0	609	0	2.0	2.0	1.0	1	right	1.0	1.0	1.0	1	0.0559519164823	blockFiles/set_28/main_unc/leftBlue\GB_LB_4.xlsx
319	main_unc	True	0.0	609	0	2.0	2.0	0.0	1	left	2.0	0.0	1.0	0	-0.014746310357	blockFiles/set_28/main_unc/leftBlue\GB_LB_4.xlsx
320	main_unc	True	0.0	609	0	2.0	2.0	0.0	1	left	2.0	1.0	1.0	0	-0.0391734702885	blockFiles/set_28/main_unc/leftBlue\GB_LB_4.xlsx
321	main_unc	True	0.0	609	0	2.0	2.0	1.0	1	right	1.0	1.0	1.0	1	0.0594560743123	blockFiles/set_28/main_unc/leftBlue\GB_LB_4.xlsx
322	main_unc	True	0.0	609	0	2.0	2.0	0.0	1	left	2.0	1.0	1.0	0	-0.0263707282767	blockFiles/set_28/main_unc/leftBlue\GB_LB_4.xlsx
323	main_unc	True	0.0	609	0	2.0	2.0	1.0	1	right	1.0	1.0	1.0	1	0.0358486613631	blockFiles/set_28/main_unc/leftBlue\GB_LB_4.xlsx
324	main_unc	True	0.0	609	0	2.0	2.0	1.0	1	right	1.0	1.0	1.0	1	0.0604147977941	blockFiles/set_28/main_unc/leftBlue\GB_LB_4.xlsx
325	main_unc	True	0.0	609	0	2.0	2.0	1.0	1	right	1.0	1.0	1.0	1	0.0154526937939	blockFiles/set_28/main_unc/leftBlue\GB_LB_4.xlsx
326	main_unc	True	0.0	609	0	2.0	2.0	1.0	1	right	1.0	0.0	1.0	1	0.07865630466489999	blockFiles/set_28/main_unc/leftBlue\GB_LB_4.xlsx
327	main_unc	True	0.0	609	0	2.0	2.0	0.0	1	left	2.0	1.0	1.0	0	-0.04253974983469999	blockFiles/set_28/main_unc/leftBlue\GB_LB_4.xlsx
328	main_unc	True	0.0	609	0	2.0	2.0	0.0	1	left	2.0	1.0	1.0	0	-0.0219287677668	blockFiles/set_28/main_unc/leftBlue\GB_LB_4.xlsx
329	main_unc	True	0.0	609	0	2.0	2.0	0.0	0	left	2.0	0.0	0.0	1	0.00285797093064	blockFiles/set_28/main_unc/leftBlue\GB_LB_4.xlsx
330	main_unc	True	0.0	609	0	3.0	3.0	0.0	1	left	1.0	0.0	1.0	0	-0.077118457891	blockFiles/set_28/main_unc/rightBlue\GB_RB_4.xlsx
331	main_unc	True	0.0	609	0	3.0	3.0	0.0	1	left	1.0	1.0	1.0	0	-0.051721053924400004	blockFiles/set_28/main_unc/rightBlue\GB_RB_4.xlsx
332	main_unc	True	0.0	609	0	3.0	3.0	1.0	1	right	2.0	1.0	1.0	1	0.0206839074381	blockFiles/set_28/main_unc/rightBlue\GB_RB_4.xlsx
333	main_unc	True	0.0	609	0	3.0	3.0	1.0	1	right	2.0	1.0	1.0	1	0.042676362358	blockFiles/set_28/main_unc/rightBlue\GB_RB_4.xlsx
334	main_unc	True	0.0	609	0	3.0	3.0	1.0	1	right	2.0	1.0	1.0	1	0.06292519837619999	blockFiles/set_28/main_unc/rightBlue\GB_RB_4.xlsx
335	main_unc	True	0.0	609	0	3.0	3.0	0.0	1	left	1.0	1.0	1.0	0	-0.0134667199664	blockFiles/set_28/main_unc/rightBlue\GB_RB_4.xlsx
336	main_unc	True	0.0	609	0	3.0	3.0	0.0	1	left	1.0	1.0	1.0	0	-0.062588334512	blockFiles/set_28/main_unc/rightBlue\GB_RB_4.xlsx
337	main_unc	True	0.0	609	0	3.0	3.0	0.0	1	left	1.0	1.0	1.0	0	-0.023231710065200004	blockFiles/set_28/main_unc/rightBlue\GB_RB_4.xlsx
338	main_unc	True	0.0	609	0	3.0	3.0	0.0	1	left	1.0	1.0	1.0	0	-0.05166565785180001	blockFiles/set_28/main_unc/rightBlue\GB_RB_4.xlsx
339	main_unc	True	0.0	609	0	3.0	3.0	1.0	1	right	2.0	1.0	1.0	1	0.0184659566544	blockFiles/set_28/main_unc/rightBlue\GB_RB_4.xlsx
340	main_unc	True	0.0	609	0	3.0	3.0	1.0	1	right	2.0	1.0	1.0	1	0.0364208705164	blockFiles/set_28/main_unc/rightBlue\GB_RB_4.xlsx
341	main_unc	True	0.0	609	0	3.0	3.0	1.0	1	right	2.0	0.0	1.0	1	0.0681982602552	blockFiles/set_28/main_unc/rightBlue\GB_RB_4.xlsx
342	main_unc	True	0.0	609	0	3.0	3.0	0.0	1	left	1.0	1.0	1.0	0	-0.0318505177647	blockFiles/set_28/main_unc/rightBlue\GB_RB_4.xlsx
343	main_unc	True	0.0	609	0	3.0	3.0	1.0	1	right	2.0	1.0	1.0	1	0.0632825249061	blockFiles/set_28/main_unc/rightBlue\GB_RB_4.xlsx
344	main_unc	True	0.0	609	0	3.0	3.0	0.0	1	left	1.0	1.0	1.0	0	-0.038912965767099995	blockFiles/set_28/main_unc/rightBlue\GB_RB_4.xlsx
345	main_unc	True	0.0	609	0	3.0	3.0	1.0	1	right	2.0	0.0	1.0	1	0.026454981342000004	blockFiles/set_28/main_unc/rightBlue\GB_RB_4.xlsx
346	main_unc	True	0.0	609	0	3.0	3.0	1.0	1	right	2.0	1.0	1.0	1	0.025234518796200003	blockFiles/set_28/main_unc/rightBlue\GB_RB_4.xlsx
347	main_unc	True	0.0	609	0	3.0	3.0	0.0	1	left	1.0	1.0	1.0	0	-0.0738628734834	blockFiles/set_28/main_unc/rightBlue\GB_RB_4.xlsx
348	main_unc	True	0.0	609	0	3.0	3.0	1.0	0	right	1.0	1.0	1.0	0	-0.00693966636434	blockFiles/set_28/main_unc/rightBlue\GB_RB_4.xlsx
349	main_unc	True	0.0	609	0	3.0	3.0	0.0	1	left	1.0	1.0	1.0	0	-0.04499776495619999	blockFiles/set_28/main_unc/rightBlue\GB_RB_4.xlsx
350	main_unc	True	0.0	609	0	3.0	3.0	1.0	1	right	2.0	1.0	1.0	1	0.0472846170329	blockFiles/set_28/main_unc/rightBlue\GB_RB_4.xlsx
351	main_unc	True	0.0	609	0	3.0	3.0	1.0	1	right	2.0	1.0	1.0	1	0.0521204290725	blockFiles/set_28/main_unc/rightBlue\GB_RB_4.xlsx
352	main_unc	True	0.0	609	0	3.0	3.0	0.0	1	left	1.0	0.0	1.0	0	-0.0360118488595	blockFiles/set_28/main_unc/rightBlue\GB_RB_4.xlsx
353	main_unc	True	0.0	609	0	3.0	3.0	1.0	1	right	2.0	1.0	1.0	1	0.0663398281112	blockFiles/set_28/main_unc/rightBlue\GB_RB_4.xlsx
354	main_unc	True	0.0	609	0	3.0	3.0	0.0	1	left	1.0	1.0	1.0	0	-0.022131181228900003	blockFiles/set_28/main_unc/rightBlue\GB_RB_4.xlsx
355	main_unc	True	0.0	609	0	4.0	4.0	0.0	0	left	2.0	0.0	1.0	1	0.0035275625251199997	blockFiles/set_28/main_unc/rightBlue\GB_RB_1.xlsx
356	main_unc	True	0.0	609	0	4.0	4.0	0.0	1	left	2.0	0.0	0.0	0	-0.0669637612998	blockFiles/set_28/main_unc/rightBlue\GB_RB_1.xlsx
357	main_unc	True	0.0	609	0	4.0	4.0	1.0	1	right	2.0	1.0	1.0	1	0.0457647870854	blockFiles/set_28/main_unc/rightBlue\GB_RB_1.xlsx
358	main_unc	True	0.0	609	0	4.0	4.0	1.0	1	right	2.0	1.0	1.0	1	0.058170931246100004	blockFiles/set_28/main_unc/rightBlue\GB_RB_1.xlsx
359	main_unc	True	0.0	609	0	4.0	4.0	1.0	1	right	2.0	0.0	1.0	1	0.06129623306919999	blockFiles/set_28/main_unc/rightBlue\GB_RB_1.xlsx
360	main_unc	True	0.0	609	0	4.0	4.0	0.0	1	left	1.0	1.0	1.0	0	-0.04830841796469999	blockFiles/set_28/main_unc/rightBlue\GB_RB_1.xlsx
361	main_unc	True	0.0	609	0	4.0	4.0	0.0	1	left	1.0	1.0	1.0	0	-0.0019060434587300002	blockFiles/set_28/main_unc/rightBlue\GB_RB_1.xlsx
362	main_unc	True	0.0	609	0	4.0	4.0	0.0	0	left	1.0	0.0	0.0	1	0.00483610572293	blockFiles/set_28/main_unc/rightBlue\GB_RB_1.xlsx
363	main_unc	True	0.0	609	0	4.0	4.0	1.0	1	right	2.0	1.0	1.0	1	0.0564972505905	blockFiles/set_28/main_unc/rightBlue\GB_RB_1.xlsx
364	main_unc	True	0.0	609	0	4.0	4.0	1.0	1	right	2.0	1.0	1.0	1	0.0479000791535	blockFiles/set_28/main_unc/rightBlue\GB_RB_1.xlsx
365	main_unc	True	0.0	609	0	4.0	4.0	0.0	1	left	1.0	1.0	1.0	0	-0.0349991172925	blockFiles/set_28/main_unc/rightBlue\GB_RB_1.xlsx
366	main_unc	True	0.0	609	0	4.0	4.0	0.0	1	left	2.0	0.0	0.0	0	-0.0503150381334	blockFiles/set_28/main_unc/rightBlue\GB_RB_1.xlsx
367	main_unc	True	0.0	609	0	4.0	4.0	1.0	1	right	2.0	1.0	1.0	1	0.0434894391522	blockFiles/set_28/main_unc/rightBlue\GB_RB_1.xlsx
368	main_unc	True	0.0	609	0	4.0	4.0	0.0	1	left	1.0	1.0	1.0	0	-0.0187593267299	blockFiles/set_28/main_unc/rightBlue\GB_RB_1.xlsx
369	main_unc	True	0.0	609	0	4.0	4.0	0.0	1	left	1.0	1.0	1.0	0	-0.0712995502725	blockFiles/set_28/main_unc/rightBlue\GB_RB_1.xlsx
370	main_unc	True	0.0	609	0	4.0	4.0	1.0	1	right	2.0	0.0	1.0	1	0.041860000677400006	blockFiles/set_28/main_unc/rightBlue\GB_RB_1.xlsx
371	main_unc	True	0.0	609	0	4.0	4.0	0.0	1	left	1.0	0.0	1.0	0	-0.050372469835	blockFiles/set_28/main_unc/rightBlue\GB_RB_1.xlsx
372	main_unc	True	0.0	609	0	4.0	4.0	0.0	0	left	1.0	0.0	0.0	1	0.011964604612399999	blockFiles/set_28/main_unc/rightBlue\GB_RB_1.xlsx
373	main_unc	True	0.0	609	0	4.0	4.0	1.0	1	right	2.0	1.0	1.0	1	0.0289896246232	blockFiles/set_28/main_unc/rightBlue\GB_RB_1.xlsx
374	main_unc	True	0.0	609	0	4.0	4.0	1.0	1	right	2.0	1.0	1.0	1	0.0294895732962	blockFiles/set_28/main_unc/rightBlue\GB_RB_1.xlsx
375	main_unc	True	0.0	609	0	4.0	4.0	0.0	1	left	1.0	1.0	1.0	0	-0.0735867838934	blockFiles/set_28/main_unc/rightBlue\GB_RB_1.xlsx
376	main_unc	True	0.0	609	0	4.0	4.0	0.0	1	left	1.0	0.0	1.0	0	-0.014201265294099999	blockFiles/set_28/main_unc/rightBlue\GB_RB_1.xlsx
377	main_unc	True	0.0	609	0	4.0	4.0	1.0	1	right	2.0	1.0	1.0	1	0.00566263815388	blockFiles/set_28/main_unc/rightBlue\GB_RB_1.xlsx
378	main_unc	True	1.0	609	0	4.0	4.0	n/a	0	None	n/a	0.0	n/a	0	-0.0626147942431	blockFiles/set_28/main_unc/rightBlue\GB_RB_1.xlsx
379	main_unc	True	0.0	609	0	4.0	4.0	0.0	1	left	1.0	0.0	1.0	0	-0.0645032712445	blockFiles/set_28/main_unc/rightBlue\GB_RB_1.xlsx
380	main_unc	True	0.0	609	0	4.0	4.0	0.0	1	left	1.0	1.0	1.0	0	-0.0626147942431	blockFiles/set_28/main_unc/rightBlue\GB_RB_1.xlsx
381	main_unc	True	0.0	609	0	5.0	5.0	1.0	1	right	1.0	1.0	1.0	1	0.00379085533321	blockFiles/set_28/main_unc/leftBlue\GB_LB_6.xlsx
382	main_unc	True	0.0	609	0	5.0	5.0	0.0	1	left	2.0	1.0	1.0	0	-0.0250182362087	blockFiles/set_28/main_unc/leftBlue\GB_LB_6.xlsx
383	main_unc	True	0.0	609	0	5.0	5.0	0.0	1	left	2.0	0.0	1.0	0	-0.0582205521129	blockFiles/set_28/main_unc/leftBlue\GB_LB_6.xlsx
384	main_unc	True	0.0	609	0	5.0	5.0	0.0	1	left	2.0	1.0	1.0	0	-0.0558615332842	blockFiles/set_28/main_unc/leftBlue\GB_LB_6.xlsx
385	main_unc	True	0.0	609	0	5.0	5.0	1.0	1	right	1.0	0.0	1.0	1	0.07077255543319999	blockFiles/set_28/main_unc/leftBlue\GB_LB_6.xlsx
386	main_unc	True	0.0	609	0	5.0	5.0	0.0	1	left	2.0	1.0	1.0	0	-0.017152572833	blockFiles/set_28/main_unc/leftBlue\GB_LB_6.xlsx
387	main_unc	True	0.0	609	0	5.0	5.0	0.0	1	left	2.0	1.0	1.0	0	-0.038941568210699995	blockFiles/set_28/main_unc/leftBlue\GB_LB_6.xlsx
388	main_unc	True	0.0	609	0	5.0	5.0	0.0	1	left	2.0	1.0	1.0	0	-0.021854641865900002	blockFiles/set_28/main_unc/leftBlue\GB_LB_6.xlsx
389	main_unc	True	0.0	609	0	5.0	5.0	0.0	1	left	2.0	1.0	1.0	0	-0.032386853788	blockFiles/set_28/main_unc/leftBlue\GB_LB_6.xlsx
390	main_unc	True	0.0	609	0	5.0	5.0	0.0	1	left	2.0	1.0	1.0	0	-0.0332272588462	blockFiles/set_28/main_unc/leftBlue\GB_LB_6.xlsx
391	main_unc	True	0.0	609	0	5.0	5.0	1.0	1	right	1.0	1.0	1.0	1	0.0294561688602	blockFiles/set_28/main_unc/leftBlue\GB_LB_6.xlsx
392	main_unc	True	0.0	609	0	5.0	5.0	1.0	1	right	1.0	0.0	1.0	1	0.0657553434744	blockFiles/set_28/main_unc/leftBlue\GB_LB_6.xlsx
393	main_unc	True	0.0	609	0	5.0	5.0	1.0	1	right	1.0	1.0	1.0	1	0.0193912801705	blockFiles/set_28/main_unc/leftBlue\GB_LB_6.xlsx
394	main_unc	True	0.0	609	0	5.0	5.0	0.0	1	left	2.0	1.0	1.0	0	-0.0353683051839	blockFiles/set_28/main_unc/leftBlue\GB_LB_6.xlsx
395	main_unc	True	0.0	609	0	5.0	5.0	1.0	1	right	1.0	1.0	1.0	1	0.06711758373309999	blockFiles/set_28/main_unc/leftBlue\GB_LB_6.xlsx
396	main_unc	True	0.0	609	0	5.0	5.0	0.0	1	left	2.0	1.0	1.0	0	-0.0377472276986	blockFiles/set_28/main_unc/leftBlue\GB_LB_6.xlsx
397	main_unc	True	0.0	609	0	5.0	5.0	0.0	1	left	2.0	1.0	1.0	0	-0.00902981754392	blockFiles/set_28/main_unc/leftBlue\GB_LB_6.xlsx
398	main_unc	True	0.0	609	0	5.0	5.0	1.0	1	right	1.0	1.0	1.0	1	0.0231574984267	blockFiles/set_28/main_unc/leftBlue\GB_LB_6.xlsx
399	main_unc	True	0.0	609	0	5.0	5.0	1.0	1	right	1.0	1.0	1.0	1	0.0799343296513	blockFiles/set_28/main_unc/leftBlue\GB_LB_6.xlsx
400	main_unc	True	0.0	609	0	5.0	5.0	0.0	1	left	2.0	0.0	1.0	0	-0.06220270719380001	blockFiles/set_28/main_unc/leftBlue\GB_LB_6.xlsx
401	main_unc	True	0.0	609	0	5.0	5.0	1.0	1	right	1.0	1.0	1.0	1	0.023013517185999997	blockFiles/set_28/main_unc/leftBlue\GB_LB_6.xlsx
402	main_unc	True	0.0	609	0	5.0	5.0	1.0	1	right	1.0	1.0	1.0	1	0.06665689492600001	blockFiles/set_28/main_unc/leftBlue\GB_LB_6.xlsx
403	main_unc	True	0.0	609	0	5.0	5.0	1.0	1	right	1.0	0.0	1.0	1	0.056838139425999995	blockFiles/set_28/main_unc/leftBlue\GB_LB_6.xlsx
404	main_unc	True	0.0	609	0	5.0	5.0	0.0	0	left	1.0	1.0	1.0	1	0.0169587689824	blockFiles/set_28/main_unc/leftBlue\GB_LB_6.xlsx
405	main_unc	True	0.0	609	0	5.0	5.0	1.0	1	right	1.0	1.0	1.0	1	0.04152627315369999	blockFiles/set_28/main_unc/leftBlue\GB_LB_6.xlsx
406	main_unc	True	0.0	609	0	6.0	6.0	0.0	1	left	1.0	1.0	1.0	0	-0.050691325478300006	blockFiles/set_28/main_unc/rightBlue\GB_RB_5.xlsx
407	main_unc	True	0.0	609	0	6.0	6.0	0.0	1	left	1.0	0.0	1.0	0	-0.0312241498195	blockFiles/set_28/main_unc/rightBlue\GB_RB_5.xlsx
408	main_unc	True	0.0	609	0	6.0	6.0	0.0	1	left	1.0	1.0	1.0	0	-0.0787135761976	blockFiles/set_28/main_unc/rightBlue\GB_RB_5.xlsx
409	main_unc	True	0.0	609	0	6.0	6.0	0.0	1	left	1.0	0.0	1.0	0	-0.06341934297230001	blockFiles/set_28/main_unc/rightBlue\GB_RB_5.xlsx
410	main_unc	True	0.0	609	0	6.0	6.0	1.0	1	right	1.0	1.0	0.0	1	0.0153575747646	blockFiles/set_28/main_unc/rightBlue\GB_RB_5.xlsx
411	main_unc	True	0.0	609	0	6.0	6.0	1.0	1	right	2.0	1.0	1.0	1	0.0536052706465	blockFiles/set_28/main_unc/rightBlue\GB_RB_5.xlsx
412	main_unc	True	0.0	609	0	6.0	6.0	0.0	1	left	1.0	1.0	1.0	0	-0.0202585637942	blockFiles/set_28/main_unc/rightBlue\GB_RB_5.xlsx
413	main_unc	True	0.0	609	0	6.0	6.0	1.0	1	right	2.0	1.0	1.0	1	0.063412870802	blockFiles/set_28/main_unc/rightBlue\GB_RB_5.xlsx
414	main_unc	True	0.0	609	0	6.0	6.0	0.0	1	left	1.0	1.0	1.0	0	-0.041141017302900006	blockFiles/set_28/main_unc/rightBlue\GB_RB_5.xlsx
415	main_unc	True	0.0	609	0	6.0	6.0	1.0	1	right	2.0	1.0	1.0	1	0.061873693149499996	blockFiles/set_28/main_unc/rightBlue\GB_RB_5.xlsx
416	main_unc	True	0.0	609	0	6.0	6.0	0.0	1	left	1.0	1.0	1.0	0	-0.0109884878621	blockFiles/set_28/main_unc/rightBlue\GB_RB_5.xlsx
417	main_unc	True	0.0	609	0	6.0	6.0	0.0	1	left	1.0	1.0	1.0	0	-0.07909611426289999	blockFiles/set_28/main_unc/rightBlue\GB_RB_5.xlsx
418	main_unc	True	0.0	609	0	6.0	6.0	1.0	1	right	2.0	0.0	1.0	1	0.059902624879	blockFiles/set_28/main_unc/rightBlue\GB_RB_5.xlsx
419	main_unc	True	0.0	609	0	6.0	6.0	0.0	1	left	1.0	1.0	1.0	0	-0.0208518252149	blockFiles/set_28/main_unc/rightBlue\GB_RB_5.xlsx
420	main_unc	True	0.0	609	0	6.0	6.0	1.0	1	right	1.0	0.0	0.0	1	0.0591804781556	blockFiles/set_28/main_unc/rightBlue\GB_RB_5.xlsx
421	main_unc	True	0.0	609	0	6.0	6.0	0.0	0	left	2.0	1.0	1.0	1	0.023660643436	blockFiles/set_28/main_unc/rightBlue\GB_RB_5.xlsx
422	main_unc	True	1.0	609	0	6.0	6.0	n/a	0	None	n/a	0.0	n/a	0	-0.0030232782289399997	blockFiles/set_28/main_unc/rightBlue\GB_RB_5.xlsx
423	main_unc	True	0.0	609	0	6.0	6.0	1.0	1	right	2.0	1.0	1.0	1	0.06510806966569999	blockFiles/set_28/main_unc/rightBlue\GB_RB_5.xlsx
424	main_unc	True	0.0	609	0	6.0	6.0	0.0	1	left	1.0	1.0	1.0	0	-0.0528704422154	blockFiles/set_28/main_unc/rightBlue\GB_RB_5.xlsx
425	main_unc	True	0.0	609	0	6.0	6.0	1.0	1	right	2.0	0.0	1.0	1	0.068276912868	blockFiles/set_28/main_unc/rightBlue\GB_RB_5.xlsx
426	main_unc	True	0.0	609	0	6.0	6.0	0.0	1	left	1.0	1.0	1.0	0	-0.0642391553149	blockFiles/set_28/main_unc/rightBlue\GB_RB_5.xlsx
427	main_unc	True	0.0	609	0	6.0	6.0	0.0	1	left	1.0	1.0	1.0	0	-0.0216010014899	blockFiles/set_28/main_unc/rightBlue\GB_RB_5.xlsx
428	main_unc	True	1.0	609	0	6.0	6.0	n/a	0	None	n/a	0.0	n/a	1	0.0115691659786	blockFiles/set_28/main_unc/rightBlue\GB_RB_5.xlsx
429	main_unc	True	0.0	609	0	6.0	6.0	0.0	1	left	1.0	1.0	1.0	0	-0.0607406971045	blockFiles/set_28/main_unc/rightBlue\GB_RB_5.xlsx
430	main_unc	True	0.0	609	0	6.0	6.0	1.0	1	right	2.0	1.0	1.0	1	0.00104014419019	blockFiles/set_28/main_unc/rightBlue\GB_RB_5.xlsx
431	main_unc	True	0.0	609	0	6.0	6.0	0.0	1	left	2.0	0.0	0.0	0	-0.0030232782289399997	blockFiles/set_28/main_unc/rightBlue\GB_RB_5.xlsx
432	main_unc	True	0.0	609	0	6.0	6.0	1.0	1	right	2.0	0.0	1.0	1	0.0115691659786	blockFiles/set_28/main_unc/rightBlue\GB_RB_5.xlsx
433	main_unc	True	0.0	609	0	7.0	7.0	1.0	1	right	2.0	1.0	1.0	1	0.0352666102536	blockFiles/set_28/main_unc/rightBlue\GB_RB_3.xlsx
434	main_unc	True	0.0	609	0	7.0	7.0	0.0	1	left	1.0	0.0	1.0	0	-0.057595283556699996	blockFiles/set_28/main_unc/rightBlue\GB_RB_3.xlsx
435	main_unc	True	0.0	609	0	7.0	7.0	0.0	1	left	1.0	1.0	1.0	0	-0.0521770319343	blockFiles/set_28/main_unc/rightBlue\GB_RB_3.xlsx
436	main_unc	True	0.0	609	0	7.0	7.0	1.0	1	right	2.0	1.0	1.0	1	0.0796965337545	blockFiles/set_28/main_unc/rightBlue\GB_RB_3.xlsx
437	main_unc	True	0.0	609	0	7.0	7.0	1.0	1	right	2.0	1.0	1.0	1	0.0448399605229	blockFiles/set_28/main_unc/rightBlue\GB_RB_3.xlsx
438	main_unc	True	0.0	609	0	7.0	7.0	0.0	1	left	1.0	1.0	1.0	0	-0.035549318827699995	blockFiles/set_28/main_unc/rightBlue\GB_RB_3.xlsx
439	main_unc	True	0.0	609	0	7.0	7.0	0.0	1	left	1.0	1.0	1.0	0	-0.00785326663405	blockFiles/set_28/main_unc/rightBlue\GB_RB_3.xlsx
440	main_unc	True	0.0	609	0	7.0	7.0	0.0	0	left	1.0	1.0	0.0	1	0.0273905589059	blockFiles/set_28/main_unc/rightBlue\GB_RB_3.xlsx
441	main_unc	True	0.0	609	0	7.0	7.0	0.0	1	left	1.0	1.0	1.0	0	-0.0566510774754	blockFiles/set_28/main_unc/rightBlue\GB_RB_3.xlsx
442	main_unc	True	0.0	609	0	7.0	7.0	1.0	1	right	2.0	1.0	1.0	1	0.048008102607	blockFiles/set_28/main_unc/rightBlue\GB_RB_3.xlsx
443	main_unc	True	0.0	609	0	7.0	7.0	0.0	1	left	2.0	0.0	0.0	0	-0.033065158166	blockFiles/set_28/main_unc/rightBlue\GB_RB_3.xlsx
444	main_unc	True	0.0	609	0	7.0	7.0	1.0	1	right	2.0	1.0	1.0	1	0.06980649156499999	blockFiles/set_28/main_unc/rightBlue\GB_RB_3.xlsx
445	main_unc	True	0.0	609	0	7.0	7.0	0.0	1	left	1.0	0.0	1.0	0	-0.021759613696499997	blockFiles/set_28/main_unc/rightBlue\GB_RB_3.xlsx
446	main_unc	True	0.0	609	0	7.0	7.0	0.0	1	left	1.0	1.0	1.0	0	-0.037558442615	blockFiles/set_28/main_unc/rightBlue\GB_RB_3.xlsx
447	main_unc	True	0.0	609	0	7.0	7.0	1.0	1	right	2.0	1.0	1.0	1	0.0725034912862	blockFiles/set_28/main_unc/rightBlue\GB_RB_3.xlsx
448	main_unc	True	0.0	609	0	7.0	7.0	1.0	1	right	2.0	0.0	1.0	1	0.00470002550632	blockFiles/set_28/main_unc/rightBlue\GB_RB_3.xlsx
449	main_unc	True	0.0	609	0	7.0	7.0	1.0	1	right	2.0	1.0	1.0	1	0.0701741418988	blockFiles/set_28/main_unc/rightBlue\GB_RB_3.xlsx
450	main_unc	True	0.0	609	0	7.0	7.0	0.0	1	left	1.0	1.0	1.0	0	-0.0694147408195	blockFiles/set_28/main_unc/rightBlue\GB_RB_3.xlsx
451	main_unc	True	0.0	609	0	7.0	7.0	1.0	1	right	2.0	0.0	1.0	1	0.0174153233692	blockFiles/set_28/main_unc/rightBlue\GB_RB_3.xlsx
452	main_unc	True	0.0	609	0	7.0	7.0	0.0	1	left	1.0	1.0	1.0	0	-0.0537294792756	blockFiles/set_28/main_unc/rightBlue\GB_RB_3.xlsx
453	main_unc	True	0.0	609	0	7.0	7.0	0.0	1	left	1.0	1.0	1.0	0	-0.062447081021999994	blockFiles/set_28/main_unc/rightBlue\GB_RB_3.xlsx
454	main_unc	True	1.0	609	0	7.0	7.0	n/a	0	None	n/a	0.0	n/a	0	-0.0193921844848	blockFiles/set_28/main_unc/rightBlue\GB_RB_3.xlsx
455	main_unc	True	0.0	609	0	7.0	7.0	1.0	1	right	2.0	1.0	1.0	1	0.0290039800853	blockFiles/set_28/main_unc/rightBlue\GB_RB_3.xlsx
456	main_unc	True	0.0	609	0	7.0	7.0	0.0	1	left	1.0	1.0	1.0	0	-0.0066871858947	blockFiles/set_28/main_unc/rightBlue\GB_RB_3.xlsx
457	main_unc	True	0.0	609	0	7.0	7.0	1.0	1	right	2.0	1.0	1.0	1	0.054841412399000006	blockFiles/set_28/main_unc/rightBlue\GB_RB_3.xlsx
458	main_unc	True	0.0	609	0	7.0	7.0	0.0	1	left	1.0	1.0	1.0	0	-0.0193921844848	blockFiles/set_28/main_unc/rightBlue\GB_RB_3.xlsx
459	main_unc	True	0.0	609	0	8.0	8.0	1.0	0	right	1.0	0.0	0.0	0	-0.00434687422588	blockFiles/set_28/main_unc/leftBlue\GB_LB_2.xlsx
460	main_unc	True	0.0	609	0	8.0	8.0	1.0	1	right	2.0	0.0	0.0	1	0.0690427756868	blockFiles/set_28/main_unc/leftBlue\GB_LB_2.xlsx
461	main_unc	True	0.0	609	0	8.0	8.0	1.0	1	right	2.0	0.0	0.0	1	0.0364925543778	blockFiles/set_28/main_unc/leftBlue\GB_LB_2.xlsx
462	main_unc	True	0.0	609	0	8.0	8.0	1.0	1	right	1.0	1.0	1.0	1	0.029111676365099995	blockFiles/set_28/main_unc/leftBlue\GB_LB_2.xlsx
463	main_unc	True	0.0	609	0	8.0	8.0	1.0	1	right	1.0	1.0	1.0	1	0.0315930498019	blockFiles/set_28/main_unc/leftBlue\GB_LB_2.xlsx
464	main_unc	True	0.0	609	0	8.0	8.0	1.0	0	right	2.0	1.0	1.0	0	-0.00749949358404	blockFiles/set_28/main_unc/leftBlue\GB_LB_2.xlsx
465	main_unc	True	0.0	609	0	8.0	8.0	0.0	1	left	2.0	0.0	1.0	0	-0.0766551049612	blockFiles/set_28/main_unc/leftBlue\GB_LB_2.xlsx
466	main_unc	True	0.0	609	0	8.0	8.0	0.0	1	left	2.0	1.0	1.0	0	-0.033943327423200005	blockFiles/set_28/main_unc/leftBlue\GB_LB_2.xlsx
467	main_unc	True	0.0	609	0	8.0	8.0	0.0	1	left	2.0	1.0	1.0	0	-0.0280741945654	blockFiles/set_28/main_unc/leftBlue\GB_LB_2.xlsx
468	main_unc	True	0.0	609	0	8.0	8.0	0.0	1	left	2.0	1.0	1.0	0	-0.0361239152029	blockFiles/set_28/main_unc/leftBlue\GB_LB_2.xlsx
469	main_unc	True	0.0	609	0	8.0	8.0	1.0	1	right	1.0	1.0	1.0	1	0.0242825326137	blockFiles/set_28/main_unc/leftBlue\GB_LB_2.xlsx
470	main_unc	True	0.0	609	0	8.0	8.0	1.0	1	right	1.0	1.0	1.0	1	0.042982817124600003	blockFiles/set_28/main_unc/leftBlue\GB_LB_2.xlsx
471	main_unc	True	0.0	609	0	8.0	8.0	0.0	1	left	2.0	1.0	1.0	0	-0.07728261144830001	blockFiles/set_28/main_unc/leftBlue\GB_LB_2.xlsx
472	main_unc	True	0.0	609	0	8.0	8.0	1.0	1	right	1.0	1.0	1.0	1	0.0501222162507	blockFiles/set_28/main_unc/leftBlue\GB_LB_2.xlsx
473	main_unc	True	0.0	609	0	8.0	8.0	0.0	1	left	2.0	0.0	1.0	0	-0.0197420510091	blockFiles/set_28/main_unc/leftBlue\GB_LB_2.xlsx
474	main_unc	True	0.0	609	0	8.0	8.0	1.0	1	right	1.0	1.0	1.0	1	0.0578723356128	blockFiles/set_28/main_unc/leftBlue\GB_LB_2.xlsx
475	main_unc	True	0.0	609	0	8.0	8.0	0.0	1	left	2.0	1.0	1.0	0	-0.0474037234485	blockFiles/set_28/main_unc/leftBlue\GB_LB_2.xlsx
476	main_unc	True	0.0	609	0	8.0	8.0	1.0	1	right	1.0	1.0	1.0	1	0.07438379393889999	blockFiles/set_28/main_unc/leftBlue\GB_LB_2.xlsx
477	main_unc	True	0.0	609	0	8.0	8.0	0.0	1	left	2.0	0.0	1.0	0	-0.00345698721707	blockFiles/set_28/main_unc/leftBlue\GB_LB_2.xlsx
478	main_unc	True	0.0	609	0	8.0	8.0	1.0	1	right	1.0	1.0	1.0	1	0.0366528468579	blockFiles/set_28/main_unc/leftBlue\GB_LB_2.xlsx
479	main_unc	True	0.0	609	0	8.0	8.0	1.0	1	right	1.0	1.0	1.0	1	0.0724225794524	blockFiles/set_28/main_unc/leftBlue\GB_LB_2.xlsx
480	main_unc	True	0.0	609	0	8.0	8.0	1.0	1	right	2.0	0.0	0.0	1	0.05030943870540001	blockFiles/set_28/main_unc/leftBlue\GB_LB_2.xlsx
481	main_unc	True	0.0	609	0	8.0	8.0	1.0	1	right	2.0	1.0	0.0	1	0.0126684456877	blockFiles/set_28/main_unc/leftBlue\GB_LB_2.xlsx
482	main_unc	True	0.0	609	0	8.0	8.0	0.0	1	left	2.0	0.0	1.0	0	-0.07395439665760001	blockFiles/set_28/main_unc/leftBlue\GB_LB_2.xlsx
483	main_unc	True	0.0	609	0	8.0	8.0	0.0	1	left	2.0	1.0	1.0	0	-0.0515061173961	blockFiles/set_28/main_unc/leftBlue\GB_LB_2.xlsx
484	main_unc	True	0.0	609	0	9.0	9.0	0.0	1	left	1.0	0.0	0.0	0	-0.011939611267299999	blockFiles/set_28/main_unc/leftBlue\GB_LB_3.xlsx
485	main_unc	True	0.0	609	0	9.0	9.0	0.0	0	left	1.0	1.0	1.0	1	0.00356788804755	blockFiles/set_28/main_unc/leftBlue\GB_LB_3.xlsx
486	main_unc	True	0.0	609	0	9.0	9.0	1.0	1	right	2.0	0.0	0.0	1	0.06604357982049999	blockFiles/set_28/main_unc/leftBlue\GB_LB_3.xlsx
487	main_unc	True	0.0	609	0	9.0	9.0	0.0	1	left	1.0	0.0	0.0	0	-0.039646259658	blockFiles/set_28/main_unc/leftBlue\GB_LB_3.xlsx
488	main_unc	True	0.0	609	0	9.0	9.0	1.0	1	right	1.0	0.0	1.0	1	0.0658052787744	blockFiles/set_28/main_unc/leftBlue\GB_LB_3.xlsx
489	main_unc	True	0.0	609	0	9.0	9.0	1.0	1	right	1.0	0.0	1.0	1	0.06772302769119999	blockFiles/set_28/main_unc/leftBlue\GB_LB_3.xlsx
490	main_unc	True	0.0	609	0	9.0	9.0	0.0	1	left	1.0	0.0	0.0	0	-0.0255096149817	blockFiles/set_28/main_unc/leftBlue\GB_LB_3.xlsx
491	main_unc	True	0.0	609	0	9.0	9.0	0.0	1	left	1.0	0.0	0.0	0	-0.0307536776923	blockFiles/set_28/main_unc/leftBlue\GB_LB_3.xlsx
492	main_unc	True	0.0	609	0	9.0	9.0	0.0	1	left	2.0	0.0	1.0	0	-0.0197831266746	blockFiles/set_28/main_unc/leftBlue\GB_LB_3.xlsx
493	main_unc	True	0.0	609	0	9.0	9.0	0.0	1	left	1.0	0.0	0.0	0	-0.044522518925400004	blockFiles/set_28/main_unc/leftBlue\GB_LB_3.xlsx
494	main_unc	True	0.0	609	0	9.0	9.0	1.0	1	right	1.0	1.0	1.0	1	0.061749692522	blockFiles/set_28/main_unc/leftBlue\GB_LB_3.xlsx
495	main_unc	True	0.0	609	0	9.0	9.0	1.0	1	right	1.0	1.0	1.0	1	0.050043131336599996	blockFiles/set_28/main_unc/leftBlue\GB_LB_3.xlsx
496	main_unc	True	0.0	609	0	9.0	9.0	0.0	0	left	2.0	1.0	0.0	1	0.0131032574363	blockFiles/set_28/main_unc/leftBlue\GB_LB_3.xlsx
497	main_unc	True	0.0	609	0	9.0	9.0	0.0	1	left	2.0	1.0	1.0	0	-0.0738966539688	blockFiles/set_28/main_unc/leftBlue\GB_LB_3.xlsx
498	main_unc	True	0.0	609	0	9.0	9.0	0.0	1	left	2.0	1.0	1.0	0	-0.0367237053812	blockFiles/set_28/main_unc/leftBlue\GB_LB_3.xlsx
499	main_unc	True	0.0	609	0	9.0	9.0	0.0	0	left	1.0	1.0	1.0	1	0.015974666513499998	blockFiles/set_28/main_unc/leftBlue\GB_LB_3.xlsx
500	main_unc	True	0.0	609	0	9.0	9.0	0.0	1	left	2.0	1.0	1.0	0	-0.053566998150199996	blockFiles/set_28/main_unc/leftBlue\GB_LB_3.xlsx
501	main_unc	True	0.0	609	0	9.0	9.0	1.0	1	right	1.0	1.0	1.0	1	0.032113481126700004	blockFiles/set_28/main_unc/leftBlue\GB_LB_3.xlsx
502	main_unc	True	0.0	609	0	9.0	9.0	1.0	1	right	1.0	1.0	1.0	1	0.061788692809600004	blockFiles/set_28/main_unc/leftBlue\GB_LB_3.xlsx
503	main_unc	True	0.0	609	0	9.0	9.0	0.0	1	left	2.0	0.0	1.0	0	-0.009841700326649999	blockFiles/set_28/main_unc/leftBlue\GB_LB_3.xlsx
504	main_unc	True	0.0	609	0	9.0	9.0	0.0	1	left	2.0	1.0	1.0	0	-0.0176417916454	blockFiles/set_28/main_unc/leftBlue\GB_LB_3.xlsx
505	main_unc	True	0.0	609	0	9.0	9.0	0.0	1	left	1.0	0.0	0.0	0	-0.06243551231919999	blockFiles/set_28/main_unc/leftBlue\GB_LB_3.xlsx
506	main_unc	True	0.0	609	0	9.0	9.0	1.0	1	right	2.0	0.0	0.0	1	0.023720767032400003	blockFiles/set_28/main_unc/leftBlue\GB_LB_3.xlsx
507	main_unc	True	0.0	609	0	9.0	9.0	1.0	1	right	1.0	0.0	1.0	1	0.050393619611900003	blockFiles/set_28/main_unc/leftBlue\GB_LB_3.xlsx
508	main_unc	True	0.0	609	0	9.0	9.0	0.0	1	left	2.0	1.0	1.0	0	-0.0321873353235	blockFiles/set_28/main_unc/leftBlue\GB_LB_3.xlsx
509	main_unc	True	0.0	609	0	10.0	10.0	1.0	1	right	2.0	0.0	0.0	1	0.05702883191409999	blockFiles/set_28/main_unc/leftBlue\GB_LB_1.xlsx
510	main_unc	True	0.0	609	0	10.0	10.0	0.0	1	left	1.0	0.0	0.0	0	-0.013735706787600001	blockFiles/set_28/main_unc/leftBlue\GB_LB_1.xlsx
511	main_unc	True	1.0	609	0	10.0	10.0	0.0	1	left	n/a	0.0	n/a	0	-0.00514980424196	blockFiles/set_28/main_unc/leftBlue\GB_LB_1.xlsx
512	main_unc	True	0.0	609	0	10.0	10.0	1.0	1	right	1.0	1.0	1.0	1	0.060441576726699996	blockFiles/set_28/main_unc/leftBlue\GB_LB_1.xlsx
513	main_unc	True	0.0	609	0	10.0	10.0	0.0	1	left	2.0	1.0	1.0	0	-0.0404180614091	blockFiles/set_28/main_unc/leftBlue\GB_LB_1.xlsx
514	main_unc	True	0.0	609	0	10.0	10.0	0.0	1	left	2.0	0.0	1.0	0	-0.0758238017932	blockFiles/set_28/main_unc/leftBlue\GB_LB_1.xlsx
515	main_unc	True	0.0	609	0	10.0	10.0	0.0	1	left	2.0	1.0	1.0	0	-0.0290799180791	blockFiles/set_28/main_unc/leftBlue\GB_LB_1.xlsx
516	main_unc	True	0.0	609	0	10.0	10.0	1.0	1	right	1.0	1.0	1.0	1	0.057002494800800003	blockFiles/set_28/main_unc/leftBlue\GB_LB_1.xlsx
517	main_unc	True	0.0	609	0	10.0	10.0	0.0	1	left	2.0	1.0	1.0	0	-0.06660186508669999	blockFiles/set_28/main_unc/leftBlue\GB_LB_1.xlsx
518	main_unc	True	0.0	609	0	10.0	10.0	1.0	1	right	1.0	0.0	1.0	1	0.015673861224200003	blockFiles/set_28/main_unc/leftBlue\GB_LB_1.xlsx
519	main_unc	True	0.0	609	0	10.0	10.0	0.0	0	left	2.0	0.0	0.0	1	0.023072691932299997	blockFiles/set_28/main_unc/leftBlue\GB_LB_1.xlsx
520	main_unc	True	0.0	609	0	10.0	10.0	0.0	1	left	2.0	1.0	1.0	0	-0.049713767599300004	blockFiles/set_28/main_unc/leftBlue\GB_LB_1.xlsx
521	main_unc	True	0.0	609	0	10.0	10.0	0.0	0	left	2.0	1.0	0.0	1	0.0127316853963	blockFiles/set_28/main_unc/leftBlue\GB_LB_1.xlsx
522	main_unc	True	0.0	609	0	10.0	10.0	0.0	1	left	1.0	0.0	0.0	0	-0.0661357371882	blockFiles/set_28/main_unc/leftBlue\GB_LB_1.xlsx
523	main_unc	True	0.0	609	0	10.0	10.0	1.0	1	right	1.0	1.0	1.0	1	0.05101582225409999	blockFiles/set_28/main_unc/leftBlue\GB_LB_1.xlsx
524	main_unc	True	0.0	609	0	10.0	10.0	0.0	1	left	2.0	1.0	1.0	0	-0.0403184333071	blockFiles/set_28/main_unc/leftBlue\GB_LB_1.xlsx
525	main_unc	True	0.0	609	0	10.0	10.0	1.0	1	right	1.0	1.0	1.0	1	0.0584950106218	blockFiles/set_28/main_unc/leftBlue\GB_LB_1.xlsx
526	main_unc	True	0.0	609	0	10.0	10.0	0.0	1	left	2.0	0.0	1.0	0	-0.025562478303900002	blockFiles/set_28/main_unc/leftBlue\GB_LB_1.xlsx
527	main_unc	True	0.0	609	0	10.0	10.0	0.0	1	left	2.0	1.0	1.0	0	-0.0504766071402	blockFiles/set_28/main_unc/leftBlue\GB_LB_1.xlsx
528	main_unc	True	0.0	609	0	10.0	10.0	0.0	0	left	2.0	0.0	0.0	1	0.0415879881196	blockFiles/set_28/main_unc/leftBlue\GB_LB_1.xlsx
529	main_unc	True	0.0	609	0	10.0	10.0	0.0	1	left	2.0	1.0	1.0	0	-0.011385969538200001	blockFiles/set_28/main_unc/leftBlue\GB_LB_1.xlsx
530	main_unc	True	0.0	609	0	10.0	10.0	1.0	1	right	1.0	0.0	1.0	1	0.0701940417662	blockFiles/set_28/main_unc/leftBlue\GB_LB_1.xlsx
531	main_unc	True	0.0	609	0	10.0	10.0	0.0	1	left	2.0	1.0	1.0	0	-0.07456424886360001	blockFiles/set_28/main_unc/leftBlue\GB_LB_1.xlsx
532	main_unc	True	0.0	609	0	10.0	10.0	0.0	0	left	2.0	0.0	0.0	1	0.030253806524	blockFiles/set_28/main_unc/leftBlue\GB_LB_1.xlsx
533	main_unc	True	0.0	609	0	10.0	10.0	0.0	0	left	2.0	0.0	0.0	1	0.0100887838751	blockFiles/set_28/main_unc/leftBlue\GB_LB_1.xlsx
534	main_unc	True	0.0	609	0	10.0	10.0	1.0	0	right	2.0	1.0	1.0	0	-0.00514980424196	blockFiles/set_28/main_unc/leftBlue\GB_LB_1.xlsx
535	main_unc	True	0.0	609	0	11.0	11.0	1.0	1	right	2.0	1.0	1.0	1	0.0770433786884	blockFiles/set_28/main_unc/rightBlue\GB_RB_6.xlsx
536	main_unc	True	0.0	609	0	11.0	11.0	0.0	1	left	2.0	1.0	0.0	0	-0.031285444703	blockFiles/set_28/main_unc/rightBlue\GB_RB_6.xlsx
537	main_unc	True	0.0	609	0	11.0	11.0	0.0	1	left	1.0	1.0	1.0	0	-0.0154825096205	blockFiles/set_28/main_unc/rightBlue\GB_RB_6.xlsx
538	main_unc	True	0.0	609	0	11.0	11.0	0.0	1	left	1.0	1.0	1.0	0	-0.0101099071652	blockFiles/set_28/main_unc/rightBlue\GB_RB_6.xlsx
539	main_unc	True	0.0	609	0	11.0	11.0	0.0	0	left	1.0	0.0	0.0	1	0.0223676774465	blockFiles/set_28/main_unc/rightBlue\GB_RB_6.xlsx
540	main_unc	True	0.0	609	0	11.0	11.0	1.0	1	right	2.0	0.0	1.0	1	0.0714848873951	blockFiles/set_28/main_unc/rightBlue\GB_RB_6.xlsx
541	main_unc	True	0.0	609	0	11.0	11.0	1.0	1	right	2.0	0.0	1.0	1	0.0245738033205	blockFiles/set_28/main_unc/rightBlue\GB_RB_6.xlsx
542	main_unc	True	0.0	609	0	11.0	11.0	0.0	0	left	1.0	0.0	0.0	1	0.0328725428693	blockFiles/set_28/main_unc/rightBlue\GB_RB_6.xlsx
543	main_unc	True	0.0	609	0	11.0	11.0	1.0	1	right	1.0	0.0	0.0	1	0.0619222340919	blockFiles/set_28/main_unc/rightBlue\GB_RB_6.xlsx
544	main_unc	True	0.0	609	0	11.0	11.0	0.0	0	left	2.0	1.0	1.0	1	0.0162287280895	blockFiles/set_28/main_unc/rightBlue\GB_RB_6.xlsx
545	main_unc	True	0.0	609	0	11.0	11.0	0.0	1	left	1.0	1.0	1.0	0	-0.0756415201165	blockFiles/set_28/main_unc/rightBlue\GB_RB_6.xlsx
546	main_unc	True	0.0	609	0	11.0	11.0	0.0	1	left	1.0	1.0	1.0	0	-0.0132541066222	blockFiles/set_28/main_unc/rightBlue\GB_RB_6.xlsx
547	main_unc	True	0.0	609	0	11.0	11.0	1.0	1	right	2.0	1.0	1.0	1	0.047230529766499996	blockFiles/set_28/main_unc/rightBlue\GB_RB_6.xlsx
548	main_unc	True	0.0	609	0	11.0	11.0	1.0	1	right	2.0	1.0	1.0	1	0.0691293267533	blockFiles/set_28/main_unc/rightBlue\GB_RB_6.xlsx
549	main_unc	True	0.0	609	0	11.0	11.0	0.0	1	left	1.0	1.0	1.0	0	-0.0020854185894100003	blockFiles/set_28/main_unc/rightBlue\GB_RB_6.xlsx
550	main_unc	True	0.0	609	0	11.0	11.0	1.0	1	right	2.0	1.0	1.0	1	0.050868726503099995	blockFiles/set_28/main_unc/rightBlue\GB_RB_6.xlsx
551	main_unc	True	0.0	609	0	11.0	11.0	0.0	1	left	1.0	1.0	1.0	0	-0.025026897154700002	blockFiles/set_28/main_unc/rightBlue\GB_RB_6.xlsx
552	main_unc	True	0.0	609	0	11.0	11.0	1.0	1	right	2.0	0.0	1.0	1	0.0599194752984	blockFiles/set_28/main_unc/rightBlue\GB_RB_6.xlsx
553	main_unc	True	0.0	609	0	11.0	11.0	0.0	1	left	1.0	1.0	1.0	0	-0.0217075721361	blockFiles/set_28/main_unc/rightBlue\GB_RB_6.xlsx
554	main_unc	True	0.0	609	0	11.0	11.0	0.0	1	left	1.0	1.0	1.0	0	-0.0721682523005	blockFiles/set_28/main_unc/rightBlue\GB_RB_6.xlsx
555	main_unc	True	0.0	609	0	11.0	11.0	0.0	1	left	1.0	1.0	1.0	0	-0.0236367769353	blockFiles/set_28/main_unc/rightBlue\GB_RB_6.xlsx
556	main_unc	True	0.0	609	0	11.0	11.0	0.0	1	left	1.0	1.0	1.0	0	-0.054428148828400004	blockFiles/set_28/main_unc/rightBlue\GB_RB_6.xlsx
557	main_unc	True	0.0	609	0	11.0	11.0	1.0	1	right	2.0	0.0	1.0	1	0.0478476833366	blockFiles/set_28/main_unc/rightBlue\GB_RB_6.xlsx
558	main_unc	True	1.0	609	0	11.0	11.0	n/a	0	None	n/a	0.0	n/a	1	0.012120199091700002	blockFiles/set_28/main_unc/rightBlue\GB_RB_6.xlsx
559	main_unc	True	0.0	609	0	11.0	11.0	0.0	1	left	1.0	0.0	1.0	0	-0.019807594046	blockFiles/set_28/main_unc/rightBlue\GB_RB_6.xlsx
560	main_unc	True	0.0	609	0	11.0	11.0	0.0	0	left	1.0	0.0	0.0	1	0.012120199091700002	blockFiles/set_28/main_unc/rightBlue\GB_RB_6.xlsx
