	trial_type	complete	missIndex	participant	id	blockNumber	b_t	d_t	decision1.corr	decision1.keys	a_t	r_t	decision2.corr	s_t	u_t	block_file
0	main_safe	True	0.0	679	0	0.0	0.0	1.0	1	right	1.0	0.0	0.0	1	0.08	blockFiles/set_5/main_safe/rightBlue\GB_RB_1.xlsx
1	main_safe	True	0.0	679	0	0.0	0.0	0.0	1	left	2.0	1.0	0.0	0	-0.08	blockFiles/set_5/main_safe/rightBlue\GB_RB_1.xlsx
2	main_safe	True	0.0	679	0	0.0	0.0	1.0	1	right	2.0	1.0	1.0	1	0.08	blockFiles/set_5/main_safe/rightBlue\GB_RB_1.xlsx
3	main_safe	True	0.0	679	0	0.0	0.0	1.0	1	right	2.0	1.0	1.0	1	0.08	blockFiles/set_5/main_safe/rightBlue\GB_RB_1.xlsx
4	main_safe	True	0.0	679	0	0.0	0.0	0.0	1	left	1.0	1.0	1.0	0	-0.08	blockFiles/set_5/main_safe/rightBlue\GB_RB_1.xlsx
5	main_safe	True	0.0	679	0	0.0	0.0	0.0	1	left	1.0	1.0	1.0	0	-0.08	blockFiles/set_5/main_safe/rightBlue\GB_RB_1.xlsx
6	main_safe	True	0.0	679	0	0.0	0.0	0.0	1	left	1.0	1.0	1.0	0	-0.08	blockFiles/set_5/main_safe/rightBlue\GB_RB_1.xlsx
7	main_safe	True	0.0	679	0	0.0	0.0	0.0	1	left	1.0	0.0	1.0	0	-0.08	blockFiles/set_5/main_safe/rightBlue\GB_RB_1.xlsx
8	main_safe	True	0.0	679	0	0.0	0.0	1.0	1	right	2.0	1.0	1.0	1	0.08	blockFiles/set_5/main_safe/rightBlue\GB_RB_1.xlsx
9	main_safe	True	0.0	679	0	0.0	0.0	0.0	1	left	1.0	1.0	1.0	0	-0.08	blockFiles/set_5/main_safe/rightBlue\GB_RB_1.xlsx
10	main_safe	True	0.0	679	0	0.0	0.0	0.0	1	left	1.0	1.0	1.0	0	-0.08	blockFiles/set_5/main_safe/rightBlue\GB_RB_1.xlsx
11	main_safe	True	0.0	679	0	0.0	0.0	1.0	1	right	2.0	1.0	1.0	1	0.08	blockFiles/set_5/main_safe/rightBlue\GB_RB_1.xlsx
12	main_safe	True	0.0	679	0	0.0	0.0	1.0	1	right	2.0	1.0	1.0	1	0.08	blockFiles/set_5/main_safe/rightBlue\GB_RB_1.xlsx
13	main_safe	True	0.0	679	0	0.0	0.0	1.0	1	right	2.0	1.0	1.0	1	0.08	blockFiles/set_5/main_safe/rightBlue\GB_RB_1.xlsx
14	main_safe	True	0.0	679	0	0.0	0.0	1.0	1	right	2.0	1.0	1.0	1	0.08	blockFiles/set_5/main_safe/rightBlue\GB_RB_1.xlsx
15	main_safe	True	0.0	679	0	0.0	0.0	1.0	1	right	2.0	1.0	1.0	1	0.08	blockFiles/set_5/main_safe/rightBlue\GB_RB_1.xlsx
16	main_safe	True	0.0	679	0	0.0	0.0	1.0	1	right	2.0	1.0	1.0	1	0.08	blockFiles/set_5/main_safe/rightBlue\GB_RB_1.xlsx
17	main_safe	True	0.0	679	0	0.0	0.0	0.0	1	left	1.0	1.0	1.0	0	-0.08	blockFiles/set_5/main_safe/rightBlue\GB_RB_1.xlsx
18	main_safe	True	0.0	679	0	0.0	0.0	0.0	1	left	1.0	0.0	1.0	0	-0.08	blockFiles/set_5/main_safe/rightBlue\GB_RB_1.xlsx
19	main_safe	True	0.0	679	0	0.0	0.0	0.0	1	left	1.0	1.0	1.0	0	-0.08	blockFiles/set_5/main_safe/rightBlue\GB_RB_1.xlsx
20	main_safe	True	0.0	679	0	0.0	0.0	1.0	1	right	2.0	1.0	1.0	1	0.08	blockFiles/set_5/main_safe/rightBlue\GB_RB_1.xlsx
21	main_safe	True	0.0	679	0	0.0	0.0	0.0	1	left	1.0	1.0	1.0	0	-0.08	blockFiles/set_5/main_safe/rightBlue\GB_RB_1.xlsx
22	main_safe	True	0.0	679	0	0.0	0.0	0.0	1	left	1.0	1.0	1.0	0	-0.08	blockFiles/set_5/main_safe/rightBlue\GB_RB_1.xlsx
23	main_safe	True	0.0	679	0	0.0	0.0	1.0	1	right	2.0	0.0	1.0	1	0.08	blockFiles/set_5/main_safe/rightBlue\GB_RB_1.xlsx
24	main_safe	True	0.0	679	0	0.0	0.0	1.0	1	right	2.0	0.0	1.0	1	0.08	blockFiles/set_5/main_safe/rightBlue\GB_RB_1.xlsx
25	main_safe	True	0.0	679	0	1.0	1.0	0.0	1	left	1.0	1.0	1.0	0	-0.08	blockFiles/set_5/main_safe/rightBlue\GB_RB_2.xlsx
26	main_safe	True	0.0	679	0	1.0	1.0	0.0	1	left	1.0	0.0	1.0	0	-0.08	blockFiles/set_5/main_safe/rightBlue\GB_RB_2.xlsx
27	main_safe	True	0.0	679	0	1.0	1.0	1.0	1	right	2.0	1.0	1.0	1	0.08	blockFiles/set_5/main_safe/rightBlue\GB_RB_2.xlsx
28	main_safe	True	0.0	679	0	1.0	1.0	1.0	1	right	2.0	1.0	1.0	1	0.08	blockFiles/set_5/main_safe/rightBlue\GB_RB_2.xlsx
29	main_safe	True	0.0	679	0	1.0	1.0	1.0	1	right	2.0	1.0	1.0	1	0.08	blockFiles/set_5/main_safe/rightBlue\GB_RB_2.xlsx
30	main_safe	True	0.0	679	0	1.0	1.0	1.0	1	right	2.0	1.0	1.0	1	0.08	blockFiles/set_5/main_safe/rightBlue\GB_RB_2.xlsx
31	main_safe	True	0.0	679	0	1.0	1.0	1.0	1	right	2.0	1.0	1.0	1	0.08	blockFiles/set_5/main_safe/rightBlue\GB_RB_2.xlsx
32	main_safe	True	0.0	679	0	1.0	1.0	0.0	1	left	1.0	1.0	1.0	0	-0.08	blockFiles/set_5/main_safe/rightBlue\GB_RB_2.xlsx
33	main_safe	True	0.0	679	0	1.0	1.0	1.0	1	right	2.0	0.0	1.0	1	0.08	blockFiles/set_5/main_safe/rightBlue\GB_RB_2.xlsx
34	main_safe	True	0.0	679	0	1.0	1.0	1.0	1	right	2.0	1.0	1.0	1	0.08	blockFiles/set_5/main_safe/rightBlue\GB_RB_2.xlsx
35	main_safe	True	0.0	679	0	1.0	1.0	1.0	1	right	2.0	1.0	1.0	1	0.08	blockFiles/set_5/main_safe/rightBlue\GB_RB_2.xlsx
36	main_safe	True	0.0	679	0	1.0	1.0	0.0	1	left	1.0	1.0	1.0	0	-0.08	blockFiles/set_5/main_safe/rightBlue\GB_RB_2.xlsx
37	main_safe	True	1.0	679	0	1.0	1.0	0.0	1	left	n/a	0.0	n/a	0	-0.08	blockFiles/set_5/main_safe/rightBlue\GB_RB_2.xlsx
38	main_safe	True	0.0	679	0	1.0	1.0	0.0	1	left	1.0	1.0	1.0	0	-0.08	blockFiles/set_5/main_safe/rightBlue\GB_RB_2.xlsx
39	main_safe	True	0.0	679	0	1.0	1.0	0.0	1	left	1.0	1.0	1.0	0	-0.08	blockFiles/set_5/main_safe/rightBlue\GB_RB_2.xlsx
40	main_safe	True	0.0	679	0	1.0	1.0	1.0	1	right	2.0	0.0	1.0	1	0.08	blockFiles/set_5/main_safe/rightBlue\GB_RB_2.xlsx
41	main_safe	True	0.0	679	0	1.0	1.0	0.0	1	left	1.0	1.0	1.0	0	-0.08	blockFiles/set_5/main_safe/rightBlue\GB_RB_2.xlsx
42	main_safe	True	0.0	679	0	1.0	1.0	1.0	1	right	1.0	0.0	0.0	1	0.08	blockFiles/set_5/main_safe/rightBlue\GB_RB_2.xlsx
43	main_safe	True	0.0	679	0	1.0	1.0	1.0	1	right	2.0	1.0	1.0	1	0.08	blockFiles/set_5/main_safe/rightBlue\GB_RB_2.xlsx
44	main_safe	True	0.0	679	0	1.0	1.0	0.0	1	left	1.0	1.0	1.0	0	-0.08	blockFiles/set_5/main_safe/rightBlue\GB_RB_2.xlsx
45	main_safe	True	0.0	679	0	1.0	1.0	0.0	1	left	1.0	0.0	1.0	0	-0.08	blockFiles/set_5/main_safe/rightBlue\GB_RB_2.xlsx
46	main_safe	True	0.0	679	0	1.0	1.0	0.0	1	left	1.0	1.0	1.0	0	-0.08	blockFiles/set_5/main_safe/rightBlue\GB_RB_2.xlsx
47	main_safe	True	0.0	679	0	1.0	1.0	1.0	1	right	2.0	1.0	1.0	1	0.08	blockFiles/set_5/main_safe/rightBlue\GB_RB_2.xlsx
48	main_safe	True	0.0	679	0	1.0	1.0	0.0	1	left	2.0	0.0	0.0	0	-0.08	blockFiles/set_5/main_safe/rightBlue\GB_RB_2.xlsx
49	main_safe	True	0.0	679	0	1.0	1.0	1.0	1	right	2.0	1.0	1.0	1	0.08	blockFiles/set_5/main_safe/rightBlue\GB_RB_2.xlsx
50	main_safe	True	0.0	679	0	1.0	1.0	0.0	1	left	1.0	1.0	1.0	0	-0.08	blockFiles/set_5/main_safe/rightBlue\GB_RB_2.xlsx
51	main_safe	True	0.0	679	0	2.0	2.0	0.0	1	left	2.0	0.0	0.0	0	-0.08	blockFiles/set_5/main_safe/rightBlue\GB_RB_3.xlsx
52	main_safe	True	0.0	679	0	2.0	2.0	1.0	1	right	2.0	1.0	1.0	1	0.08	blockFiles/set_5/main_safe/rightBlue\GB_RB_3.xlsx
53	main_safe	True	0.0	679	0	2.0	2.0	0.0	1	left	1.0	0.0	1.0	0	-0.08	blockFiles/set_5/main_safe/rightBlue\GB_RB_3.xlsx
54	main_safe	True	0.0	679	0	2.0	2.0	1.0	1	right	2.0	1.0	1.0	1	0.08	blockFiles/set_5/main_safe/rightBlue\GB_RB_3.xlsx
55	main_safe	True	0.0	679	0	2.0	2.0	0.0	1	left	1.0	0.0	1.0	0	-0.08	blockFiles/set_5/main_safe/rightBlue\GB_RB_3.xlsx
56	main_safe	True	0.0	679	0	2.0	2.0	0.0	1	left	1.0	1.0	1.0	0	-0.08	blockFiles/set_5/main_safe/rightBlue\GB_RB_3.xlsx
57	main_safe	True	0.0	679	0	2.0	2.0	1.0	1	right	2.0	1.0	1.0	1	0.08	blockFiles/set_5/main_safe/rightBlue\GB_RB_3.xlsx
58	main_safe	True	0.0	679	0	2.0	2.0	0.0	1	left	1.0	1.0	1.0	0	-0.08	blockFiles/set_5/main_safe/rightBlue\GB_RB_3.xlsx
59	main_safe	True	0.0	679	0	2.0	2.0	1.0	1	right	2.0	1.0	1.0	1	0.08	blockFiles/set_5/main_safe/rightBlue\GB_RB_3.xlsx
60	main_safe	True	0.0	679	0	2.0	2.0	1.0	1	right	2.0	0.0	1.0	1	0.08	blockFiles/set_5/main_safe/rightBlue\GB_RB_3.xlsx
61	main_safe	True	0.0	679	0	2.0	2.0	1.0	1	right	2.0	0.0	1.0	1	0.08	blockFiles/set_5/main_safe/rightBlue\GB_RB_3.xlsx
62	main_safe	True	0.0	679	0	2.0	2.0	1.0	1	right	2.0	1.0	1.0	1	0.08	blockFiles/set_5/main_safe/rightBlue\GB_RB_3.xlsx
63	main_safe	True	0.0	679	0	2.0	2.0	0.0	1	left	1.0	1.0	1.0	0	-0.08	blockFiles/set_5/main_safe/rightBlue\GB_RB_3.xlsx
64	main_safe	True	0.0	679	0	2.0	2.0	1.0	1	right	2.0	1.0	1.0	1	0.08	blockFiles/set_5/main_safe/rightBlue\GB_RB_3.xlsx
65	main_safe	True	0.0	679	0	2.0	2.0	1.0	1	right	2.0	0.0	1.0	1	0.08	blockFiles/set_5/main_safe/rightBlue\GB_RB_3.xlsx
66	main_safe	True	0.0	679	0	2.0	2.0	0.0	1	left	1.0	1.0	1.0	0	-0.08	blockFiles/set_5/main_safe/rightBlue\GB_RB_3.xlsx
67	main_safe	True	0.0	679	0	2.0	2.0	0.0	1	left	1.0	1.0	1.0	0	-0.08	blockFiles/set_5/main_safe/rightBlue\GB_RB_3.xlsx
68	main_safe	True	0.0	679	0	2.0	2.0	1.0	1	right	2.0	1.0	1.0	1	0.08	blockFiles/set_5/main_safe/rightBlue\GB_RB_3.xlsx
69	main_safe	True	0.0	679	0	2.0	2.0	1.0	1	right	2.0	1.0	1.0	1	0.08	blockFiles/set_5/main_safe/rightBlue\GB_RB_3.xlsx
70	main_safe	True	0.0	679	0	2.0	2.0	0.0	1	left	1.0	1.0	1.0	0	-0.08	blockFiles/set_5/main_safe/rightBlue\GB_RB_3.xlsx
71	main_safe	True	0.0	679	0	2.0	2.0	1.0	1	right	2.0	1.0	1.0	1	0.08	blockFiles/set_5/main_safe/rightBlue\GB_RB_3.xlsx
72	main_safe	True	0.0	679	0	2.0	2.0	0.0	1	left	1.0	1.0	1.0	0	-0.08	blockFiles/set_5/main_safe/rightBlue\GB_RB_3.xlsx
73	main_safe	True	0.0	679	0	2.0	2.0	0.0	1	left	1.0	1.0	1.0	0	-0.08	blockFiles/set_5/main_safe/rightBlue\GB_RB_3.xlsx
74	main_safe	True	0.0	679	0	2.0	2.0	1.0	1	right	2.0	1.0	1.0	1	0.08	blockFiles/set_5/main_safe/rightBlue\GB_RB_3.xlsx
75	main_safe	True	0.0	679	0	2.0	2.0	0.0	1	left	1.0	0.0	1.0	0	-0.08	blockFiles/set_5/main_safe/rightBlue\GB_RB_3.xlsx
76	main_safe	True	0.0	679	0	3.0	3.0	1.0	1	right	1.0	1.0	1.0	1	0.08	blockFiles/set_5/main_safe/leftBlue\GB_LB_1.xlsx
77	main_safe	True	0.0	679	0	3.0	3.0	1.0	1	right	1.0	1.0	1.0	1	0.08	blockFiles/set_5/main_safe/leftBlue\GB_LB_1.xlsx
78	main_safe	True	0.0	679	0	3.0	3.0	0.0	1	left	2.0	1.0	1.0	0	-0.08	blockFiles/set_5/main_safe/leftBlue\GB_LB_1.xlsx
79	main_safe	True	0.0	679	0	3.0	3.0	1.0	1	right	1.0	1.0	1.0	1	0.08	blockFiles/set_5/main_safe/leftBlue\GB_LB_1.xlsx
80	main_safe	True	0.0	679	0	3.0	3.0	1.0	1	right	1.0	1.0	1.0	1	0.08	blockFiles/set_5/main_safe/leftBlue\GB_LB_1.xlsx
81	main_safe	True	0.0	679	0	3.0	3.0	1.0	1	right	1.0	0.0	1.0	1	0.08	blockFiles/set_5/main_safe/leftBlue\GB_LB_1.xlsx
82	main_safe	True	0.0	679	0	3.0	3.0	1.0	1	right	1.0	0.0	1.0	1	0.08	blockFiles/set_5/main_safe/leftBlue\GB_LB_1.xlsx
83	main_safe	True	0.0	679	0	3.0	3.0	0.0	1	left	2.0	1.0	1.0	0	-0.08	blockFiles/set_5/main_safe/leftBlue\GB_LB_1.xlsx
84	main_safe	True	0.0	679	0	3.0	3.0	1.0	1	right	1.0	1.0	1.0	1	0.08	blockFiles/set_5/main_safe/leftBlue\GB_LB_1.xlsx
85	main_safe	True	0.0	679	0	3.0	3.0	1.0	1	right	1.0	1.0	1.0	1	0.08	blockFiles/set_5/main_safe/leftBlue\GB_LB_1.xlsx
86	main_safe	True	0.0	679	0	3.0	3.0	0.0	1	left	2.0	0.0	1.0	0	-0.08	blockFiles/set_5/main_safe/leftBlue\GB_LB_1.xlsx
87	main_safe	True	0.0	679	0	3.0	3.0	0.0	1	left	2.0	1.0	1.0	0	-0.08	blockFiles/set_5/main_safe/leftBlue\GB_LB_1.xlsx
88	main_safe	True	0.0	679	0	3.0	3.0	1.0	1	right	1.0	1.0	1.0	1	0.08	blockFiles/set_5/main_safe/leftBlue\GB_LB_1.xlsx
89	main_safe	True	0.0	679	0	3.0	3.0	0.0	1	left	2.0	1.0	1.0	0	-0.08	blockFiles/set_5/main_safe/leftBlue\GB_LB_1.xlsx
90	main_safe	True	0.0	679	0	3.0	3.0	0.0	1	left	2.0	1.0	1.0	0	-0.08	blockFiles/set_5/main_safe/leftBlue\GB_LB_1.xlsx
91	main_safe	True	0.0	679	0	3.0	3.0	1.0	1	right	1.0	1.0	1.0	1	0.08	blockFiles/set_5/main_safe/leftBlue\GB_LB_1.xlsx
92	main_safe	True	0.0	679	0	3.0	3.0	0.0	1	left	2.0	1.0	1.0	0	-0.08	blockFiles/set_5/main_safe/leftBlue\GB_LB_1.xlsx
93	main_safe	True	0.0	679	0	3.0	3.0	0.0	1	left	2.0	0.0	1.0	0	-0.08	blockFiles/set_5/main_safe/leftBlue\GB_LB_1.xlsx
94	main_safe	True	0.0	679	0	3.0	3.0	0.0	1	left	2.0	1.0	1.0	0	-0.08	blockFiles/set_5/main_safe/leftBlue\GB_LB_1.xlsx
95	main_safe	True	0.0	679	0	3.0	3.0	0.0	1	left	2.0	1.0	1.0	0	-0.08	blockFiles/set_5/main_safe/leftBlue\GB_LB_1.xlsx
96	main_safe	True	0.0	679	0	3.0	3.0	1.0	1	right	1.0	1.0	1.0	1	0.08	blockFiles/set_5/main_safe/leftBlue\GB_LB_1.xlsx
97	main_safe	True	0.0	679	0	3.0	3.0	0.0	1	left	2.0	1.0	1.0	0	-0.08	blockFiles/set_5/main_safe/leftBlue\GB_LB_1.xlsx
98	main_safe	True	0.0	679	0	3.0	3.0	1.0	1	right	1.0	1.0	1.0	1	0.08	blockFiles/set_5/main_safe/leftBlue\GB_LB_1.xlsx
99	main_safe	True	0.0	679	0	3.0	3.0	0.0	1	left	2.0	1.0	1.0	0	-0.08	blockFiles/set_5/main_safe/leftBlue\GB_LB_1.xlsx
100	main_safe	True	0.0	679	0	3.0	3.0	0.0	1	left	2.0	0.0	1.0	0	-0.08	blockFiles/set_5/main_safe/leftBlue\GB_LB_1.xlsx
101	main_safe	True	0.0	679	0	4.0	4.0	0.0	1	left	2.0	1.0	1.0	0	-0.08	blockFiles/set_5/main_safe/leftBlue\GB_LB_2.xlsx
102	main_safe	True	1.0	679	0	4.0	4.0	n/a	0	None	n/a	0.0	n/a	0	-0.08	blockFiles/set_5/main_safe/leftBlue\GB_LB_2.xlsx
103	main_safe	True	0.0	679	0	4.0	4.0	0.0	1	left	2.0	1.0	1.0	0	-0.08	blockFiles/set_5/main_safe/leftBlue\GB_LB_2.xlsx
104	main_safe	True	0.0	679	0	4.0	4.0	1.0	1	right	1.0	1.0	1.0	1	0.08	blockFiles/set_5/main_safe/leftBlue\GB_LB_2.xlsx
105	main_safe	True	0.0	679	0	4.0	4.0	1.0	1	right	1.0	1.0	1.0	1	0.08	blockFiles/set_5/main_safe/leftBlue\GB_LB_2.xlsx
106	main_safe	True	0.0	679	0	4.0	4.0	1.0	1	right	1.0	1.0	1.0	1	0.08	blockFiles/set_5/main_safe/leftBlue\GB_LB_2.xlsx
107	main_safe	True	0.0	679	0	4.0	4.0	1.0	1	right	1.0	1.0	1.0	1	0.08	blockFiles/set_5/main_safe/leftBlue\GB_LB_2.xlsx
108	main_safe	True	0.0	679	0	4.0	4.0	0.0	1	left	2.0	1.0	1.0	0	-0.08	blockFiles/set_5/main_safe/leftBlue\GB_LB_2.xlsx
109	main_safe	True	0.0	679	0	4.0	4.0	0.0	1	left	2.0	0.0	1.0	0	-0.08	blockFiles/set_5/main_safe/leftBlue\GB_LB_2.xlsx
110	main_safe	True	0.0	679	0	4.0	4.0	0.0	1	left	2.0	1.0	1.0	0	-0.08	blockFiles/set_5/main_safe/leftBlue\GB_LB_2.xlsx
111	main_safe	True	0.0	679	0	4.0	4.0	1.0	1	right	1.0	1.0	1.0	1	0.08	blockFiles/set_5/main_safe/leftBlue\GB_LB_2.xlsx
112	main_safe	True	0.0	679	0	4.0	4.0	1.0	1	right	1.0	1.0	1.0	1	0.08	blockFiles/set_5/main_safe/leftBlue\GB_LB_2.xlsx
113	main_safe	True	0.0	679	0	4.0	4.0	1.0	1	right	1.0	0.0	1.0	1	0.08	blockFiles/set_5/main_safe/leftBlue\GB_LB_2.xlsx
114	main_safe	True	0.0	679	0	4.0	4.0	1.0	1	right	1.0	1.0	1.0	1	0.08	blockFiles/set_5/main_safe/leftBlue\GB_LB_2.xlsx
115	main_safe	True	0.0	679	0	4.0	4.0	0.0	1	left	2.0	1.0	1.0	0	-0.08	blockFiles/set_5/main_safe/leftBlue\GB_LB_2.xlsx
116	main_safe	True	0.0	679	0	4.0	4.0	0.0	1	left	2.0	1.0	1.0	0	-0.08	blockFiles/set_5/main_safe/leftBlue\GB_LB_2.xlsx
117	main_safe	True	0.0	679	0	4.0	4.0	1.0	1	right	1.0	1.0	1.0	1	0.08	blockFiles/set_5/main_safe/leftBlue\GB_LB_2.xlsx
118	main_safe	True	0.0	679	0	4.0	4.0	1.0	1	right	1.0	1.0	1.0	1	0.08	blockFiles/set_5/main_safe/leftBlue\GB_LB_2.xlsx
119	main_safe	True	0.0	679	0	4.0	4.0	1.0	1	right	1.0	0.0	1.0	1	0.08	blockFiles/set_5/main_safe/leftBlue\GB_LB_2.xlsx
120	main_safe	True	0.0	679	0	4.0	4.0	0.0	1	left	2.0	0.0	1.0	0	-0.08	blockFiles/set_5/main_safe/leftBlue\GB_LB_2.xlsx
121	main_safe	True	0.0	679	0	4.0	4.0	1.0	1	right	1.0	1.0	1.0	1	0.08	blockFiles/set_5/main_safe/leftBlue\GB_LB_2.xlsx
122	main_safe	True	0.0	679	0	4.0	4.0	0.0	1	left	1.0	0.0	0.0	0	-0.08	blockFiles/set_5/main_safe/leftBlue\GB_LB_2.xlsx
123	main_safe	True	0.0	679	0	4.0	4.0	1.0	1	right	1.0	1.0	1.0	1	0.08	blockFiles/set_5/main_safe/leftBlue\GB_LB_2.xlsx
124	main_safe	True	0.0	679	0	4.0	4.0	0.0	1	left	2.0	0.0	1.0	0	-0.08	blockFiles/set_5/main_safe/leftBlue\GB_LB_2.xlsx
125	main_safe	True	0.0	679	0	4.0	4.0	0.0	1	left	2.0	1.0	1.0	0	-0.08	blockFiles/set_5/main_safe/leftBlue\GB_LB_2.xlsx
126	main_safe	True	0.0	679	0	4.0	4.0	n/a	0	None	n/a	0.0	n/a	0	-0.08	blockFiles/set_5/main_safe/leftBlue\GB_LB_2.xlsx
127	main_safe	True	0.0	679	0	4.0	4.0	0.0	1	left	2.0	0.0	1.0	0	-0.08	blockFiles/set_5/main_safe/leftBlue\GB_LB_2.xlsx
128	main_safe	True	0.0	679	0	5.0	5.0	1.0	1	right	2.0	0.0	0.0	1	0.08	blockFiles/set_5/main_safe/leftBlue\GB_LB_3.xlsx
129	main_safe	True	0.0	679	0	5.0	5.0	1.0	0	right	1.0	0.0	0.0	0	-0.08	blockFiles/set_5/main_safe/leftBlue\GB_LB_3.xlsx
130	main_safe	True	0.0	679	0	5.0	5.0	1.0	1	right	1.0	0.0	1.0	1	0.08	blockFiles/set_5/main_safe/leftBlue\GB_LB_3.xlsx
131	main_safe	True	0.0	679	0	5.0	5.0	0.0	1	left	2.0	1.0	1.0	0	-0.08	blockFiles/set_5/main_safe/leftBlue\GB_LB_3.xlsx
132	main_safe	True	0.0	679	0	5.0	5.0	0.0	1	left	2.0	0.0	1.0	0	-0.08	blockFiles/set_5/main_safe/leftBlue\GB_LB_3.xlsx
133	main_safe	True	0.0	679	0	5.0	5.0	1.0	1	right	1.0	1.0	1.0	1	0.08	blockFiles/set_5/main_safe/leftBlue\GB_LB_3.xlsx
134	main_safe	True	0.0	679	0	5.0	5.0	0.0	1	left	2.0	0.0	1.0	0	-0.08	blockFiles/set_5/main_safe/leftBlue\GB_LB_3.xlsx
135	main_safe	True	0.0	679	0	5.0	5.0	0.0	1	left	2.0	1.0	1.0	0	-0.08	blockFiles/set_5/main_safe/leftBlue\GB_LB_3.xlsx
136	main_safe	True	0.0	679	0	5.0	5.0	0.0	1	left	2.0	1.0	1.0	0	-0.08	blockFiles/set_5/main_safe/leftBlue\GB_LB_3.xlsx
137	main_safe	True	0.0	679	0	5.0	5.0	1.0	1	right	1.0	1.0	1.0	1	0.08	blockFiles/set_5/main_safe/leftBlue\GB_LB_3.xlsx
138	main_safe	True	0.0	679	0	5.0	5.0	0.0	1	left	2.0	0.0	1.0	0	-0.08	blockFiles/set_5/main_safe/leftBlue\GB_LB_3.xlsx
139	main_safe	True	0.0	679	0	5.0	5.0	1.0	1	right	1.0	0.0	1.0	1	0.08	blockFiles/set_5/main_safe/leftBlue\GB_LB_3.xlsx
140	main_safe	True	0.0	679	0	5.0	5.0	1.0	1	right	1.0	1.0	1.0	1	0.08	blockFiles/set_5/main_safe/leftBlue\GB_LB_3.xlsx
141	main_safe	True	0.0	679	0	5.0	5.0	1.0	1	right	1.0	1.0	1.0	1	0.08	blockFiles/set_5/main_safe/leftBlue\GB_LB_3.xlsx
142	main_safe	True	0.0	679	0	5.0	5.0	1.0	1	right	1.0	1.0	1.0	1	0.08	blockFiles/set_5/main_safe/leftBlue\GB_LB_3.xlsx
143	main_safe	True	0.0	679	0	5.0	5.0	1.0	1	right	1.0	1.0	1.0	1	0.08	blockFiles/set_5/main_safe/leftBlue\GB_LB_3.xlsx
144	main_safe	True	0.0	679	0	5.0	5.0	1.0	1	right	1.0	0.0	1.0	1	0.08	blockFiles/set_5/main_safe/leftBlue\GB_LB_3.xlsx
145	main_safe	True	0.0	679	0	5.0	5.0	0.0	1	left	2.0	1.0	1.0	0	-0.08	blockFiles/set_5/main_safe/leftBlue\GB_LB_3.xlsx
146	main_safe	True	0.0	679	0	5.0	5.0	0.0	1	left	2.0	1.0	1.0	0	-0.08	blockFiles/set_5/main_safe/leftBlue\GB_LB_3.xlsx
147	main_safe	True	0.0	679	0	5.0	5.0	1.0	1	right	1.0	1.0	1.0	1	0.08	blockFiles/set_5/main_safe/leftBlue\GB_LB_3.xlsx
148	main_safe	True	0.0	679	0	5.0	5.0	0.0	1	left	2.0	1.0	1.0	0	-0.08	blockFiles/set_5/main_safe/leftBlue\GB_LB_3.xlsx
149	main_safe	True	0.0	679	0	5.0	5.0	1.0	1	right	1.0	1.0	1.0	1	0.08	blockFiles/set_5/main_safe/leftBlue\GB_LB_3.xlsx
150	main_safe	True	0.0	679	0	5.0	5.0	1.0	1	right	1.0	1.0	1.0	1	0.08	blockFiles/set_5/main_safe/leftBlue\GB_LB_3.xlsx
151	main_safe	True	0.0	679	0	5.0	5.0	0.0	1	left	2.0	1.0	1.0	0	-0.08	blockFiles/set_5/main_safe/leftBlue\GB_LB_3.xlsx
152	main_safe	True	0.0	679	0	5.0	5.0	0.0	1	left	2.0	1.0	1.0	0	-0.08	blockFiles/set_5/main_safe/leftBlue\GB_LB_3.xlsx
153	patches	True	n/a	679	0	n/a	n/a	1.0	0	right	n/a	n/a	n/a	0	-0.005856279339640001	blockFiles/set_5/main_PD/GB_runPatches1.xlsx
154	patches	True	n/a	679	0	n/a	n/a	0.0	1	left	n/a	n/a	n/a	0	-0.0272906368412	blockFiles/set_5/main_PD/GB_runPatches1.xlsx
155	patches	True	n/a	679	0	n/a	n/a	1.0	1	right	n/a	n/a	n/a	1	0.06078269295390001	blockFiles/set_5/main_PD/GB_runPatches1.xlsx
156	patches	True	n/a	679	0	n/a	n/a	1.0	1	right	n/a	n/a	n/a	1	0.0685828752071	blockFiles/set_5/main_PD/GB_runPatches1.xlsx
157	patches	True	n/a	679	0	n/a	n/a	1.0	1	right	n/a	n/a	n/a	1	0.017967621888999998	blockFiles/set_5/main_PD/GB_runPatches1.xlsx
158	patches	True	n/a	679	0	n/a	n/a	1.0	1	right	n/a	n/a	n/a	1	0.05793697120619999	blockFiles/set_5/main_PD/GB_runPatches1.xlsx
159	patches	True	n/a	679	0	n/a	n/a	0.0	1	left	n/a	n/a	n/a	0	-0.015605102963700001	blockFiles/set_5/main_PD/GB_runPatches1.xlsx
160	patches	True	n/a	679	0	n/a	n/a	1.0	1	right	n/a	n/a	n/a	1	0.060701109264000006	blockFiles/set_5/main_PD/GB_runPatches1.xlsx
161	patches	True	n/a	679	0	n/a	n/a	0.0	1	left	n/a	n/a	n/a	0	-0.0410275248997	blockFiles/set_5/main_PD/GB_runPatches1.xlsx
162	patches	True	n/a	679	0	n/a	n/a	0.0	1	left	n/a	n/a	n/a	0	-0.03626106116919999	blockFiles/set_5/main_PD/GB_runPatches1.xlsx
163	patches	True	n/a	679	0	n/a	n/a	1.0	1	right	n/a	n/a	n/a	1	0.0459075116925	blockFiles/set_5/main_PD/GB_runPatches1.xlsx
164	patches	True	n/a	679	0	n/a	n/a	0.0	1	left	n/a	n/a	n/a	0	-0.0492730260827	blockFiles/set_5/main_PD/GB_runPatches1.xlsx
165	patches	True	n/a	679	0	n/a	n/a	0.0	0	left	n/a	n/a	n/a	1	0.0090170188807	blockFiles/set_5/main_PD/GB_runPatches1.xlsx
166	patches	True	n/a	679	0	n/a	n/a	0.0	1	left	n/a	n/a	n/a	0	-0.036400788445	blockFiles/set_5/main_PD/GB_runPatches1.xlsx
167	patches	True	n/a	679	0	n/a	n/a	1.0	1	right	n/a	n/a	n/a	1	0.032452928423900004	blockFiles/set_5/main_PD/GB_runPatches1.xlsx
168	patches	True	n/a	679	0	n/a	n/a	0.0	1	left	n/a	n/a	n/a	0	-0.0730662635155	blockFiles/set_5/main_PD/GB_runPatches1.xlsx
169	patches	True	n/a	679	0	n/a	n/a	1.0	1	right	n/a	n/a	n/a	1	0.036179862842000005	blockFiles/set_5/main_PD/GB_runPatches1.xlsx
170	patches	True	n/a	679	0	n/a	n/a	0.0	1	left	n/a	n/a	n/a	0	-0.0297565853782	blockFiles/set_5/main_PD/GB_runPatches1.xlsx
171	patches	True	n/a	679	0	n/a	n/a	1.0	1	right	n/a	n/a	n/a	1	0.0384859005921	blockFiles/set_5/main_PD/GB_runPatches1.xlsx
172	patches	True	n/a	679	0	n/a	n/a	0.0	1	left	n/a	n/a	n/a	0	-0.05175206750630001	blockFiles/set_5/main_PD/GB_runPatches1.xlsx
173	patches	True	n/a	679	0	n/a	n/a	0.0	0	left	n/a	n/a	n/a	1	0.00665336387232	blockFiles/set_5/main_PD/GB_runPatches1.xlsx
174	patches	True	n/a	679	0	n/a	n/a	1.0	1	right	n/a	n/a	n/a	1	0.07880675796419999	blockFiles/set_5/main_PD/GB_runPatches1.xlsx
175	patches	True	n/a	679	0	n/a	n/a	1.0	1	right	n/a	n/a	n/a	1	0.0233698148467	blockFiles/set_5/main_PD/GB_runPatches1.xlsx
176	patches	True	n/a	679	0	n/a	n/a	0.0	1	left	n/a	n/a	n/a	0	-0.0570089038275	blockFiles/set_5/main_PD/GB_runPatches1.xlsx
177	patches	True	n/a	679	0	n/a	n/a	0.0	0	left	n/a	n/a	n/a	1	0.0204972090572	blockFiles/set_5/main_PD/GB_runPatches1.xlsx
178	patches	True	n/a	679	0	n/a	n/a	1.0	1	right	n/a	n/a	n/a	1	0.0354100361839	blockFiles/set_5/main_PD/GB_runPatches1.xlsx
179	patches	True	n/a	679	0	n/a	n/a	0.0	1	left	n/a	n/a	n/a	0	-0.0646726847626	blockFiles/set_5/main_PD/GB_runPatches1.xlsx
180	patches	True	n/a	679	0	n/a	n/a	0.0	0	left	n/a	n/a	n/a	1	0.00840756174177	blockFiles/set_5/main_PD/GB_runPatches1.xlsx
181	patches	True	n/a	679	0	n/a	n/a	0.0	1	left	n/a	n/a	n/a	0	-0.0235867835209	blockFiles/set_5/main_PD/GB_runPatches1.xlsx
182	patches	True	n/a	679	0	n/a	n/a	0.0	1	left	n/a	n/a	n/a	0	-0.0203753150813	blockFiles/set_5/main_PD/GB_runPatches1.xlsx
183	patches	True	n/a	679	0	n/a	n/a	0.0	1	left	n/a	n/a	n/a	0	-0.07112242035569999	blockFiles/set_5/main_PD/GB_runPatches1.xlsx
184	patches	True	n/a	679	0	n/a	n/a	1.0	1	right	n/a	n/a	n/a	1	0.029967963341599995	blockFiles/set_5/main_PD/GB_runPatches1.xlsx
185	patches	True	n/a	679	0	n/a	n/a	0.0	0	left	n/a	n/a	n/a	1	0.0220352016017	blockFiles/set_5/main_PD/GB_runPatches1.xlsx
186	patches	True	n/a	679	0	n/a	n/a	1.0	1	right	n/a	n/a	n/a	1	0.049960411395899997	blockFiles/set_5/main_PD/GB_runPatches1.xlsx
187	patches	True	n/a	679	0	n/a	n/a	0.0	1	left	n/a	n/a	n/a	0	-0.0320206060447	blockFiles/set_5/main_PD/GB_runPatches1.xlsx
188	patches	True	n/a	679	0	n/a	n/a	1.0	1	right	n/a	n/a	n/a	1	0.06121577825400001	blockFiles/set_5/main_PD/GB_runPatches1.xlsx
189	patches	True	n/a	679	0	n/a	n/a	1.0	1	right	n/a	n/a	n/a	1	0.026402874384099998	blockFiles/set_5/main_PD/GB_runPatches1.xlsx
190	patches	True	n/a	679	0	n/a	n/a	1.0	1	right	n/a	n/a	n/a	1	0.0420153073221	blockFiles/set_5/main_PD/GB_runPatches1.xlsx
191	patches	True	n/a	679	0	n/a	n/a	0.0	1	left	n/a	n/a	n/a	0	-0.023608723264200004	blockFiles/set_5/main_PD/GB_runPatches1.xlsx
192	patches	True	n/a	679	0	n/a	n/a	1.0	1	right	n/a	n/a	n/a	1	0.0602570107952	blockFiles/set_5/main_PD/GB_runPatches1.xlsx
193	patches	True	n/a	679	0	n/a	n/a	0.0	1	left	n/a	n/a	n/a	0	-0.0626444903202	blockFiles/set_5/main_PD/GB_runPatches1.xlsx
194	patches	True	n/a	679	0	n/a	n/a	0.0	1	left	n/a	n/a	n/a	0	-0.028538651038	blockFiles/set_5/main_PD/GB_runPatches1.xlsx
195	patches	True	n/a	679	0	n/a	n/a	0.0	1	left	n/a	n/a	n/a	0	-0.055731620006300005	blockFiles/set_5/main_PD/GB_runPatches1.xlsx
196	patches	True	n/a	679	0	n/a	n/a	0.0	0	left	n/a	n/a	n/a	1	0.000130147058517	blockFiles/set_5/main_PD/GB_runPatches1.xlsx
197	patches	True	n/a	679	0	n/a	n/a	0.0	1	left	n/a	n/a	n/a	0	-0.0245803020522	blockFiles/set_5/main_PD/GB_runPatches1.xlsx
198	patches	True	n/a	679	0	n/a	n/a	1.0	1	right	n/a	n/a	n/a	1	0.0566991310194	blockFiles/set_5/main_PD/GB_runPatches1.xlsx
199	patches	True	n/a	679	0	n/a	n/a	0.0	0	left	n/a	n/a	n/a	1	0.0145452748798	blockFiles/set_5/main_PD/GB_runPatches1.xlsx
200	patches	True	n/a	679	0	n/a	n/a	1.0	1	right	n/a	n/a	n/a	1	0.07151766324419999	blockFiles/set_5/main_PD/GB_runPatches1.xlsx
201	patches	True	n/a	679	0	n/a	n/a	0.0	0	left	n/a	n/a	n/a	1	0.007577557377520001	blockFiles/set_5/main_PD/GB_runPatches1.xlsx
202	patches	True	n/a	679	0	n/a	n/a	0.0	1	left	n/a	n/a	n/a	0	-0.0286030985788	blockFiles/set_5/main_PD/GB_runPatches1.xlsx
203	patches	True	n/a	679	0	n/a	n/a	1.0	1	right	n/a	n/a	n/a	1	0.07045538017530001	blockFiles/set_5/main_PD/GB_runPatches1.xlsx
204	patches	True	n/a	679	0	n/a	n/a	0.0	1	left	n/a	n/a	n/a	0	-0.006671285536140001	blockFiles/set_5/main_PD/GB_runPatches1.xlsx
205	patches	True	n/a	679	0	n/a	n/a	0.0	1	left	n/a	n/a	n/a	0	-0.0223320302553	blockFiles/set_5/main_PD/GB_runPatches1.xlsx
206	patches	True	n/a	679	0	n/a	n/a	0.0	1	left	n/a	n/a	n/a	0	-0.044611767325599995	blockFiles/set_5/main_PD/GB_runPatches1.xlsx
207	patches	True	n/a	679	0	n/a	n/a	1.0	1	right	n/a	n/a	n/a	1	0.022908437419699997	blockFiles/set_5/main_PD/GB_runPatches1.xlsx
208	patches	True	n/a	679	0	n/a	n/a	0.0	1	left	n/a	n/a	n/a	0	-0.059604543857300005	blockFiles/set_5/main_PD/GB_runPatches1.xlsx
209	patches	True	n/a	679	0	n/a	n/a	0.0	1	left	n/a	n/a	n/a	0	-0.0314506993257	blockFiles/set_5/main_PD/GB_runPatches1.xlsx
210	patches	True	n/a	679	0	n/a	n/a	1.0	1	right	n/a	n/a	n/a	1	0.063079625275	blockFiles/set_5/main_PD/GB_runPatches1.xlsx
211	patches	True	n/a	679	0	n/a	n/a	0.0	1	left	n/a	n/a	n/a	0	-0.041326227244	blockFiles/set_5/main_PD/GB_runPatches1.xlsx
212	patches	True	n/a	679	0	n/a	n/a	0.0	1	left	n/a	n/a	n/a	0	-0.0141756839119	blockFiles/set_5/main_PD/GB_runPatches1.xlsx
213	patches	True	n/a	679	0	n/a	n/a	1.0	1	right	n/a	n/a	n/a	1	0.0733615280129	blockFiles/set_5/main_PD/GB_runPatches1.xlsx
214	patches	True	n/a	679	0	n/a	n/a	0.0	1	left	n/a	n/a	n/a	0	-0.041650031190400005	blockFiles/set_5/main_PD/GB_runPatches1.xlsx
215	patches	True	n/a	679	0	n/a	n/a	0.0	1	left	n/a	n/a	n/a	0	-0.0193331171572	blockFiles/set_5/main_PD/GB_runPatches1.xlsx
216	patches	True	n/a	679	0	n/a	n/a	n/a	0	None	n/a	n/a	n/a	1	0.0152641978115	blockFiles/set_5/main_PD/GB_runPatches1.xlsx
217	patches	True	n/a	679	0	n/a	n/a	1.0	0	right	n/a	n/a	n/a	0	-0.0178639167547	blockFiles/set_5/main_PD/GB_runPatches1.xlsx
218	patches	True	n/a	679	0	n/a	n/a	1.0	1	right	n/a	n/a	n/a	1	0.04946208866309999	blockFiles/set_5/main_PD/GB_runPatches1.xlsx
219	patches	True	n/a	679	0	n/a	n/a	1.0	1	right	n/a	n/a	n/a	1	0.074383473359	blockFiles/set_5/main_PD/GB_runPatches1.xlsx
220	patches	True	n/a	679	0	n/a	n/a	0.0	0	left	n/a	n/a	n/a	1	0.00485235696658	blockFiles/set_5/main_PD/GB_runPatches1.xlsx
221	patches	True	n/a	679	0	n/a	n/a	1.0	1	right	n/a	n/a	n/a	1	0.0420927715488	blockFiles/set_5/main_PD/GB_runPatches1.xlsx
222	patches	True	n/a	679	0	n/a	n/a	1.0	1	right	n/a	n/a	n/a	1	0.0586302034743	blockFiles/set_5/main_PD/GB_runPatches1.xlsx
223	patches	True	n/a	679	0	n/a	n/a	0.0	1	left	n/a	n/a	n/a	0	-0.0206440146081	blockFiles/set_5/main_PD/GB_runPatches1.xlsx
224	patches	True	n/a	679	0	n/a	n/a	0.0	1	left	n/a	n/a	n/a	0	-0.045631672609599994	blockFiles/set_5/main_PD/GB_runPatches1.xlsx
225	patches	True	n/a	679	0	n/a	n/a	0.0	1	left	n/a	n/a	n/a	0	-0.0715626978874	blockFiles/set_5/main_PD/GB_runPatches1.xlsx
226	patches	True	n/a	679	0	n/a	n/a	0.0	1	left	n/a	n/a	n/a	0	-0.0431373763084	blockFiles/set_5/main_PD/GB_runPatches1.xlsx
227	patches	True	n/a	679	0	n/a	n/a	0.0	1	left	n/a	n/a	n/a	0	-0.0316021313705	blockFiles/set_5/main_PD/GB_runPatches1.xlsx
228	patches	True	n/a	679	0	n/a	n/a	0.0	1	left	n/a	n/a	n/a	0	-0.0434522633813	blockFiles/set_5/main_PD/GB_runPatches1.xlsx
229	patches	True	n/a	679	0	n/a	n/a	0.0	1	left	n/a	n/a	n/a	0	-0.053705109823500005	blockFiles/set_5/main_PD/GB_runPatches1.xlsx
230	patches	True	n/a	679	0	n/a	n/a	0.0	1	left	n/a	n/a	n/a	0	-0.0267391711846	blockFiles/set_5/main_PD/GB_runPatches1.xlsx
231	patches	True	n/a	679	0	n/a	n/a	0.0	1	left	n/a	n/a	n/a	0	-0.0490110017546	blockFiles/set_5/main_PD/GB_runPatches1.xlsx
232	patches	True	n/a	679	0	n/a	n/a	0.0	0	left	n/a	n/a	n/a	1	0.0036847873590900005	blockFiles/set_5/main_PD/GB_runPatches1.xlsx
233	patches	True	n/a	679	0	n/a	n/a	0.0	1	left	n/a	n/a	n/a	0	-0.0665112628043	blockFiles/set_5/main_PD/GB_runPatches1.xlsx
234	patches	True	n/a	679	0	n/a	n/a	0.0	1	left	n/a	n/a	n/a	0	-0.0740550416335	blockFiles/set_5/main_PD/GB_runPatches1.xlsx
235	patches	True	n/a	679	0	n/a	n/a	1.0	1	right	n/a	n/a	n/a	1	0.0286658921652	blockFiles/set_5/main_PD/GB_runPatches1.xlsx
236	patches	True	n/a	679	0	n/a	n/a	0.0	1	left	n/a	n/a	n/a	0	-0.0168502921984	blockFiles/set_5/main_PD/GB_runPatches1.xlsx
237	patches	True	n/a	679	0	n/a	n/a	0.0	1	left	n/a	n/a	n/a	0	-0.057367637679	blockFiles/set_5/main_PD/GB_runPatches1.xlsx
238	patches	True	n/a	679	0	n/a	n/a	0.0	1	left	n/a	n/a	n/a	0	-0.0766738139465	blockFiles/set_5/main_PD/GB_runPatches1.xlsx
239	patches	True	n/a	679	0	n/a	n/a	0.0	1	left	n/a	n/a	n/a	0	-0.0215613587201	blockFiles/set_5/main_PD/GB_runPatches1.xlsx
240	patches	True	n/a	679	0	n/a	n/a	0.0	0	left	n/a	n/a	n/a	1	0.0436487034522	blockFiles/set_5/main_PD/GB_runPatches1.xlsx
241	patches	True	n/a	679	0	n/a	n/a	1.0	1	right	n/a	n/a	n/a	1	0.0235239618272	blockFiles/set_5/main_PD/GB_runPatches1.xlsx
242	patches	True	n/a	679	0	n/a	n/a	1.0	1	right	n/a	n/a	n/a	1	0.0246352145448	blockFiles/set_5/main_PD/GB_runPatches1.xlsx
243	patches	True	n/a	679	0	n/a	n/a	1.0	1	right	n/a	n/a	n/a	1	0.031480182893599995	blockFiles/set_5/main_PD/GB_runPatches1.xlsx
244	patches	True	n/a	679	0	n/a	n/a	0.0	1	left	n/a	n/a	n/a	0	-0.0469408706948	blockFiles/set_5/main_PD/GB_runPatches1.xlsx
245	patches	True	n/a	679	0	n/a	n/a	1.0	1	right	n/a	n/a	n/a	1	0.07481668122110001	blockFiles/set_5/main_PD/GB_runPatches1.xlsx
246	patches	True	n/a	679	0	n/a	n/a	1.0	1	right	n/a	n/a	n/a	1	0.053842385001499994	blockFiles/set_5/main_PD/GB_runPatches1.xlsx
247	patches	True	n/a	679	0	n/a	n/a	1.0	1	right	n/a	n/a	n/a	1	0.0248325891793	blockFiles/set_5/main_PD/GB_runPatches1.xlsx
248	patches	True	n/a	679	0	n/a	n/a	0.0	0	left	n/a	n/a	n/a	1	0.016063007265299998	blockFiles/set_5/main_PD/GB_runPatches1.xlsx
249	patches	True	n/a	679	0	n/a	n/a	0.0	1	left	n/a	n/a	n/a	0	-0.00979934962466	blockFiles/set_5/main_PD/GB_runPatches1.xlsx
250	patches	True	n/a	679	0	n/a	n/a	0.0	1	left	n/a	n/a	n/a	0	-0.014897373504899999	blockFiles/set_5/main_PD/GB_runPatches1.xlsx
251	patches	True	n/a	679	0	n/a	n/a	1.0	1	right	n/a	n/a	n/a	1	0.010934605822000001	blockFiles/set_5/main_PD/GB_runPatches1.xlsx
252	patches	True	n/a	679	0	n/a	n/a	1.0	1	right	n/a	n/a	n/a	1	0.0663337207399	blockFiles/set_5/main_PD/GB_runPatches1.xlsx
253	main_unc	True	0.0	679	0	0.0	0.0	0.0	1	left	1.0	1.0	1.0	0	-0.05708871454	blockFiles/set_5/main_unc/rightBlue\GB_RB_5.xlsx
254	main_unc	True	0.0	679	0	0.0	0.0	1.0	0	right	2.0	1.0	0.0	0	-0.0204503206722	blockFiles/set_5/main_unc/rightBlue\GB_RB_5.xlsx
255	main_unc	True	0.0	679	0	0.0	0.0	1.0	0	right	1.0	1.0	1.0	0	-0.047542829383199994	blockFiles/set_5/main_unc/rightBlue\GB_RB_5.xlsx
256	main_unc	True	0.0	679	0	0.0	0.0	1.0	0	right	1.0	1.0	1.0	0	-0.051840367950499996	blockFiles/set_5/main_unc/rightBlue\GB_RB_5.xlsx
257	main_unc	True	0.0	679	0	0.0	0.0	1.0	1	right	2.0	0.0	1.0	1	0.0697649848834	blockFiles/set_5/main_unc/rightBlue\GB_RB_5.xlsx
258	main_unc	True	0.0	679	0	0.0	0.0	1.0	1	right	2.0	1.0	1.0	1	0.0372422588058	blockFiles/set_5/main_unc/rightBlue\GB_RB_5.xlsx
259	main_unc	True	0.0	679	0	0.0	0.0	1.0	0	right	2.0	0.0	0.0	0	-0.018351995274400002	blockFiles/set_5/main_unc/rightBlue\GB_RB_5.xlsx
260	main_unc	True	0.0	679	0	0.0	0.0	0.0	1	left	1.0	1.0	1.0	0	-0.07223362881689999	blockFiles/set_5/main_unc/rightBlue\GB_RB_5.xlsx
261	main_unc	True	0.0	679	0	0.0	0.0	1.0	1	right	2.0	1.0	1.0	1	0.015004865657500002	blockFiles/set_5/main_unc/rightBlue\GB_RB_5.xlsx
262	main_unc	True	0.0	679	0	0.0	0.0	1.0	1	right	2.0	1.0	1.0	1	0.0728030371852	blockFiles/set_5/main_unc/rightBlue\GB_RB_5.xlsx
263	main_unc	True	0.0	679	0	0.0	0.0	0.0	1	left	1.0	1.0	1.0	0	-0.0365917775221	blockFiles/set_5/main_unc/rightBlue\GB_RB_5.xlsx
264	main_unc	True	0.0	679	0	0.0	0.0	1.0	0	right	2.0	1.0	0.0	0	-0.009239207636559998	blockFiles/set_5/main_unc/rightBlue\GB_RB_5.xlsx
265	main_unc	True	0.0	679	0	0.0	0.0	1.0	1	right	2.0	0.0	1.0	1	0.0327388293669	blockFiles/set_5/main_unc/rightBlue\GB_RB_5.xlsx
266	main_unc	True	0.0	679	0	0.0	0.0	0.0	1	left	1.0	1.0	1.0	0	-0.07468165567139999	blockFiles/set_5/main_unc/rightBlue\GB_RB_5.xlsx
267	main_unc	True	0.0	679	0	0.0	0.0	1.0	1	right	2.0	1.0	1.0	1	0.0320533619449	blockFiles/set_5/main_unc/rightBlue\GB_RB_5.xlsx
268	main_unc	True	0.0	679	0	0.0	0.0	1.0	1	right	2.0	1.0	1.0	1	0.0186340477318	blockFiles/set_5/main_unc/rightBlue\GB_RB_5.xlsx
269	main_unc	True	0.0	679	0	0.0	0.0	1.0	1	right	2.0	1.0	1.0	1	0.0215017014928	blockFiles/set_5/main_unc/rightBlue\GB_RB_5.xlsx
270	main_unc	True	0.0	679	0	0.0	0.0	0.0	1	left	1.0	1.0	1.0	0	-0.0773498877324	blockFiles/set_5/main_unc/rightBlue\GB_RB_5.xlsx
271	main_unc	True	0.0	679	0	0.0	0.0	1.0	0	right	1.0	1.0	1.0	0	-0.037221750319	blockFiles/set_5/main_unc/rightBlue\GB_RB_5.xlsx
272	main_unc	True	0.0	679	0	0.0	0.0	1.0	1	right	2.0	1.0	1.0	1	0.034004335347599994	blockFiles/set_5/main_unc/rightBlue\GB_RB_5.xlsx
273	main_unc	True	0.0	679	0	0.0	0.0	1.0	1	right	2.0	1.0	1.0	1	0.00864478496835	blockFiles/set_5/main_unc/rightBlue\GB_RB_5.xlsx
274	main_unc	True	0.0	679	0	0.0	0.0	0.0	1	left	1.0	1.0	1.0	0	-0.0660149783827	blockFiles/set_5/main_unc/rightBlue\GB_RB_5.xlsx
275	main_unc	True	0.0	679	0	0.0	0.0	0.0	1	left	2.0	0.0	0.0	0	-0.00933285761625	blockFiles/set_5/main_unc/rightBlue\GB_RB_5.xlsx
276	main_unc	True	0.0	679	0	0.0	0.0	1.0	0	right	2.0	0.0	0.0	0	-0.00399927958846	blockFiles/set_5/main_unc/rightBlue\GB_RB_5.xlsx
277	main_unc	True	0.0	679	0	0.0	0.0	1.0	1	right	2.0	0.0	1.0	1	0.067758757323	blockFiles/set_5/main_unc/rightBlue\GB_RB_5.xlsx
278	main_unc	True	0.0	679	0	1.0	1.0	0.0	1	left	1.0	1.0	0.0	0	-0.0614770210162	blockFiles/set_5/main_unc/leftBlue\GB_LB_4.xlsx
279	main_unc	True	0.0	679	0	1.0	1.0	1.0	1	right	2.0	1.0	0.0	1	0.043560931012	blockFiles/set_5/main_unc/leftBlue\GB_LB_4.xlsx
280	main_unc	True	0.0	679	0	1.0	1.0	0.0	1	left	2.0	1.0	1.0	0	-0.0241248972528	blockFiles/set_5/main_unc/leftBlue\GB_LB_4.xlsx
281	main_unc	True	0.0	679	0	1.0	1.0	1.0	1	right	2.0	0.0	0.0	1	0.0303477775306	blockFiles/set_5/main_unc/leftBlue\GB_LB_4.xlsx
282	main_unc	True	0.0	679	0	1.0	1.0	0.0	1	left	1.0	0.0	0.0	0	-0.0370590492152	blockFiles/set_5/main_unc/leftBlue\GB_LB_4.xlsx
283	main_unc	True	0.0	679	0	1.0	1.0	1.0	0	right	1.0	0.0	0.0	0	-0.0255374971777	blockFiles/set_5/main_unc/leftBlue\GB_LB_4.xlsx
284	main_unc	True	0.0	679	0	1.0	1.0	1.0	1	right	2.0	0.0	0.0	1	0.0331294077635	blockFiles/set_5/main_unc/leftBlue\GB_LB_4.xlsx
285	main_unc	True	0.0	679	0	1.0	1.0	0.0	1	left	1.0	0.0	0.0	0	-0.0756153902784	blockFiles/set_5/main_unc/leftBlue\GB_LB_4.xlsx
286	main_unc	True	0.0	679	0	1.0	1.0	1.0	1	right	1.0	0.0	1.0	1	0.0751252437383	blockFiles/set_5/main_unc/leftBlue\GB_LB_4.xlsx
287	main_unc	True	0.0	679	0	1.0	1.0	1.0	1	right	2.0	0.0	0.0	1	0.00693512903526	blockFiles/set_5/main_unc/leftBlue\GB_LB_4.xlsx
288	main_unc	True	0.0	679	0	1.0	1.0	1.0	1	right	1.0	1.0	1.0	1	0.004827426932750001	blockFiles/set_5/main_unc/leftBlue\GB_LB_4.xlsx
289	main_unc	True	1.0	679	0	1.0	1.0	n/a	0	None	n/a	0.0	n/a	0	-0.0374649118632	blockFiles/set_5/main_unc/leftBlue\GB_LB_4.xlsx
290	main_unc	True	0.0	679	0	1.0	1.0	1.0	1	right	1.0	0.0	1.0	1	0.034363624379	blockFiles/set_5/main_unc/leftBlue\GB_LB_4.xlsx
291	main_unc	True	0.0	679	0	1.0	1.0	0.0	1	left	1.0	0.0	0.0	0	-0.027073339410099997	blockFiles/set_5/main_unc/leftBlue\GB_LB_4.xlsx
292	main_unc	True	1.0	679	0	1.0	1.0	n/a	0	None	n/a	0.0	n/a	1	0.0331547144614	blockFiles/set_5/main_unc/leftBlue\GB_LB_4.xlsx
293	main_unc	True	0.0	679	0	1.0	1.0	1.0	1	right	2.0	1.0	0.0	1	0.0524857068807	blockFiles/set_5/main_unc/leftBlue\GB_LB_4.xlsx
294	main_unc	True	0.0	679	0	1.0	1.0	0.0	1	left	1.0	0.0	0.0	0	-0.0589655449428	blockFiles/set_5/main_unc/leftBlue\GB_LB_4.xlsx
295	main_unc	True	0.0	679	0	1.0	1.0	1.0	1	right	2.0	0.0	0.0	1	0.0732600367069	blockFiles/set_5/main_unc/leftBlue\GB_LB_4.xlsx
296	main_unc	True	0.0	679	0	1.0	1.0	0.0	1	left	1.0	0.0	0.0	0	-0.0402347293496	blockFiles/set_5/main_unc/leftBlue\GB_LB_4.xlsx
297	main_unc	True	0.0	679	0	1.0	1.0	0.0	1	left	1.0	0.0	0.0	0	-0.032430918719599994	blockFiles/set_5/main_unc/leftBlue\GB_LB_4.xlsx
298	main_unc	True	0.0	679	0	1.0	1.0	1.0	1	right	2.0	0.0	0.0	1	0.0732535149902	blockFiles/set_5/main_unc/leftBlue\GB_LB_4.xlsx
299	main_unc	True	0.0	679	0	1.0	1.0	1.0	1	right	1.0	0.0	1.0	1	0.0334508067556	blockFiles/set_5/main_unc/leftBlue\GB_LB_4.xlsx
300	main_unc	True	0.0	679	0	1.0	1.0	0.0	1	left	1.0	0.0	0.0	0	-0.0018135417811599999	blockFiles/set_5/main_unc/leftBlue\GB_LB_4.xlsx
301	main_unc	True	0.0	679	0	1.0	1.0	0.0	0	left	2.0	0.0	0.0	1	0.000359429847449	blockFiles/set_5/main_unc/leftBlue\GB_LB_4.xlsx
302	main_unc	True	0.0	679	0	1.0	1.0	0.0	1	left	1.0	0.0	0.0	0	-0.053988040052399995	blockFiles/set_5/main_unc/leftBlue\GB_LB_4.xlsx
303	main_unc	True	0.0	679	0	1.0	1.0	0.0	1	left	2.0	1.0	1.0	0	-0.0374649118632	blockFiles/set_5/main_unc/leftBlue\GB_LB_4.xlsx
304	main_unc	True	0.0	679	0	1.0	1.0	1.0	1	right	1.0	1.0	1.0	1	0.0331547144614	blockFiles/set_5/main_unc/leftBlue\GB_LB_4.xlsx
305	main_unc	True	0.0	679	0	2.0	2.0	1.0	1	right	2.0	1.0	1.0	1	0.035100592915	blockFiles/set_5/main_unc/rightBlue\GB_RB_3.xlsx
306	main_unc	True	0.0	679	0	2.0	2.0	1.0	1	right	2.0	1.0	1.0	1	0.0350961474888	blockFiles/set_5/main_unc/rightBlue\GB_RB_3.xlsx
307	main_unc	True	0.0	679	0	2.0	2.0	1.0	1	right	2.0	1.0	1.0	1	0.0162748403847	blockFiles/set_5/main_unc/rightBlue\GB_RB_3.xlsx
308	main_unc	True	0.0	679	0	2.0	2.0	0.0	1	left	1.0	1.0	1.0	0	-0.0341988150217	blockFiles/set_5/main_unc/rightBlue\GB_RB_3.xlsx
309	main_unc	True	0.0	679	0	2.0	2.0	1.0	1	right	1.0	0.0	0.0	1	0.021275136526700003	blockFiles/set_5/main_unc/rightBlue\GB_RB_3.xlsx
310	main_unc	True	0.0	679	0	2.0	2.0	1.0	0	right	1.0	1.0	1.0	0	-0.012499474436000002	blockFiles/set_5/main_unc/rightBlue\GB_RB_3.xlsx
311	main_unc	True	0.0	679	0	2.0	2.0	0.0	1	left	1.0	1.0	1.0	0	-0.048749725464699994	blockFiles/set_5/main_unc/rightBlue\GB_RB_3.xlsx
312	main_unc	True	0.0	679	0	2.0	2.0	0.0	1	left	1.0	1.0	1.0	0	-0.067523596976	blockFiles/set_5/main_unc/rightBlue\GB_RB_3.xlsx
313	main_unc	True	0.0	679	0	2.0	2.0	0.0	1	left	1.0	0.0	1.0	0	-0.0471926518716	blockFiles/set_5/main_unc/rightBlue\GB_RB_3.xlsx
314	main_unc	True	0.0	679	0	2.0	2.0	0.0	1	left	1.0	0.0	1.0	0	-0.0490238156542	blockFiles/set_5/main_unc/rightBlue\GB_RB_3.xlsx
315	main_unc	True	0.0	679	0	2.0	2.0	1.0	1	right	2.0	1.0	1.0	1	0.0111599935219	blockFiles/set_5/main_unc/rightBlue\GB_RB_3.xlsx
316	main_unc	True	0.0	679	0	2.0	2.0	1.0	1	right	2.0	1.0	1.0	1	0.0603702920862	blockFiles/set_5/main_unc/rightBlue\GB_RB_3.xlsx
317	main_unc	True	0.0	679	0	2.0	2.0	0.0	1	left	1.0	1.0	1.0	0	-0.0280648537725	blockFiles/set_5/main_unc/rightBlue\GB_RB_3.xlsx
318	main_unc	True	0.0	679	0	2.0	2.0	0.0	1	left	1.0	1.0	1.0	0	-0.0036488949693699994	blockFiles/set_5/main_unc/rightBlue\GB_RB_3.xlsx
319	main_unc	True	0.0	679	0	2.0	2.0	1.0	1	right	2.0	0.0	1.0	1	0.0453024049848	blockFiles/set_5/main_unc/rightBlue\GB_RB_3.xlsx
320	main_unc	True	0.0	679	0	2.0	2.0	1.0	1	right	2.0	1.0	1.0	1	0.0338890177943	blockFiles/set_5/main_unc/rightBlue\GB_RB_3.xlsx
321	main_unc	True	0.0	679	0	2.0	2.0	0.0	1	left	1.0	1.0	1.0	0	-0.0768225496449	blockFiles/set_5/main_unc/rightBlue\GB_RB_3.xlsx
322	main_unc	True	0.0	679	0	2.0	2.0	0.0	1	left	1.0	1.0	1.0	0	-0.0602135961689	blockFiles/set_5/main_unc/rightBlue\GB_RB_3.xlsx
323	main_unc	True	0.0	679	0	2.0	2.0	1.0	1	right	2.0	1.0	1.0	1	0.0663109025545	blockFiles/set_5/main_unc/rightBlue\GB_RB_3.xlsx
324	main_unc	True	0.0	679	0	2.0	2.0	1.0	1	right	2.0	1.0	1.0	1	0.00538104232401	blockFiles/set_5/main_unc/rightBlue\GB_RB_3.xlsx
325	main_unc	True	0.0	679	0	2.0	2.0	1.0	1	right	2.0	1.0	1.0	1	0.035845118742400005	blockFiles/set_5/main_unc/rightBlue\GB_RB_3.xlsx
326	main_unc	True	0.0	679	0	2.0	2.0	1.0	1	right	2.0	1.0	1.0	1	0.0231892772764	blockFiles/set_5/main_unc/rightBlue\GB_RB_3.xlsx
327	main_unc	True	0.0	679	0	2.0	2.0	1.0	0	right	2.0	0.0	0.0	0	-0.00588141104206	blockFiles/set_5/main_unc/rightBlue\GB_RB_3.xlsx
328	main_unc	True	0.0	679	0	2.0	2.0	1.0	1	right	2.0	0.0	1.0	1	0.04663152555	blockFiles/set_5/main_unc/rightBlue\GB_RB_3.xlsx
329	main_unc	True	0.0	679	0	2.0	2.0	0.0	1	left	1.0	1.0	1.0	0	-0.074611880742	blockFiles/set_5/main_unc/rightBlue\GB_RB_3.xlsx
330	main_unc	True	0.0	679	0	3.0	3.0	0.0	1	left	2.0	0.0	0.0	0	-0.009920149631799999	blockFiles/set_5/main_unc/rightBlue\GB_RB_6.xlsx
331	main_unc	True	0.0	679	0	3.0	3.0	0.0	1	left	2.0	1.0	0.0	0	-0.0594929805025	blockFiles/set_5/main_unc/rightBlue\GB_RB_6.xlsx
332	main_unc	True	0.0	679	0	3.0	3.0	0.0	1	left	2.0	0.0	0.0	0	-0.0410230609216	blockFiles/set_5/main_unc/rightBlue\GB_RB_6.xlsx
333	main_unc	True	0.0	679	0	3.0	3.0	1.0	1	right	1.0	0.0	0.0	1	0.059541826099199995	blockFiles/set_5/main_unc/rightBlue\GB_RB_6.xlsx
334	main_unc	True	0.0	679	0	3.0	3.0	1.0	1	right	1.0	0.0	0.0	1	0.0331466795504	blockFiles/set_5/main_unc/rightBlue\GB_RB_6.xlsx
335	main_unc	True	0.0	679	0	3.0	3.0	1.0	0	right	2.0	0.0	0.0	0	-0.0138099670224	blockFiles/set_5/main_unc/rightBlue\GB_RB_6.xlsx
336	main_unc	True	0.0	679	0	3.0	3.0	1.0	1	right	2.0	0.0	1.0	1	0.034436413068300004	blockFiles/set_5/main_unc/rightBlue\GB_RB_6.xlsx
337	main_unc	True	1.0	679	0	3.0	3.0	0.0	1	left	n/a	0.0	n/a	0	-0.07193457297980001	blockFiles/set_5/main_unc/rightBlue\GB_RB_6.xlsx
338	main_unc	True	0.0	679	0	3.0	3.0	1.0	1	right	2.0	1.0	1.0	1	0.0119510389492	blockFiles/set_5/main_unc/rightBlue\GB_RB_6.xlsx
339	main_unc	True	0.0	679	0	3.0	3.0	0.0	1	left	1.0	0.0	1.0	0	-0.0655341704376	blockFiles/set_5/main_unc/rightBlue\GB_RB_6.xlsx
340	main_unc	True	0.0	679	0	3.0	3.0	1.0	1	right	2.0	1.0	1.0	1	0.0314825367369	blockFiles/set_5/main_unc/rightBlue\GB_RB_6.xlsx
341	main_unc	True	0.0	679	0	3.0	3.0	1.0	1	right	2.0	1.0	1.0	1	0.0114320413209	blockFiles/set_5/main_unc/rightBlue\GB_RB_6.xlsx
342	main_unc	True	0.0	679	0	3.0	3.0	1.0	1	right	2.0	1.0	1.0	1	0.0537587681226	blockFiles/set_5/main_unc/rightBlue\GB_RB_6.xlsx
343	main_unc	True	0.0	679	0	3.0	3.0	0.0	1	left	1.0	1.0	1.0	0	-0.0743816038594	blockFiles/set_5/main_unc/rightBlue\GB_RB_6.xlsx
344	main_unc	True	0.0	679	0	3.0	3.0	1.0	1	right	2.0	1.0	1.0	1	0.044543287604999995	blockFiles/set_5/main_unc/rightBlue\GB_RB_6.xlsx
345	main_unc	True	0.0	679	0	3.0	3.0	0.0	1	left	1.0	1.0	1.0	0	-0.0565200189315	blockFiles/set_5/main_unc/rightBlue\GB_RB_6.xlsx
346	main_unc	True	0.0	679	0	3.0	3.0	1.0	1	right	2.0	1.0	1.0	1	0.018514867667099998	blockFiles/set_5/main_unc/rightBlue\GB_RB_6.xlsx
347	main_unc	True	0.0	679	0	3.0	3.0	1.0	1	right	2.0	1.0	1.0	1	0.0158266043849	blockFiles/set_5/main_unc/rightBlue\GB_RB_6.xlsx
348	main_unc	True	0.0	679	0	3.0	3.0	1.0	1	right	2.0	0.0	1.0	1	0.0143612843379	blockFiles/set_5/main_unc/rightBlue\GB_RB_6.xlsx
349	main_unc	True	0.0	679	0	3.0	3.0	1.0	0	right	2.0	0.0	0.0	0	-0.0125079020485	blockFiles/set_5/main_unc/rightBlue\GB_RB_6.xlsx
350	main_unc	True	0.0	679	0	3.0	3.0	1.0	1	right	2.0	1.0	1.0	1	0.0639759762213	blockFiles/set_5/main_unc/rightBlue\GB_RB_6.xlsx
351	main_unc	True	0.0	679	0	3.0	3.0	1.0	1	right	2.0	1.0	1.0	1	0.0650848932192	blockFiles/set_5/main_unc/rightBlue\GB_RB_6.xlsx
352	main_unc	True	0.0	679	0	3.0	3.0	0.0	1	left	1.0	1.0	1.0	0	-0.0226370067522	blockFiles/set_5/main_unc/rightBlue\GB_RB_6.xlsx
353	main_unc	True	0.0	679	0	3.0	3.0	0.0	1	left	1.0	1.0	1.0	0	-0.068221929688	blockFiles/set_5/main_unc/rightBlue\GB_RB_6.xlsx
354	main_unc	True	0.0	679	0	3.0	3.0	0.0	1	left	1.0	1.0	1.0	0	-0.0353788753226	blockFiles/set_5/main_unc/rightBlue\GB_RB_6.xlsx
355	main_unc	True	0.0	679	0	3.0	3.0	0.0	1	left	1.0	1.0	1.0	0	-0.07193457297980001	blockFiles/set_5/main_unc/rightBlue\GB_RB_6.xlsx
356	main_unc	True	0.0	679	0	4.0	4.0	1.0	1	right	2.0	0.0	0.0	1	0.0405134868063	blockFiles/set_5/main_unc/leftBlue\GB_LB_5.xlsx
357	main_unc	True	0.0	679	0	4.0	4.0	0.0	0	left	2.0	0.0	0.0	1	0.0295525409654	blockFiles/set_5/main_unc/leftBlue\GB_LB_5.xlsx
358	main_unc	True	0.0	679	0	4.0	4.0	0.0	0	left	1.0	1.0	1.0	1	0.010295933503700002	blockFiles/set_5/main_unc/leftBlue\GB_LB_5.xlsx
359	main_unc	True	0.0	679	0	4.0	4.0	1.0	1	right	1.0	1.0	1.0	1	0.0375623461045	blockFiles/set_5/main_unc/leftBlue\GB_LB_5.xlsx
360	main_unc	True	0.0	679	0	4.0	4.0	0.0	0	left	1.0	1.0	1.0	1	0.017908337526	blockFiles/set_5/main_unc/leftBlue\GB_LB_5.xlsx
361	main_unc	True	0.0	679	0	4.0	4.0	0.0	1	left	2.0	0.0	1.0	0	-0.020897108670299997	blockFiles/set_5/main_unc/leftBlue\GB_LB_5.xlsx
362	main_unc	True	0.0	679	0	4.0	4.0	1.0	1	right	1.0	1.0	1.0	1	0.0493557909504	blockFiles/set_5/main_unc/leftBlue\GB_LB_5.xlsx
363	main_unc	True	0.0	679	0	4.0	4.0	0.0	1	left	2.0	1.0	1.0	0	-0.037831853814400004	blockFiles/set_5/main_unc/leftBlue\GB_LB_5.xlsx
364	main_unc	True	0.0	679	0	4.0	4.0	0.0	1	left	2.0	1.0	1.0	0	-0.0692966693267	blockFiles/set_5/main_unc/leftBlue\GB_LB_5.xlsx
365	main_unc	True	0.0	679	0	4.0	4.0	0.0	1	left	2.0	1.0	1.0	0	-0.026187567375599997	blockFiles/set_5/main_unc/leftBlue\GB_LB_5.xlsx
366	main_unc	True	0.0	679	0	4.0	4.0	1.0	1	right	1.0	1.0	1.0	1	0.0689931772649	blockFiles/set_5/main_unc/leftBlue\GB_LB_5.xlsx
367	main_unc	True	0.0	679	0	4.0	4.0	0.0	1	left	2.0	0.0	1.0	0	-0.023410613909400003	blockFiles/set_5/main_unc/leftBlue\GB_LB_5.xlsx
368	main_unc	True	0.0	679	0	4.0	4.0	1.0	0	right	2.0	1.0	1.0	0	-0.0336548061855	blockFiles/set_5/main_unc/leftBlue\GB_LB_5.xlsx
369	main_unc	True	0.0	679	0	4.0	4.0	0.0	1	left	2.0	0.0	1.0	0	-0.06996442414819999	blockFiles/set_5/main_unc/leftBlue\GB_LB_5.xlsx
370	main_unc	True	0.0	679	0	4.0	4.0	0.0	0	left	1.0	1.0	1.0	1	0.0022985201887800004	blockFiles/set_5/main_unc/leftBlue\GB_LB_5.xlsx
371	main_unc	True	0.0	679	0	4.0	4.0	0.0	1	left	2.0	1.0	1.0	0	-0.0434011852369	blockFiles/set_5/main_unc/leftBlue\GB_LB_5.xlsx
372	main_unc	True	0.0	679	0	4.0	4.0	1.0	1	right	1.0	1.0	1.0	1	0.0761432348005	blockFiles/set_5/main_unc/leftBlue\GB_LB_5.xlsx
373	main_unc	True	0.0	679	0	4.0	4.0	0.0	1	left	1.0	1.0	0.0	0	-0.0016937053762399999	blockFiles/set_5/main_unc/leftBlue\GB_LB_5.xlsx
374	main_unc	True	0.0	679	0	4.0	4.0	1.0	1	right	1.0	1.0	1.0	1	0.0679618050903	blockFiles/set_5/main_unc/leftBlue\GB_LB_5.xlsx
375	main_unc	True	0.0	679	0	4.0	4.0	1.0	0	right	2.0	1.0	1.0	0	-0.008855272866790002	blockFiles/set_5/main_unc/leftBlue\GB_LB_5.xlsx
376	main_unc	True	0.0	679	0	4.0	4.0	0.0	1	left	2.0	1.0	1.0	0	-0.07504686828700001	blockFiles/set_5/main_unc/leftBlue\GB_LB_5.xlsx
377	main_unc	True	0.0	679	0	4.0	4.0	0.0	1	left	2.0	1.0	1.0	0	-0.0540412453376	blockFiles/set_5/main_unc/leftBlue\GB_LB_5.xlsx
378	main_unc	True	0.0	679	0	4.0	4.0	1.0	1	right	2.0	1.0	0.0	1	0.008791642412540001	blockFiles/set_5/main_unc/leftBlue\GB_LB_5.xlsx
379	main_unc	True	0.0	679	0	4.0	4.0	1.0	1	right	1.0	1.0	1.0	1	0.0445518859476	blockFiles/set_5/main_unc/leftBlue\GB_LB_5.xlsx
380	main_unc	True	0.0	679	0	4.0	4.0	1.0	1	right	1.0	1.0	1.0	1	0.0233030658588	blockFiles/set_5/main_unc/leftBlue\GB_LB_5.xlsx
381	main_unc	True	0.0	679	0	5.0	5.0	0.0	1	left	1.0	0.0	0.0	0	-0.0608817838877	blockFiles/set_5/main_unc/leftBlue\GB_LB_1.xlsx
382	main_unc	True	0.0	679	0	5.0	5.0	1.0	1	right	1.0	1.0	1.0	1	0.043937260024199995	blockFiles/set_5/main_unc/leftBlue\GB_LB_1.xlsx
383	main_unc	True	0.0	679	0	5.0	5.0	1.0	1	right	1.0	1.0	1.0	1	0.0588846386969	blockFiles/set_5/main_unc/leftBlue\GB_LB_1.xlsx
384	main_unc	True	0.0	679	0	5.0	5.0	0.0	1	left	2.0	0.0	1.0	0	-0.041790265645800004	blockFiles/set_5/main_unc/leftBlue\GB_LB_1.xlsx
385	main_unc	True	0.0	679	0	5.0	5.0	0.0	1	left	2.0	1.0	1.0	0	-0.014689637180399999	blockFiles/set_5/main_unc/leftBlue\GB_LB_1.xlsx
386	main_unc	True	0.0	679	0	5.0	5.0	1.0	1	right	1.0	1.0	1.0	1	0.028737925998900002	blockFiles/set_5/main_unc/leftBlue\GB_LB_1.xlsx
387	main_unc	True	0.0	679	0	5.0	5.0	1.0	1	right	1.0	1.0	1.0	1	0.035363825689999996	blockFiles/set_5/main_unc/leftBlue\GB_LB_1.xlsx
388	main_unc	True	0.0	679	0	5.0	5.0	0.0	1	left	2.0	1.0	1.0	0	-0.0390482642129	blockFiles/set_5/main_unc/leftBlue\GB_LB_1.xlsx
389	main_unc	True	0.0	679	0	5.0	5.0	0.0	1	left	2.0	1.0	1.0	0	-0.0681346227974	blockFiles/set_5/main_unc/leftBlue\GB_LB_1.xlsx
390	main_unc	True	0.0	679	0	5.0	5.0	0.0	1	left	2.0	0.0	1.0	0	-0.0711461126432	blockFiles/set_5/main_unc/leftBlue\GB_LB_1.xlsx
391	main_unc	True	0.0	679	0	5.0	5.0	0.0	0	left	1.0	1.0	1.0	1	0.007366115916520001	blockFiles/set_5/main_unc/leftBlue\GB_LB_1.xlsx
392	main_unc	True	0.0	679	0	5.0	5.0	1.0	1	right	1.0	1.0	1.0	1	0.0424507254548	blockFiles/set_5/main_unc/leftBlue\GB_LB_1.xlsx
393	main_unc	True	0.0	679	0	5.0	5.0	1.0	1	right	1.0	1.0	1.0	1	0.00495173029602	blockFiles/set_5/main_unc/leftBlue\GB_LB_1.xlsx
394	main_unc	True	0.0	679	0	5.0	5.0	1.0	1	right	1.0	1.0	1.0	1	0.0409367137961	blockFiles/set_5/main_unc/leftBlue\GB_LB_1.xlsx
395	main_unc	True	0.0	679	0	5.0	5.0	1.0	1	right	1.0	0.0	1.0	1	0.0757956345938	blockFiles/set_5/main_unc/leftBlue\GB_LB_1.xlsx
396	main_unc	True	0.0	679	0	5.0	5.0	1.0	1	right	1.0	0.0	1.0	1	0.022443426102400004	blockFiles/set_5/main_unc/leftBlue\GB_LB_1.xlsx
397	main_unc	True	0.0	679	0	5.0	5.0	1.0	0	right	2.0	1.0	1.0	0	-0.035971952416	blockFiles/set_5/main_unc/leftBlue\GB_LB_1.xlsx
398	main_unc	True	0.0	679	0	5.0	5.0	1.0	1	right	1.0	1.0	1.0	1	0.0706764720567	blockFiles/set_5/main_unc/leftBlue\GB_LB_1.xlsx
399	main_unc	True	0.0	679	0	5.0	5.0	0.0	1	left	1.0	0.0	0.0	0	-0.0291264721006	blockFiles/set_5/main_unc/leftBlue\GB_LB_1.xlsx
400	main_unc	True	0.0	679	0	5.0	5.0	1.0	1	right	1.0	1.0	1.0	1	0.0162423618883	blockFiles/set_5/main_unc/leftBlue\GB_LB_1.xlsx
401	main_unc	True	1.0	679	0	5.0	5.0	n/a	0	None	n/a	0.0	n/a	0	-0.0383739692718	blockFiles/set_5/main_unc/leftBlue\GB_LB_1.xlsx
402	main_unc	True	0.0	679	0	5.0	5.0	1.0	1	right	1.0	0.0	1.0	1	0.062104301434	blockFiles/set_5/main_unc/leftBlue\GB_LB_1.xlsx
403	main_unc	True	0.0	679	0	5.0	5.0	0.0	1	left	2.0	1.0	1.0	0	-0.011943253278700001	blockFiles/set_5/main_unc/leftBlue\GB_LB_1.xlsx
404	main_unc	True	0.0	679	0	5.0	5.0	0.0	1	left	2.0	1.0	1.0	0	-0.0640538551472	blockFiles/set_5/main_unc/leftBlue\GB_LB_1.xlsx
405	main_unc	True	0.0	679	0	5.0	5.0	0.0	1	left	2.0	1.0	1.0	0	-0.0579767508246	blockFiles/set_5/main_unc/leftBlue\GB_LB_1.xlsx
406	main_unc	True	0.0	679	0	5.0	5.0	0.0	1	left	2.0	1.0	1.0	0	-0.0383739692718	blockFiles/set_5/main_unc/leftBlue\GB_LB_1.xlsx
407	main_unc	True	0.0	679	0	6.0	6.0	0.0	1	left	2.0	1.0	0.0	0	-0.039171209558800005	blockFiles/set_5/main_unc/rightBlue\GB_RB_1.xlsx
408	main_unc	True	0.0	679	0	6.0	6.0	1.0	1	right	1.0	0.0	0.0	1	0.07701865404839998	blockFiles/set_5/main_unc/rightBlue\GB_RB_1.xlsx
409	main_unc	True	1.0	679	0	6.0	6.0	n/a	0	None	n/a	0.0	n/a	0	-0.0135947636142	blockFiles/set_5/main_unc/rightBlue\GB_RB_1.xlsx
410	main_unc	True	0.0	679	0	6.0	6.0	0.0	1	left	2.0	0.0	0.0	0	-0.055661352276800004	blockFiles/set_5/main_unc/rightBlue\GB_RB_1.xlsx
411	main_unc	True	0.0	679	0	6.0	6.0	0.0	1	left	2.0	1.0	0.0	0	-0.053493334371600004	blockFiles/set_5/main_unc/rightBlue\GB_RB_1.xlsx
412	main_unc	True	0.0	679	0	6.0	6.0	0.0	1	left	2.0	0.0	0.0	0	-0.053630105890300005	blockFiles/set_5/main_unc/rightBlue\GB_RB_1.xlsx
413	main_unc	True	0.0	679	0	6.0	6.0	0.0	0	left	1.0	0.0	0.0	1	0.000146444868296	blockFiles/set_5/main_unc/rightBlue\GB_RB_1.xlsx
414	main_unc	True	0.0	679	0	6.0	6.0	0.0	1	left	2.0	0.0	0.0	0	-0.0520699526742	blockFiles/set_5/main_unc/rightBlue\GB_RB_1.xlsx
415	main_unc	True	0.0	679	0	6.0	6.0	1.0	1	right	1.0	0.0	0.0	1	0.042551364488900005	blockFiles/set_5/main_unc/rightBlue\GB_RB_1.xlsx
416	main_unc	True	0.0	679	0	6.0	6.0	1.0	1	right	1.0	0.0	0.0	1	0.00167313465849	blockFiles/set_5/main_unc/rightBlue\GB_RB_1.xlsx
417	main_unc	True	0.0	679	0	6.0	6.0	0.0	1	left	2.0	0.0	0.0	0	-0.0580779918283	blockFiles/set_5/main_unc/rightBlue\GB_RB_1.xlsx
418	main_unc	True	0.0	679	0	6.0	6.0	0.0	1	left	2.0	0.0	0.0	0	-0.06364864265549999	blockFiles/set_5/main_unc/rightBlue\GB_RB_1.xlsx
419	main_unc	True	0.0	679	0	6.0	6.0	1.0	1	right	2.0	1.0	1.0	1	0.0271771428548	blockFiles/set_5/main_unc/rightBlue\GB_RB_1.xlsx
420	main_unc	True	0.0	679	0	6.0	6.0	0.0	1	left	2.0	1.0	0.0	0	-0.0244614244998	blockFiles/set_5/main_unc/rightBlue\GB_RB_1.xlsx
421	main_unc	True	0.0	679	0	6.0	6.0	1.0	1	right	2.0	1.0	1.0	1	0.0321051681042	blockFiles/set_5/main_unc/rightBlue\GB_RB_1.xlsx
422	main_unc	True	0.0	679	0	6.0	6.0	0.0	1	left	1.0	1.0	1.0	0	-0.0313047656044	blockFiles/set_5/main_unc/rightBlue\GB_RB_1.xlsx
423	main_unc	True	0.0	679	0	6.0	6.0	1.0	1	right	2.0	1.0	1.0	1	0.014625431373700001	blockFiles/set_5/main_unc/rightBlue\GB_RB_1.xlsx
424	main_unc	True	0.0	679	0	6.0	6.0	0.0	0	left	2.0	1.0	1.0	1	0.0284112227708	blockFiles/set_5/main_unc/rightBlue\GB_RB_1.xlsx
425	main_unc	True	0.0	679	0	6.0	6.0	0.0	1	left	1.0	1.0	1.0	0	-0.04456776866690001	blockFiles/set_5/main_unc/rightBlue\GB_RB_1.xlsx
426	main_unc	True	1.0	679	0	6.0	6.0	n/a	0	None	n/a	0.0	n/a	1	0.06081393962730001	blockFiles/set_5/main_unc/rightBlue\GB_RB_1.xlsx
427	main_unc	True	0.0	679	0	6.0	6.0	0.0	0	left	2.0	0.0	1.0	1	0.0170490170456	blockFiles/set_5/main_unc/rightBlue\GB_RB_1.xlsx
428	main_unc	True	0.0	679	0	6.0	6.0	0.0	1	left	1.0	1.0	1.0	0	-0.0681757473573	blockFiles/set_5/main_unc/rightBlue\GB_RB_1.xlsx
429	main_unc	True	0.0	679	0	6.0	6.0	1.0	1	right	2.0	1.0	1.0	1	0.0120104932599	blockFiles/set_5/main_unc/rightBlue\GB_RB_1.xlsx
430	main_unc	True	0.0	679	0	6.0	6.0	1.0	1	right	2.0	0.0	1.0	1	0.0458841280453	blockFiles/set_5/main_unc/rightBlue\GB_RB_1.xlsx
431	main_unc	True	0.0	679	0	6.0	6.0	0.0	1	left	1.0	1.0	1.0	0	-0.0364677461237	blockFiles/set_5/main_unc/rightBlue\GB_RB_1.xlsx
432	main_unc	True	0.0	679	0	6.0	6.0	0.0	1	left	2.0	0.0	0.0	0	-0.0135947636142	blockFiles/set_5/main_unc/rightBlue\GB_RB_1.xlsx
433	main_unc	True	0.0	679	0	6.0	6.0	1.0	1	right	2.0	1.0	1.0	1	0.06081393962730001	blockFiles/set_5/main_unc/rightBlue\GB_RB_1.xlsx
434	main_unc	True	0.0	679	0	7.0	7.0	0.0	1	left	1.0	1.0	1.0	0	-0.0556749914028	blockFiles/set_5/main_unc/rightBlue\GB_RB_2.xlsx
435	main_unc	True	0.0	679	0	7.0	7.0	1.0	0	right	1.0	1.0	1.0	0	-0.0318469401635	blockFiles/set_5/main_unc/rightBlue\GB_RB_2.xlsx
436	main_unc	True	0.0	679	0	7.0	7.0	1.0	0	right	1.0	0.0	1.0	0	-0.024383578561200003	blockFiles/set_5/main_unc/rightBlue\GB_RB_2.xlsx
437	main_unc	True	0.0	679	0	7.0	7.0	1.0	0	right	2.0	0.0	0.0	0	-0.012183187045200002	blockFiles/set_5/main_unc/rightBlue\GB_RB_2.xlsx
438	main_unc	True	0.0	679	0	7.0	7.0	1.0	1	right	2.0	1.0	1.0	1	0.00463022578508	blockFiles/set_5/main_unc/rightBlue\GB_RB_2.xlsx
439	main_unc	True	0.0	679	0	7.0	7.0	1.0	1	right	1.0	0.0	0.0	1	0.0557654715516	blockFiles/set_5/main_unc/rightBlue\GB_RB_2.xlsx
440	main_unc	True	0.0	679	0	7.0	7.0	1.0	1	right	2.0	1.0	1.0	1	0.0712750033289	blockFiles/set_5/main_unc/rightBlue\GB_RB_2.xlsx
441	main_unc	True	0.0	679	0	7.0	7.0	0.0	1	left	1.0	1.0	1.0	0	-0.058960846010600004	blockFiles/set_5/main_unc/rightBlue\GB_RB_2.xlsx
442	main_unc	True	0.0	679	0	7.0	7.0	1.0	1	right	2.0	1.0	1.0	1	0.035961127877199996	blockFiles/set_5/main_unc/rightBlue\GB_RB_2.xlsx
443	main_unc	True	0.0	679	0	7.0	7.0	1.0	0	right	1.0	1.0	1.0	0	-0.019778253696900002	blockFiles/set_5/main_unc/rightBlue\GB_RB_2.xlsx
444	main_unc	True	0.0	679	0	7.0	7.0	0.0	1	left	1.0	1.0	1.0	0	-0.0561653923243	blockFiles/set_5/main_unc/rightBlue\GB_RB_2.xlsx
445	main_unc	True	0.0	679	0	7.0	7.0	0.0	1	left	1.0	1.0	1.0	0	-0.059217753745599996	blockFiles/set_5/main_unc/rightBlue\GB_RB_2.xlsx
446	main_unc	True	0.0	679	0	7.0	7.0	1.0	1	right	2.0	1.0	1.0	1	0.019806039072599996	blockFiles/set_5/main_unc/rightBlue\GB_RB_2.xlsx
447	main_unc	True	0.0	679	0	7.0	7.0	0.0	1	left	2.0	1.0	0.0	0	-0.0475508985482	blockFiles/set_5/main_unc/rightBlue\GB_RB_2.xlsx
448	main_unc	True	0.0	679	0	7.0	7.0	1.0	1	right	1.0	0.0	0.0	1	0.07666375495489999	blockFiles/set_5/main_unc/rightBlue\GB_RB_2.xlsx
449	main_unc	True	0.0	679	0	7.0	7.0	1.0	1	right	2.0	1.0	1.0	1	0.025680824704499998	blockFiles/set_5/main_unc/rightBlue\GB_RB_2.xlsx
450	main_unc	True	1.0	679	0	7.0	7.0	n/a	0	None	n/a	0.0	n/a	0	-0.040523290410599995	blockFiles/set_5/main_unc/rightBlue\GB_RB_2.xlsx
451	main_unc	True	0.0	679	0	7.0	7.0	1.0	1	right	2.0	0.0	1.0	1	0.0738945694827	blockFiles/set_5/main_unc/rightBlue\GB_RB_2.xlsx
452	main_unc	True	0.0	679	0	7.0	7.0	0.0	1	left	1.0	1.0	1.0	0	-0.0160838271491	blockFiles/set_5/main_unc/rightBlue\GB_RB_2.xlsx
453	main_unc	True	0.0	679	0	7.0	7.0	1.0	1	right	2.0	1.0	1.0	1	0.04860035961490001	blockFiles/set_5/main_unc/rightBlue\GB_RB_2.xlsx
454	main_unc	True	0.0	679	0	7.0	7.0	0.0	1	left	2.0	0.0	0.0	0	-0.00241549341008	blockFiles/set_5/main_unc/rightBlue\GB_RB_2.xlsx
455	main_unc	True	0.0	679	0	7.0	7.0	1.0	1	right	2.0	0.0	1.0	1	0.035702623613199994	blockFiles/set_5/main_unc/rightBlue\GB_RB_2.xlsx
456	main_unc	True	0.0	679	0	7.0	7.0	0.0	1	left	1.0	1.0	1.0	0	-0.044554393142499996	blockFiles/set_5/main_unc/rightBlue\GB_RB_2.xlsx
457	main_unc	True	0.0	679	0	7.0	7.0	1.0	1	right	2.0	1.0	1.0	1	0.0717069062591	blockFiles/set_5/main_unc/rightBlue\GB_RB_2.xlsx
458	main_unc	True	0.0	679	0	7.0	7.0	1.0	1	right	2.0	1.0	1.0	1	0.07456163968889999	blockFiles/set_5/main_unc/rightBlue\GB_RB_2.xlsx
459	main_unc	True	0.0	679	0	7.0	7.0	0.0	1	left	1.0	1.0	1.0	0	-0.040523290410599995	blockFiles/set_5/main_unc/rightBlue\GB_RB_2.xlsx
460	main_unc	True	1.0	679	0	8.0	8.0	n/a	0	None	n/a	0.0	n/a	1	0.0498511824198	blockFiles/set_5/main_unc/leftBlue\GB_LB_6.xlsx
461	main_unc	True	0.0	679	0	8.0	8.0	0.0	0	left	2.0	0.0	0.0	1	0.004917254056779999	blockFiles/set_5/main_unc/leftBlue\GB_LB_6.xlsx
462	main_unc	True	0.0	679	0	8.0	8.0	0.0	1	left	1.0	0.0	0.0	0	-0.05097175586969999	blockFiles/set_5/main_unc/leftBlue\GB_LB_6.xlsx
463	main_unc	True	0.0	679	0	8.0	8.0	0.0	1	left	2.0	0.0	1.0	0	-0.0368077470735	blockFiles/set_5/main_unc/leftBlue\GB_LB_6.xlsx
464	main_unc	True	0.0	679	0	8.0	8.0	1.0	1	right	1.0	1.0	1.0	1	0.042282142248	blockFiles/set_5/main_unc/leftBlue\GB_LB_6.xlsx
465	main_unc	True	0.0	679	0	8.0	8.0	0.0	1	left	2.0	0.0	1.0	0	-0.0500633780845	blockFiles/set_5/main_unc/leftBlue\GB_LB_6.xlsx
466	main_unc	True	0.0	679	0	8.0	8.0	1.0	1	right	1.0	1.0	1.0	1	0.0762949390151	blockFiles/set_5/main_unc/leftBlue\GB_LB_6.xlsx
467	main_unc	True	0.0	679	0	8.0	8.0	1.0	1	right	1.0	1.0	1.0	1	0.005875986348840001	blockFiles/set_5/main_unc/leftBlue\GB_LB_6.xlsx
468	main_unc	True	0.0	679	0	8.0	8.0	0.0	1	left	2.0	1.0	1.0	0	-0.0720121413469	blockFiles/set_5/main_unc/leftBlue\GB_LB_6.xlsx
469	main_unc	True	0.0	679	0	8.0	8.0	1.0	0	right	2.0	1.0	1.0	0	-0.0175623194501	blockFiles/set_5/main_unc/leftBlue\GB_LB_6.xlsx
470	main_unc	True	0.0	679	0	8.0	8.0	0.0	1	left	2.0	1.0	1.0	0	-0.06282154848799999	blockFiles/set_5/main_unc/leftBlue\GB_LB_6.xlsx
471	main_unc	True	0.0	679	0	8.0	8.0	1.0	1	right	1.0	1.0	1.0	1	0.055164229124800006	blockFiles/set_5/main_unc/leftBlue\GB_LB_6.xlsx
472	main_unc	True	0.0	679	0	8.0	8.0	0.0	1	left	2.0	0.0	1.0	0	-0.0544765742309	blockFiles/set_5/main_unc/leftBlue\GB_LB_6.xlsx
473	main_unc	True	0.0	679	0	8.0	8.0	1.0	1	right	2.0	0.0	0.0	1	0.00228404242545	blockFiles/set_5/main_unc/leftBlue\GB_LB_6.xlsx
474	main_unc	True	0.0	679	0	8.0	8.0	1.0	1	right	1.0	1.0	1.0	1	0.021293747220200002	blockFiles/set_5/main_unc/leftBlue\GB_LB_6.xlsx
475	main_unc	True	0.0	679	0	8.0	8.0	1.0	1	right	1.0	1.0	1.0	1	0.0308371872455	blockFiles/set_5/main_unc/leftBlue\GB_LB_6.xlsx
476	main_unc	True	0.0	679	0	8.0	8.0	0.0	1	left	2.0	0.0	1.0	0	-0.06914139421660001	blockFiles/set_5/main_unc/leftBlue\GB_LB_6.xlsx
477	main_unc	True	0.0	679	0	8.0	8.0	0.0	1	left	2.0	1.0	1.0	0	-0.052039733659499994	blockFiles/set_5/main_unc/leftBlue\GB_LB_6.xlsx
478	main_unc	True	0.0	679	0	8.0	8.0	0.0	1	left	2.0	1.0	1.0	0	-0.0756728759035	blockFiles/set_5/main_unc/leftBlue\GB_LB_6.xlsx
479	main_unc	True	0.0	679	0	8.0	8.0	0.0	0	left	1.0	1.0	1.0	1	0.000770716611296	blockFiles/set_5/main_unc/leftBlue\GB_LB_6.xlsx
480	main_unc	True	0.0	679	0	8.0	8.0	1.0	1	right	1.0	1.0	1.0	1	0.061890683937800006	blockFiles/set_5/main_unc/leftBlue\GB_LB_6.xlsx
481	main_unc	True	0.0	679	0	8.0	8.0	0.0	1	left	2.0	1.0	1.0	0	-0.0121149762906	blockFiles/set_5/main_unc/leftBlue\GB_LB_6.xlsx
482	main_unc	True	0.0	679	0	8.0	8.0	0.0	1	left	2.0	1.0	1.0	0	-0.019239571616099998	blockFiles/set_5/main_unc/leftBlue\GB_LB_6.xlsx
483	main_unc	True	0.0	679	0	8.0	8.0	0.0	0	left	1.0	1.0	1.0	1	0.024352543484400004	blockFiles/set_5/main_unc/leftBlue\GB_LB_6.xlsx
484	main_unc	True	0.0	679	0	8.0	8.0	1.0	1	right	1.0	1.0	1.0	1	0.06431818429380001	blockFiles/set_5/main_unc/leftBlue\GB_LB_6.xlsx
485	main_unc	True	0.0	679	0	8.0	8.0	1.0	1	right	1.0	1.0	1.0	1	0.0498511824198	blockFiles/set_5/main_unc/leftBlue\GB_LB_6.xlsx
486	main_unc	True	0.0	679	0	9.0	9.0	0.0	1	left	2.0	0.0	1.0	0	-0.041183527074800004	blockFiles/set_5/main_unc/leftBlue\GB_LB_3.xlsx
487	main_unc	True	0.0	679	0	9.0	9.0	1.0	1	right	1.0	1.0	1.0	1	0.018334242198599998	blockFiles/set_5/main_unc/leftBlue\GB_LB_3.xlsx
488	main_unc	True	0.0	679	0	9.0	9.0	0.0	1	left	1.0	0.0	0.0	0	-0.0724029420502	blockFiles/set_5/main_unc/leftBlue\GB_LB_3.xlsx
489	main_unc	True	0.0	679	0	9.0	9.0	1.0	1	right	1.0	1.0	1.0	1	0.034593573547900006	blockFiles/set_5/main_unc/leftBlue\GB_LB_3.xlsx
490	main_unc	True	0.0	679	0	9.0	9.0	0.0	1	left	2.0	0.0	1.0	0	-0.009491388220340001	blockFiles/set_5/main_unc/leftBlue\GB_LB_3.xlsx
491	main_unc	True	0.0	679	0	9.0	9.0	0.0	1	left	2.0	0.0	1.0	0	-0.045936729461000005	blockFiles/set_5/main_unc/leftBlue\GB_LB_3.xlsx
492	main_unc	True	0.0	679	0	9.0	9.0	1.0	1	right	1.0	1.0	1.0	1	0.044149548783900004	blockFiles/set_5/main_unc/leftBlue\GB_LB_3.xlsx
493	main_unc	True	0.0	679	0	9.0	9.0	1.0	0	right	2.0	1.0	1.0	0	-0.0208169741556	blockFiles/set_5/main_unc/leftBlue\GB_LB_3.xlsx
494	main_unc	True	0.0	679	0	9.0	9.0	1.0	1	right	1.0	1.0	1.0	1	0.0422317516059	blockFiles/set_5/main_unc/leftBlue\GB_LB_3.xlsx
495	main_unc	True	0.0	679	0	9.0	9.0	1.0	1	right	1.0	1.0	1.0	1	0.0622778000869	blockFiles/set_5/main_unc/leftBlue\GB_LB_3.xlsx
496	main_unc	True	0.0	679	0	9.0	9.0	0.0	1	left	2.0	1.0	1.0	0	-0.0223872314021	blockFiles/set_5/main_unc/leftBlue\GB_LB_3.xlsx
497	main_unc	True	0.0	679	0	9.0	9.0	0.0	0	left	1.0	0.0	1.0	1	0.007981431279329999	blockFiles/set_5/main_unc/leftBlue\GB_LB_3.xlsx
498	main_unc	True	0.0	679	0	9.0	9.0	0.0	1	left	2.0	1.0	1.0	0	-0.0614075021818	blockFiles/set_5/main_unc/leftBlue\GB_LB_3.xlsx
499	main_unc	True	0.0	679	0	9.0	9.0	1.0	0	right	1.0	1.0	0.0	0	-0.00362349273637	blockFiles/set_5/main_unc/leftBlue\GB_LB_3.xlsx
500	main_unc	True	0.0	679	0	9.0	9.0	1.0	1	right	1.0	1.0	1.0	1	0.0502509837598	blockFiles/set_5/main_unc/leftBlue\GB_LB_3.xlsx
501	main_unc	True	0.0	679	0	9.0	9.0	0.0	1	left	2.0	1.0	1.0	0	-0.027224045191000003	blockFiles/set_5/main_unc/leftBlue\GB_LB_3.xlsx
502	main_unc	True	0.0	679	0	9.0	9.0	0.0	1	left	2.0	1.0	1.0	0	-0.039053895603900005	blockFiles/set_5/main_unc/leftBlue\GB_LB_3.xlsx
503	main_unc	True	0.0	679	0	9.0	9.0	1.0	1	right	1.0	1.0	1.0	1	0.0512915308774	blockFiles/set_5/main_unc/leftBlue\GB_LB_3.xlsx
504	main_unc	True	0.0	679	0	9.0	9.0	1.0	1	right	1.0	1.0	1.0	1	0.0527250857465	blockFiles/set_5/main_unc/leftBlue\GB_LB_3.xlsx
505	main_unc	True	0.0	679	0	9.0	9.0	1.0	1	right	2.0	0.0	0.0	1	0.0022125262767099998	blockFiles/set_5/main_unc/leftBlue\GB_LB_3.xlsx
506	main_unc	True	0.0	679	0	9.0	9.0	1.0	1	right	1.0	1.0	1.0	1	0.0659336259961	blockFiles/set_5/main_unc/leftBlue\GB_LB_3.xlsx
507	main_unc	True	0.0	679	0	9.0	9.0	0.0	0	left	1.0	1.0	1.0	1	0.0027249171026100002	blockFiles/set_5/main_unc/leftBlue\GB_LB_3.xlsx
508	main_unc	True	0.0	679	0	9.0	9.0	1.0	1	right	1.0	1.0	1.0	1	0.0506477341428	blockFiles/set_5/main_unc/leftBlue\GB_LB_3.xlsx
509	main_unc	True	0.0	679	0	9.0	9.0	0.0	1	left	2.0	1.0	1.0	0	-0.0736029651761	blockFiles/set_5/main_unc/leftBlue\GB_LB_3.xlsx
510	main_unc	True	0.0	679	0	9.0	9.0	0.0	1	left	2.0	1.0	1.0	0	-0.0434716758691	blockFiles/set_5/main_unc/leftBlue\GB_LB_3.xlsx
511	main_unc	True	0.0	679	0	10.0	10.0	1.0	1	right	2.0	0.0	0.0	1	0.0630323638394	blockFiles/set_5/main_unc/leftBlue\GB_LB_2.xlsx
512	main_unc	True	0.0	679	0	10.0	10.0	0.0	0	left	1.0	1.0	1.0	1	0.0201486929506	blockFiles/set_5/main_unc/leftBlue\GB_LB_2.xlsx
513	main_unc	True	0.0	679	0	10.0	10.0	0.0	1	left	2.0	1.0	1.0	0	-0.0353447175212	blockFiles/set_5/main_unc/leftBlue\GB_LB_2.xlsx
514	main_unc	True	0.0	679	0	10.0	10.0	0.0	1	left	2.0	0.0	1.0	0	-0.0589042047784	blockFiles/set_5/main_unc/leftBlue\GB_LB_2.xlsx
515	main_unc	True	0.0	679	0	10.0	10.0	1.0	1	right	1.0	1.0	1.0	1	0.03625417822969999	blockFiles/set_5/main_unc/leftBlue\GB_LB_2.xlsx
516	main_unc	True	0.0	679	0	10.0	10.0	1.0	1	right	1.0	0.0	1.0	1	0.0770452237688	blockFiles/set_5/main_unc/leftBlue\GB_LB_2.xlsx
517	main_unc	True	0.0	679	0	10.0	10.0	0.0	1	left	1.0	0.0	0.0	0	-0.013809819873399999	blockFiles/set_5/main_unc/leftBlue\GB_LB_2.xlsx
518	main_unc	True	0.0	679	0	10.0	10.0	1.0	1	right	1.0	1.0	1.0	1	0.0295045845956	blockFiles/set_5/main_unc/leftBlue\GB_LB_2.xlsx
519	main_unc	True	0.0	679	0	10.0	10.0	1.0	1	right	2.0	0.0	0.0	1	0.0161673332751	blockFiles/set_5/main_unc/leftBlue\GB_LB_2.xlsx
520	main_unc	True	0.0	679	0	10.0	10.0	0.0	0	left	1.0	1.0	1.0	1	0.0028124708309799997	blockFiles/set_5/main_unc/leftBlue\GB_LB_2.xlsx
521	main_unc	True	0.0	679	0	10.0	10.0	1.0	1	right	1.0	1.0	1.0	1	0.0325722525455	blockFiles/set_5/main_unc/leftBlue\GB_LB_2.xlsx
522	main_unc	True	0.0	679	0	10.0	10.0	0.0	1	left	2.0	1.0	1.0	0	-0.07341296283530001	blockFiles/set_5/main_unc/leftBlue\GB_LB_2.xlsx
523	main_unc	True	0.0	679	0	10.0	10.0	1.0	1	right	1.0	1.0	1.0	1	0.015163919162000002	blockFiles/set_5/main_unc/leftBlue\GB_LB_2.xlsx
524	main_unc	True	0.0	679	0	10.0	10.0	0.0	1	left	2.0	0.0	1.0	0	-0.0690700479969	blockFiles/set_5/main_unc/leftBlue\GB_LB_2.xlsx
525	main_unc	True	0.0	679	0	10.0	10.0	1.0	1	right	1.0	1.0	1.0	1	0.027436831053299998	blockFiles/set_5/main_unc/leftBlue\GB_LB_2.xlsx
526	main_unc	True	0.0	679	0	10.0	10.0	1.0	0	right	2.0	1.0	1.0	0	-0.018872283957900002	blockFiles/set_5/main_unc/leftBlue\GB_LB_2.xlsx
527	main_unc	True	0.0	679	0	10.0	10.0	1.0	1	right	1.0	1.0	1.0	1	0.0247579566017	blockFiles/set_5/main_unc/leftBlue\GB_LB_2.xlsx
528	main_unc	True	1.0	679	0	10.0	10.0	n/a	0	None	n/a	0.0	n/a	0	-0.00728900594637	blockFiles/set_5/main_unc/leftBlue\GB_LB_2.xlsx
529	main_unc	True	0.0	679	0	10.0	10.0	1.0	1	right	1.0	1.0	1.0	1	0.0648122976162	blockFiles/set_5/main_unc/leftBlue\GB_LB_2.xlsx
530	main_unc	True	0.0	679	0	10.0	10.0	0.0	1	left	2.0	1.0	1.0	0	-0.053974589612300006	blockFiles/set_5/main_unc/leftBlue\GB_LB_2.xlsx
531	main_unc	True	0.0	679	0	10.0	10.0	1.0	1	right	1.0	1.0	1.0	1	0.0641713806055	blockFiles/set_5/main_unc/leftBlue\GB_LB_2.xlsx
532	main_unc	True	0.0	679	0	10.0	10.0	1.0	1	right	1.0	0.0	1.0	1	0.0395926102251	blockFiles/set_5/main_unc/leftBlue\GB_LB_2.xlsx
533	main_unc	True	0.0	679	0	10.0	10.0	0.0	1	left	2.0	1.0	1.0	0	-0.0512549941242	blockFiles/set_5/main_unc/leftBlue\GB_LB_2.xlsx
534	main_unc	True	0.0	679	0	10.0	10.0	1.0	0	right	2.0	1.0	1.0	0	-0.0082262868993	blockFiles/set_5/main_unc/leftBlue\GB_LB_2.xlsx
535	main_unc	True	0.0	679	0	10.0	10.0	0.0	1	left	2.0	1.0	1.0	0	-0.0305582012236	blockFiles/set_5/main_unc/leftBlue\GB_LB_2.xlsx
536	main_unc	True	0.0	679	0	10.0	10.0	0.0	1	left	2.0	1.0	1.0	0	-0.00728900594637	blockFiles/set_5/main_unc/leftBlue\GB_LB_2.xlsx
537	main_unc	True	0.0	679	0	11.0	11.0	1.0	1	right	2.0	1.0	1.0	1	0.023103886730999997	blockFiles/set_5/main_unc/rightBlue\GB_RB_4.xlsx
538	main_unc	True	0.0	679	0	11.0	11.0	1.0	1	right	2.0	1.0	1.0	1	0.0409107301384	blockFiles/set_5/main_unc/rightBlue\GB_RB_4.xlsx
539	main_unc	True	0.0	679	0	11.0	11.0	1.0	1	right	2.0	1.0	1.0	1	0.0340129292943	blockFiles/set_5/main_unc/rightBlue\GB_RB_4.xlsx
540	main_unc	True	0.0	679	0	11.0	11.0	0.0	1	left	1.0	1.0	1.0	0	-0.039788148049300004	blockFiles/set_5/main_unc/rightBlue\GB_RB_4.xlsx
541	main_unc	True	0.0	679	0	11.0	11.0	1.0	1	right	2.0	1.0	1.0	1	0.0268583977036	blockFiles/set_5/main_unc/rightBlue\GB_RB_4.xlsx
542	main_unc	True	0.0	679	0	11.0	11.0	0.0	1	left	1.0	1.0	1.0	0	-0.0670240191929	blockFiles/set_5/main_unc/rightBlue\GB_RB_4.xlsx
543	main_unc	True	0.0	679	0	11.0	11.0	1.0	1	right	2.0	0.0	1.0	1	0.00521450102329	blockFiles/set_5/main_unc/rightBlue\GB_RB_4.xlsx
544	main_unc	True	0.0	679	0	11.0	11.0	0.0	1	left	1.0	1.0	1.0	0	-0.061680069044199995	blockFiles/set_5/main_unc/rightBlue\GB_RB_4.xlsx
545	main_unc	True	0.0	679	0	11.0	11.0	0.0	1	left	1.0	1.0	1.0	0	-0.0787676952407	blockFiles/set_5/main_unc/rightBlue\GB_RB_4.xlsx
546	main_unc	True	0.0	679	0	11.0	11.0	1.0	1	right	2.0	0.0	1.0	1	0.0264758279175	blockFiles/set_5/main_unc/rightBlue\GB_RB_4.xlsx
547	main_unc	True	0.0	679	0	11.0	11.0	1.0	0	right	2.0	0.0	0.0	0	-0.011432963274399998	blockFiles/set_5/main_unc/rightBlue\GB_RB_4.xlsx
548	main_unc	True	0.0	679	0	11.0	11.0	1.0	1	right	2.0	1.0	1.0	1	0.05648153938350001	blockFiles/set_5/main_unc/rightBlue\GB_RB_4.xlsx
549	main_unc	True	0.0	679	0	11.0	11.0	0.0	1	left	1.0	1.0	1.0	0	-0.0614599982835	blockFiles/set_5/main_unc/rightBlue\GB_RB_4.xlsx
550	main_unc	True	0.0	679	0	11.0	11.0	1.0	0	right	1.0	1.0	1.0	0	-0.0199515244924	blockFiles/set_5/main_unc/rightBlue\GB_RB_4.xlsx
551	main_unc	True	0.0	679	0	11.0	11.0	0.0	1	left	1.0	1.0	1.0	0	-0.022394906058900002	blockFiles/set_5/main_unc/rightBlue\GB_RB_4.xlsx
552	main_unc	True	0.0	679	0	11.0	11.0	1.0	1	right	2.0	1.0	1.0	1	0.07117324771360001	blockFiles/set_5/main_unc/rightBlue\GB_RB_4.xlsx
553	main_unc	True	0.0	679	0	11.0	11.0	1.0	1	right	2.0	1.0	1.0	1	0.032210928704599996	blockFiles/set_5/main_unc/rightBlue\GB_RB_4.xlsx
554	main_unc	True	0.0	679	0	11.0	11.0	0.0	1	left	1.0	0.0	1.0	0	-0.0395286262594	blockFiles/set_5/main_unc/rightBlue\GB_RB_4.xlsx
555	main_unc	True	0.0	679	0	11.0	11.0	1.0	0	right	2.0	1.0	0.0	0	-0.005459364373239999	blockFiles/set_5/main_unc/rightBlue\GB_RB_4.xlsx
556	main_unc	True	0.0	679	0	11.0	11.0	1.0	1	right	2.0	1.0	1.0	1	0.0424392948113	blockFiles/set_5/main_unc/rightBlue\GB_RB_4.xlsx
557	main_unc	True	0.0	679	0	11.0	11.0	0.0	1	left	1.0	1.0	1.0	0	-0.0787650438584	blockFiles/set_5/main_unc/rightBlue\GB_RB_4.xlsx
558	main_unc	True	0.0	679	0	11.0	11.0	1.0	1	right	2.0	1.0	1.0	1	0.06913148628549999	blockFiles/set_5/main_unc/rightBlue\GB_RB_4.xlsx
559	main_unc	True	0.0	679	0	11.0	11.0	0.0	1	left	1.0	1.0	1.0	0	-0.0381082531624	blockFiles/set_5/main_unc/rightBlue\GB_RB_4.xlsx
560	main_unc	True	0.0	679	0	11.0	11.0	1.0	0	right	1.0	0.0	1.0	0	-0.00123786525801	blockFiles/set_5/main_unc/rightBlue\GB_RB_4.xlsx
561	main_unc	True	0.0	679	0	11.0	11.0	1.0	1	right	2.0	1.0	1.0	1	0.0669870125316	blockFiles/set_5/main_unc/rightBlue\GB_RB_4.xlsx
